cycle_index,gait_percent,segment_id,walk_dt_ms,walk_exec_ms,walk_out,walk_state,walk_tilt_forward_deg,walk_pos_rad,walk_vel_rad_s,walk_tq_nm,walk_temp_c,walk_vbus_v,walk_err_code,walk_fb_age_ms,walk_typical_stride_ms,walk_effective_step_count,walk_tilt_accel_deg,walk_acc_x,walk_acc_y,walk_acc_z,walk_gyr_x,walk_gyr_y,walk_gyr_z,cfg_gait_model,cfg_gait_mode,cfg_side_is_left,cfg_assist_pct,ankle_joint_angle_deg,leg_tilt_angle_deg,foot_tilt_angle_deg
13,0.0,1,20.0,0.0,0,1,6.69,-0.092,0.704,1.956,30.0,25.76,0,39.0,1851.0,24.0,17.43,-0.34,-1.08,-0.01,-4.85,5.08,6.08,0,1,1,100.0,5.271211715203574,6.69,-1.4187882847964266
13,1.0,1,20.0,0.0,0,1,6.470400000000001,-0.092,0.704,1.956,30.0,25.76,0,51.2,1851.0,24.0,17.2104,-0.33390000000000003,-1.08,-0.01,-4.7768,3.2500000000000004,6.9157,0,1,1,100.0,5.271211715203574,6.470400000000001,-1.1991882847964268
13,2.0,1,20.0,0.0,0,1,6.2662,-0.092,0.704,1.956,30.0,25.76,0,63.4,1851.0,24.0,16.982,-0.32780000000000004,-1.08,-0.01,-4.7058,1.4860000000000002,7.5138,0,1,1,100.0,5.271211715203574,6.2662,-0.9949882847964266
13,3.0,1,20.0,0.0,0,1,6.0893,-0.092,0.704,1.956,30.0,25.76,0,75.6,1851.0,24.0,16.738000000000003,-0.3217,-1.08,-0.01,-4.6387,-0.1609999999999993,7.6907000000000005,0,1,1,100.0,5.271211715203574,6.0893,-0.8180882847964259
13,4.0,1,20.0,0.0,0,1,5.9388,-0.0722,3.350599999999999,1.0953600000000003,30.0,25.8348,0,52.60000000000001,1851.0,24.0,16.472,-0.3156,-1.0756000000000001,-0.0144,-4.5804,-1.6011999999999997,7.476,0,1,1,100.0,4.136755280844544,5.9388,-1.8020447191554556
13,5.0,1,20.0,0.0,0,1,5.802,-0.04655,6.413250000000001,-0.0,30.0,25.932,0,19.0,1851.0,24.0,16.194499999999998,-0.3095,-1.07,-0.02,-4.5265,-2.934,7.0705,0,1,1,100.0,2.667118536333982,5.802,-3.1348814636660176
13,6.0,1,20.0,0.0,0,1,5.704400000000001,-0.041060000000000006,2.6831000000000036,-0.0,30.0,25.9564,0,19.0,1851.0,24.0,15.8834,-0.3034,-1.07,-0.02,-4.4838000000000005,-3.958799999999999,6.222600000000001,0,1,1,100.0,2.3525647068071605,5.704400000000001,-3.35183529319284
13,7.0,1,20.0,0.0,0,1,5.6203,-0.035570000000000004,0.5770000000000001,-0.0,30.0,25.9592,0,19.0,1851.0,24.0,15.553400000000002,-0.2973,-1.0673000000000001,-0.02,-4.4546,-4.8405,5.201900000000001,0,1,1,100.0,2.0380108772803385,5.6203,-3.582289122719662
13,8.0,1,20.0,0.0,0,1,5.5532,-0.030080000000000003,0.516,-0.0,30.0,25.9348,0,19.0,1851.0,24.0,15.1996,-0.29119999999999996,-1.0612000000000001,-0.02,-4.4424,-5.542,3.963600000000001,0,1,1,100.0,1.7234570477535165,5.5532,-3.829742952246484
13,9.0,1,20.0,0.0,0,1,5.5302,-0.02704,0.506695,-0.0,30.0,25.93,0,19.0,1851.0,24.0,14.968300000000001,-0.28509999999999996,-1.05755,-0.022449999999999998,-4.44735,-5.8416999999999994,3.1050500000000003,0,1,1,100.0,1.5492778780337462,5.5302,-3.9809221219662536
13,10.0,1,20.0,0.0,0,1,5.518,-0.0246,0.51005,-0.0,30.0,25.93,0,19.0,1851.0,24.0,14.767000000000001,-0.279,-1.0545,-0.0255,-4.4565,-6.043,2.3395,0,1,1,100.0,1.409476176021825,5.518,-4.1085238239781745
13,11.0,1,20.0,0.0,0,1,5.5058,-0.022160000000000003,0.513405,-0.0,30.0,25.93,0,19.0,1851.0,24.0,14.565700000000001,-0.27290000000000003,-1.05145,-0.028549999999999996,-4.46565,-6.2443,1.5739500000000008,0,1,1,100.0,1.2696744740099044,5.5058,-4.236125525990095
13,12.0,1,20.0,1.0,0,1,5.5128,-0.004840000000000014,1.0442000000000002,-0.0,30.0,25.93,0,20.0,1851.0,24.0,13.474000000000002,-0.25360000000000005,-1.0468,-0.033199999999999986,-4.5592,-6.5544,-2.7371999999999965,0,1,1,100.0,0.27731157284331925,5.5128,-5.235488427156681
13,13.0,1,20.0,1.0,0,1,5.5372,0.0030899999999999964,0.91305,-0.0,30.0,25.93,0,20.0,1851.0,24.0,12.986,-0.2414,-1.0407,-0.0393,-4.5958,-6.5056,-4.695299999999999,0,1,1,100.0,-0.17704395869542416,5.5372,-5.714243958695424
13,14.0,1,20.0,1.0,0,1,5.5778,0.012639999999999986,0.9584799999999999,-0.0,30.0,25.93,0,20.0,1851.0,24.0,12.4602,-0.22920000000000001,-1.04,-0.04,-4.627,-6.3488,-6.761399999999997,0,1,1,100.0,-0.7242186530453598,5.5778,-6.3020186530453595
13,15.0,1,20.0,1.0,0,1,5.625,0.0224,1.03865,-0.0,30.0,25.93,0,20.0,1851.0,24.0,11.922,-0.217,-1.0385,-0.0415,-4.6485,-6.16,-8.861,0,1,1,100.0,-1.283425461093044,5.625,-6.908425461093044
13,16.0,1,20.0,1.0,0,1,5.686,0.03215999999999999,1.15516,-0.0,30.0,25.93,0,20.0,1851.0,24.0,11.360800000000001,-0.2048,-1.0324,-0.047599999999999996,-4.642399999999999,-5.916,-11.020399999999997,0,1,1,100.0,-1.8426322691407269,5.686,-7.528632269140727
13,17.0,1,20.0,1.0,0,1,5.747,0.04191999999999998,1.0922200000000004,-0.0,30.0,25.93,0,19.630000000000003,1851.0,24.0,10.7848,-0.19260000000000002,-1.03,-0.05,-4.6215,-5.638700000000001,-13.179799999999995,0,1,1,100.0,-2.4018390771884097,5.747,-8.14883907718841
13,18.0,1,20.0,1.0,0,1,5.808,0.05168,0.9128800000000001,-0.0,30.0,25.93,0,19.02,1851.0,24.0,10.1992,-0.1804,-1.03,-0.05,-4.591,-5.3398,-15.3392,0,1,1,100.0,-2.961045885236094,5.808,-8.769045885236094
13,19.0,1,20.0,1.0,0,1,5.869,0.06143999999999999,1.0657099999999997,-0.0,30.0,25.93,0,19.0,1851.0,24.0,9.5959,-0.1741,-1.03,-0.05589999999999999,-4.5369,-5.0173000000000005,-17.451399999999996,0,1,1,100.0,-3.520252693283777,5.869,-9.389252693283776
13,20.0,1,20.0,1.0,0,1,5.92,0.0694,1.1417,-0.0,30.0,25.93,0,19.0,1851.0,24.0,9.088999999999999,-0.168,-1.029,-0.06,-4.4879999999999995,-4.745,-19.191000000000003,0,1,1,100.0,-3.9763270982079133,5.92,-9.896327098207912
13,21.0,1,20.0,1.0,0,1,5.9505,0.07367,1.037085,-0.0,30.0,25.93,0,19.0,1851.0,24.0,8.78095,-0.16190000000000002,-1.02595,-0.06,-4.4514,-4.57725,-20.17005,0,1,1,100.0,-4.220980076728774,5.9505,-10.171480076728773
13,22.0,1,20.0,1.0,0,1,5.981,0.07794,0.9324700000000001,-0.0,30.0,25.93,0,19.0,1851.0,24.0,8.472900000000001,-0.15580000000000002,-1.0229,-0.06,-4.4148,-4.4095,-21.149099999999997,0,1,1,100.0,-4.465633055249636,5.981,-10.446633055249636
13,23.0,1,20.0,1.0,0,1,6.012099999999999,0.08235999999999999,0.8344999999999999,-0.0,30.0,25.93,0,19.0,1851.0,24.0,8.148500000000002,-0.14940000000000003,-1.02,-0.06029999999999998,-4.3752,-4.234100000000001,-22.163999999999994,0,1,1,100.0,-4.71888040069746,6.012099999999999,-10.730980400697458
13,24.0,1,20.0,1.0,0,1,6.0548,0.08967999999999997,0.8649999999999999,-0.0,30.0,25.93,0,19.0,1851.0,24.0,7.508000000000002,-0.13720000000000004,-1.02,-0.06639999999999999,-4.2776000000000005,-3.9108000000000014,-23.871999999999993,0,1,1,100.0,-5.1382855067332205,6.0548,-11.19308550673322
13,25.0,1,20.0,1.0,0,1,6.08625,0.094875,0.81825,-0.0,30.0,25.93,0,19.0,1851.0,24.0,6.99375,-0.1275,-1.02,-0.07,-4.194999999999999,-3.6575,-25.151249999999997,0,1,1,100.0,-5.435937081303686,6.08625,-11.522187081303684
13,26.0,1,20.0,1.0,0,1,6.1015,0.09701,0.6602600000000002,-0.0,30.0,25.93,0,19.0,1851.0,24.0,6.661300000000001,-0.12140000000000001,-1.02,-0.07,-4.1339999999999995,-3.5050000000000003,-25.8131,0,1,1,100.0,-5.558263570564116,6.1015,-11.659763570564117
13,27.0,1,20.0,1.0,6,2,6.11675,0.099145,0.5022700000000003,-0.0,30.0,25.93,0,19.0,1851.0,24.0,6.328850000000001,-0.11530000000000001,-1.02,-0.07,-4.0729999999999995,-3.3525000000000005,-26.47495,0,1,1,100.0,-5.680590059824547,6.11675,-11.797340059824545
13,28.0,1,20.0,0.0,6,2,6.1044,0.07384000000000004,-2.012920000000001,2.75472,30.0,25.69,0,18.0,1851.0,24.0,3.6248000000000022,-0.06840000000000004,-1.02,-0.08,-3.309200000000001,-1.9816000000000014,-27.529600000000002,0,1,1,100.0,-4.230720359246002,6.1044,-10.335120359246002
13,29.0,1,20.0,0.0,6,2,6.0617,0.05737000000000006,-1.6463100000000013,2.8974599999999997,30.0,25.69,0,18.0,1851.0,24.0,2.8989000000000025,-0.05620000000000005,-1.02,-0.08,-2.998100000000001,-1.5363000000000018,-26.230300000000003,0,1,1,100.0,-3.287058870665536,6.0617,-9.348758870665536
13,30.0,1,20.0,0.30000000000000004,6,2,6.004,0.044500000000000005,-1.286,2.8413,30.0,25.711000000000002,0,18.3,1851.0,24.0,2.182,-0.041,-1.0230000000000001,-0.08,-2.645,-1.094,-24.463,0,1,1,100.0,-2.5496621883321637,6.004,-8.553662188332163
13,31.0,1,20.0,0.9099999999999995,6,2,5.9308,0.03535000000000001,-0.9322000000000004,2.57961,30.0,25.753700000000002,0,18.91,1851.0,24.0,1.4744000000000008,-0.02270000000000002,-1.0291000000000001,-0.08,-2.2485000000000004,-0.6548000000000004,-22.212100000000003,0,1,1,100.0,-2.025405805787461,5.9308,-7.9562058057874605
13,32.0,1,20.0,0.4800000000000011,6,2,5.8368,0.027760000000000014,-0.87168,2.108360000000001,30.0,25.7964,0,18.48,1851.0,24.0,0.8188000000000013,-0.014800000000000011,-1.03,-0.08519999999999998,-1.7688000000000008,-0.2988000000000006,-19.285200000000007,0,1,1,100.0,-1.590530839283166,5.8368,-7.427330839283166
13,33.0,1,20.0,0.1299999999999983,6,2,5.7327,0.02057000000000002,-0.8430700000000002,1.5939500000000015,30.0,25.843,0,18.13,1851.0,24.0,0.19170000000000156,-0.007400000000000034,-1.03,-0.09,-1.2526000000000015,0.008999999999999496,-16.11130000000001,0,1,1,100.0,-1.1785741845841045,5.7327,-6.911274184584105
13,34.0,1,20.0,0.7399999999999978,6,2,5.6046000000000005,0.013860000000000025,-0.7448600000000003,1.054100000000002,30.0,25.904,0,18.74,1851.0,24.0,-0.3633999999999979,0.0047999999999999545,-1.03,-0.09,-0.6548000000000022,0.19199999999999937,-12.457400000000014,0,1,1,100.0,-0.7941195040513225,5.6046000000000005,-6.398719504051323
13,35.0,1,20.0,1.0,6,2,5.4695,0.008199999999999999,-0.5559999999999999,0.49044999999999994,30.0,25.93,0,19.0,1851.0,24.0,-0.866,0.0135,-1.0335,-0.09,-0.011500000000000066,0.28400000000000003,-8.5655,0,1,1,100.0,-0.46982539200727497,5.4695,-5.939325392007275
13,36.0,1,20.0,1.0,6,2,5.3292,0.0033200000000000035,-0.29980000000000023,-0.09087999999999946,30.0,25.93,0,19.0,1851.0,24.0,-1.3295999999999997,0.019599999999999996,-1.0396,-0.09,0.6655999999999992,0.30839999999999995,-4.496800000000004,0,1,1,100.0,-0.1902219879834335,5.3292,-5.519421987983434
13,37.0,1,20.0,1.0,6,2,5.245900000000001,0.0010050000000000042,-0.29895999999999995,-0.3966149999999995,30.0,25.92145,0,19.0,1851.0,24.0,-1.5252999999999997,0.02569999999999999,-1.04,-0.09,1.0405999999999993,0.25015000000000015,-2.215050000000004,0,1,1,100.0,-0.05758225841064797,5.245900000000001,-5.303482258410648
13,38.0,1,20.0,1.0,6,2,5.1666,-0.0011299999999999939,-0.31603999999999993,-0.6830099999999992,30.0,25.9123,0,19.0,1851.0,24.0,-1.7021999999999995,0.03179999999999998,-1.04,-0.09,1.3943999999999992,0.18610000000000018,-0.058700000000006025,0,1,1,100.0,0.06474423084978267,5.1666,-5.101855769150217
13,39.0,1,20.0,1.0,6,2,5.0873,-0.003264999999999992,-0.33311999999999997,-0.9694049999999991,30.0,25.90315,0,19.0,1851.0,24.0,-1.8790999999999993,0.037899999999999975,-1.04,-0.09,1.7481999999999989,0.12205000000000026,2.0976499999999922,0,1,1,100.0,0.1870707201102133,5.0873,-4.900229279889786
13,40.0,1,20.0,1.0,6,2,4.9479999999999995,-0.0052,-0.2398,-1.0968,30.0,25.9,0,19.0,1851.0,24.0,-2.12,0.04,-1.044,-0.09,2.314,-0.06,5.736,0,1,1,100.0,0.29793805346802804,4.9479999999999995,-4.650061946531972
13,41.0,1,20.0,1.0,6,2,4.7786,-0.007,-0.08994500000000005,-1.13856,30.0,25.9,0,19.0,1851.0,24.0,-2.3916,0.040049999999999995,-1.0500500000000001,-0.09,2.9848999999999997,-0.30244999999999983,10.116399999999999,0,1,1,100.0,0.40107045659157625,4.7786,-4.377529543408424
13,42.0,1,20.0,1.0,6,2,4.6932,-0.007,-0.025590000000000116,-1.05072,30.0,25.9,0,19.0,1851.0,24.0,-2.4892,0.04309999999999999,-1.0531000000000001,-0.09,3.2837999999999994,-0.4518999999999997,12.336799999999997,0,1,1,100.0,0.40107045659157625,4.6932,-4.292129543408424
13,43.0,1,20.0,1.0,6,2,4.6078,-0.007,0.038765000000000126,-0.9628799999999997,30.0,25.9,0,19.0,1851.0,24.0,-2.5868,0.04615000000000001,-1.0561500000000001,-0.09,3.5827000000000004,-0.6013500000000003,14.557200000000003,0,1,1,100.0,0.40107045659157625,4.6078,-4.206729543408424
13,44.0,1,20.0,1.0,6,2,4.5224,-0.007,0.10311999999999977,-0.8750400000000003,30.0,25.9,0,19.0,1851.0,24.0,-2.6843999999999997,0.049199999999999994,-1.0592000000000001,-0.09,3.881599999999999,-0.7507999999999995,16.777599999999993,0,1,1,100.0,0.40107045659157625,4.5224,-4.121329543408424
13,45.0,1,20.0,1.0,6,2,3.8755,-0.0041,0.05765,-0.2677,30.0,25.93,0,19.0,1851.0,24.0,-3.0255,0.06,-1.089,-0.08549999999999999,5.3545,-1.8820000000000001,35.052,0,1,1,100.0,0.23491269600363754,3.8755,-3.6405873039963628
13,46.0,1,20.0,1.0,6,2,3.7549,-0.002910000000000005,-0.054200000000000616,-0.187090000000001,30.0,25.93,0,19.0,1851.0,24.0,-3.0161000000000002,0.06,-1.1003,-0.08,5.4661,-2.0895999999999995,39.20239999999999,0,1,1,100.0,0.16673071838306985,3.7549,-3.5881692816169304
13,47.0,1,20.0,1.0,6,2,3.7030499999999997,-0.0019950000000000015,0.05559999999999978,-0.00500500000000034,30.0,25.93,0,19.0,1851.0,24.0,-2.9764500000000003,0.06,-1.10335,-0.08,5.42645,-2.1872,41.361799999999995,0,1,1,100.0,0.11430508012859933,3.7030499999999997,-3.5887449198714005
13,48.0,1,20.0,1.0,6,2,3.6512000000000002,-0.0010800000000000067,0.16539999999999916,0.17707999999999863,30.0,25.93,0,19.0,1851.0,24.0,-2.9368000000000003,0.06,-1.1064,-0.08,5.3868,-2.2847999999999993,43.521199999999986,0,1,1,100.0,0.0618794418741293,3.6512000000000002,-3.589320558125871
13,49.0,1,20.0,1.0,6,2,3.59935,-0.0001650000000000032,0.27519999999999956,0.3591649999999993,30.0,25.93,0,19.0,1851.0,24.0,-2.8971500000000003,0.06,-1.10945,-0.08,5.34715,-2.3823999999999996,45.68059999999999,0,1,1,100.0,0.009453803619658767,3.59935,-3.589896196380341
13,50.0,1,20.0,1.0,6,2,3.5300000000000002,0.0015,0.2425,0.5695,30.0,25.93,0,19.0,1851.0,24.0,-2.76,0.055,-1.12,-0.08,5.114999999999999,-2.585,49.475,0,1,1,100.0,-0.08594366926962349,3.5300000000000002,-3.615943669269624
13,51.0,1,20.0,1.0,6,2,3.4656000000000002,0.0032199999999999933,0.17845000000000036,0.7616299999999996,30.0,25.9267,0,19.0,1851.0,24.0,-2.590400000000001,0.05,-1.1310999999999998,-0.07890000000000004,4.811900000000002,-2.8447999999999976,53.55209999999998,0,1,1,100.0,-0.1844924100321247,3.4656000000000002,-3.650092410032125
13,52.0,1,20.0,1.0,6,2,3.4412000000000003,0.004439999999999998,0.11440000000000013,0.8427599999999998,30.0,25.9084,0,19.0,1851.0,24.0,-2.3708000000000005,0.05,-1.1372,-0.07280000000000002,4.378800000000001,-3.2595999999999994,57.279199999999996,0,1,1,100.0,-0.2543932610380854,3.4412000000000003,-3.6955932610380855
13,53.0,1,20.0,1.0,6,2,3.4962999999999993,0.004,-0.013069999999999644,0.4332600000000008,30.0,25.93,0,19.0,1851.0,24.0,-1.7811000000000015,0.036700000000000045,-1.15,-0.06670000000000005,3.1159000000000034,-5.406399999999991,64.6043,0,1,1,100.0,-0.2291831180523293,3.4962999999999993,-3.7254831180523285
13,54.0,1,20.0,1.0,6,2,3.5633999999999997,0.004,-0.06125999999999983,0.3246800000000004,30.0,25.93,0,19.0,1851.0,24.0,-1.5798000000000008,0.030600000000000023,-1.15,-0.06060000000000002,2.6462000000000017,-6.675199999999995,66.25739999999999,0,1,1,100.0,-0.2291831180523293,3.5633999999999997,-3.792583118052329
13,55.0,1,20.0,1.0,6,2,3.6799999999999997,0.00235,-0.18425000000000002,0.17595,30.0,25.93,0,19.0,1851.0,24.0,-1.472,0.03,-1.1444999999999999,-0.06,2.27,-8.406,66.55199999999999,0,1,1,100.0,-0.13464508185574348,3.6799999999999997,-3.814645081855743
13,56.0,1,20.0,1.0,6,2,3.816399999999999,0.0006800000000000069,-0.2552400000000006,0.00492000000000124,30.0,25.93,0,19.0,1851.0,24.0,-1.4095999999999997,0.03,-1.1368,-0.06,1.9392000000000014,-10.27519999999999,66.2664,0,1,1,100.0,-0.03896113006889637,3.816399999999999,-3.8553611300688955
13,57.0,1,20.0,1.0,6,2,3.993299999999999,-0.0005399999999999977,-0.1570300000000002,-0.2165099999999996,30.0,25.93,0,19.0,1851.0,24.0,-1.4462,0.03,-1.1246,-0.06,1.7074000000000005,-12.391899999999996,64.7658,0,1,1,100.0,0.030939720937064326,3.993299999999999,-3.962360279062935
13,58.0,1,20.0,1.0,6,2,4.200599999999998,-0.0013799999999999956,-0.13291999999999984,-0.36345999999999923,30.0,25.93,0,19.0,1851.0,24.0,-1.5777999999999985,0.03,-1.1162,-0.05620000000000004,1.5668000000000006,-14.527599999999984,62.24300000000002,0,1,1,100.0,0.07906817572805336,4.200599999999998,-4.121531824271944
13,59.0,1,20.0,1.0,6,2,4.426299999999999,-0.001989999999999998,-0.1536599999999999,-0.46532999999999963,30.0,25.93,0,19.0,1851.0,24.0,-1.7668999999999992,0.03,-1.1101,-0.050100000000000026,1.4814000000000003,-16.674799999999994,59.10150000000001,0,1,1,100.0,0.1140186012310337,4.426299999999999,-4.312281398768965
13,60.0,1,20.0,1.0,6,2,4.7059999999999995,-0.0032,-0.088,-0.5528,30.0,25.93,0,19.0,1851.0,24.0,-2.112,0.036,-1.092,-0.05,1.498,-18.414,54.514,0,1,1,100.0,0.18334649444186343,4.7059999999999995,-4.522653505558136
13,61.0,1,20.0,1.0,6,2,4.927099999999999,-0.004069999999999999,-0.04155000000000004,-0.6144099999999999,30.0,25.93,0,19.0,1851.0,24.07,-2.391099999999999,0.04139999999999998,-1.0779,-0.05,1.5211999999999999,-19.6543,50.82360000000001,0,1,1,100.0,0.233193822618245,4.927099999999999,-4.693906177381755
13,62.0,1,20.0,1.0,6,2,5.034866666666666,-0.004273333333333333,-0.034433333333333344,-0.62722,30.0,25.93,0,19.0,1851.0,24.273333333333333,-2.539533333333333,0.04546666666666666,-1.0718,-0.05,1.5537333333333332,-19.957266666666666,48.887866666666675,0,1,1,100.0,0.24484396445257178,5.034866666666666,-4.790022702214094
13,63.0,1,20.0,1.0,6,2,5.1426333333333325,-0.004476666666666665,-0.027316666666666718,-0.6400299999999999,30.0,25.93,0,19.0,1851.0,24.476666666666667,-2.6879666666666653,0.049533333333333304,-1.0657,-0.05,1.5862666666666665,-20.260233333333332,46.95213333333335,0,1,1,100.0,0.25649410628689845,5.1426333333333325,-4.886139227046434
13,64.0,1,20.0,1.0,1,5,5.250399999999999,-0.004679999999999999,-0.020200000000000027,-0.65284,30.0,25.93,0,19.0,1851.0,24.68,-2.8363999999999994,0.05359999999999998,-1.0596,-0.05,1.6187999999999998,-20.5632,45.016400000000004,0,1,1,100.0,0.2681442481212252,5.250399999999999,-4.982255751878774
13,65.0,1,20.0,1.0,1,5,5.3581666666666665,-0.004883333333333333,-0.013083333333333334,-0.6656500000000001,30.0,25.93,0,19.0,1851.0,24.883333333333333,-2.984833333333333,0.057666666666666665,-1.0535,-0.05,1.6513333333333333,-20.866166666666665,43.080666666666666,0,1,1,100.0,0.279794389955552,5.3581666666666665,-5.078372276711114
13,66.0,1,20.0,0.0,1,5,6.161199999999998,-0.016659999999999862,-0.9991199999999888,-0.25964000000000503,30.0,25.8522,0,19.0,1851.0,25.0,-3.952999999999998,0.07259999999999997,-1.0222000000000002,-0.04,2.010599999999999,-20.033400000000007,28.478200000000037,0,1,1,100.0,0.9545476866879437,6.161199999999998,-5.206652313312055
13,67.0,1,20.0,0.0,1,5,6.5394,-0.04166999999999996,-3.019439999999997,0.6468199999999984,30.0,25.8339,0,19.0,1851.0,25.0,-4.2885,0.07869999999999999,-1.0039,-0.04,2.1997,-18.5633,21.810900000000014,0,1,1,100.0,2.387515132310138,6.5394,-4.151884867689862
13,68.0,1,20.0,0.0,1,5,7.557199999999997,-0.11075999999999983,-2.4646000000000017,2.3448799999999967,30.0,25.7264,0,19.0,1851.0,25.0,-4.318000000000002,0.07520000000000004,-0.9752000000000001,-0.05,2.8107999999999977,-11.706800000000024,5.096400000000045,0,1,1,100.0,6.346080538868988,7.557199999999997,-1.211119461131009
13,69.0,1,20.0,0.0,1,5,7.943999999999998,-0.13251999999999994,-2.222270000000001,2.7968599999999983,30.0,25.6837,0,19.0,1851.0,25.0,-4.019100000000003,0.06820000000000005,-0.9691,-0.05179999999999996,3.1021999999999985,-8.590200000000012,-0.8019999999999801,0,1,1,100.0,7.592836701073666,7.943999999999998,-0.35116329892633225
13,70.0,1,20.0,0.0,1,6,8.31,-0.1496,-1.9191,3.1957999999999998,30.0,25.641000000000002,0,19.0,1851.0,25.0,-3.403,0.056,-0.963,-0.064,3.456,-5.406000000000001,-6.170000000000001,0,1,1,100.0,8.571448615157117,8.31,0.26144861515711604
13,71.0,1,20.0,0.0,1,6,8.666699999999999,-0.1648199999999999,-1.6295700000000015,3.5888499999999977,30.0,25.595200000000002,0,19.0,1851.0,25.0,-2.6102000000000056,0.04380000000000007,-0.9569,-0.07309999999999997,3.8376999999999977,-2.410900000000016,-11.181499999999975,0,1,1,100.0,9.443490379346223,8.666699999999999,0.7767903793462239
13,72.0,1,20.0,0.0,1,6,9.0144,-0.17823999999999998,-1.3532400000000004,3.9761999999999995,30.0,25.5464,0,19.0,1851.0,25.0,-1.6464000000000019,0.031600000000000024,-0.9508,-0.07919999999999999,4.246399999999999,0.40119999999999456,-15.847999999999992,0,1,1,100.0,10.212399740411792,9.0144,1.1979997404117917
13,73.0,1,20.0,0.0,1,6,9.324999999999998,-0.18847999999999993,-1.199340000000001,4.335989999999998,30.0,25.5029,0,19.0,1851.0,25.0,-0.4335000000000094,0.008800000000000181,-0.9447,-0.08529999999999996,4.617999999999998,2.6355999999999837,-19.883799999999972,0,1,1,100.0,10.799108522625751,9.324999999999998,1.4741085226257535
13,74.0,1,20.0,0.0,1,6,9.6188,-0.19781999999999997,-1.0591600000000005,4.6400999999999994,30.0,25.4602,0,19.0,1851.0,25.0,0.8603999999999947,-0.015599999999999909,-0.94,-0.09279999999999995,4.949,4.6147999999999945,-23.64939999999999,0,1,1,100.0,11.334251103277943,9.6188,1.7154511032779425
13,75.0,1,20.0,0.0,1,6,9.875,-0.20575,-0.9029999999999999,4.77125,30.0,25.417499999999997,0,19.0,1851.0,25.0,2.3000000000000003,-0.04,-0.94,-0.105,5.1625,6.03,-26.8275,0,1,1,100.0,11.788606634816688,9.875,1.9136066348166878
13,76.0,1,20.0,0.0,1,6,10.0412,-0.2108,-0.7985000000000003,4.902219999999999,30.0,25.3946,0,19.0,1851.0,25.0,3.3471999999999955,-0.05719999999999993,-0.9382,-0.11359999999999996,5.232,6.843999999999998,-28.84819999999999,0,1,1,100.0,12.077950321357752,10.0412,2.0367503213577525
13,77.0,1,20.0,0.0,1,6,10.1449,-0.21384999999999998,-0.729875,5.033065,30.0,25.38545,0,19.0,1851.0,25.0,4.121899999999998,-0.06939999999999998,-0.93515,-0.11969999999999999,5.2015,7.240499999999999,-30.065149999999996,0,1,1,100.0,12.252702448872654,10.1449,2.107802448872654
13,78.0,1,20.0,0.0,1,6,10.2486,-0.21689999999999998,-0.6612500000000004,5.163909999999999,30.0,25.3763,0,19.0,1851.0,25.0,4.896599999999994,-0.08159999999999991,-0.9321,-0.12579999999999997,5.171,7.636999999999997,-31.28209999999999,0,1,1,100.0,12.427454576387555,10.2486,2.1788545763875558
13,79.0,1,20.0,0.0,1,6,10.5866,-0.22676,-0.4648300000000006,5.44347,30.0,25.3567,0,19.0,1851.0,25.0,8.498799999999994,-0.13759999999999992,-0.9281,-0.1419,4.374800000000002,8.4224,-35.2454,0,1,1,100.0,12.992390962386548,10.5866,2.405790962386547
13,80.0,1,20.0,0.0,1,6,10.671999999999999,-0.22920000000000001,-0.3166,5.6344,30.0,25.314,0,19.0,1851.0,25.0,10.036,-0.162,-0.922,-0.148,3.716,8.398,-36.258,0,1,1,100.0,13.132192664398469,10.671999999999999,2.4601926643984697
13,81.0,1,20.0,0.0,1,6,10.7205,-0.23123,-0.19420000000000062,5.838449999999999,30.0,25.2713,0,19.0,1851.0,25.0,11.528099999999991,-0.18639999999999987,-0.9159,-0.15409999999999996,2.885000000000005,8.193200000000003,-36.8647,0,1,1,100.0,13.248503096810024,10.7205,2.528003096810025
13,82.0,1,20.0,0.0,1,6,10.7492,-0.233,-0.08782000000000001,6.047499999999999,30.0,25.2292,0,19.0,1851.0,25.0,12.994599999999997,-0.21079999999999996,-0.9098,-0.16019999999999998,1.964400000000002,7.8934000000000015,-37.256,0,1,1,100.0,13.349916626548183,10.7492,2.6007166265481825
13,83.0,1,20.0,0.0,3,7,10.7248,-0.233,-0.08233000000000004,6.215249999999998,30.0,25.204800000000002,0,19.0,1851.0,25.0,14.35489999999999,-0.23519999999999983,-0.9037000000000001,-0.16629999999999998,0.8786000000000082,7.387100000000004,-37.134,0,1,1,100.0,13.349916626548183,10.7248,2.6251166265481825
13,84.0,1,20.0,0.0,3,7,10.6812,-0.233,-0.05884000000000019,6.34772,30.0,25.1828,0,19.0,1851.0,25.0,15.662399999999996,-0.25719999999999993,-0.9,-0.17,-0.23839999999999567,6.813600000000003,-36.829600000000006,0,1,1,100.0,13.349916626548183,10.6812,2.668716626548182
13,85.0,1,20.0,0.0,3,7,10.608,-0.233,-0.0075999999999999904,6.425800000000001,30.0,25.1645,0,19.0,1851.0,25.0,16.8885,-0.2755,-0.9,-0.17,-1.4035,6.1365,-36.244,0,1,1,100.0,13.349916626548183,10.608,2.741916626548182
13,86.0,1,20.0,0.0,3,7,10.498,-0.233,-0.00926000000000007,6.4721400000000004,30.0,25.1416,0,19.0,1851.0,25.0,17.981200000000005,-0.29380000000000006,-0.8954,-0.17,-2.554800000000004,5.385799999999997,-35.350199999999994,0,1,1,100.0,13.349916626548183,10.498,2.8519166265481832
13,87.0,1,20.0,0.0,3,7,10.380900000000002,-0.233,-0.02117000000000047,6.509179999999999,30.0,25.12,0,19.0,1851.0,25.0,18.951649999999997,-0.3106999999999999,-0.89035,-0.16965000000000005,-3.6224999999999947,4.671650000000003,-34.38635000000001,0,1,1,100.0,13.349916626548183,10.380900000000002,2.9690166265481803
13,88.0,1,20.0,0.0,3,7,10.3016,-0.233,0.020919999999999692,6.55432,30.0,25.12,0,19.0,1851.0,25.0,19.3146,-0.31679999999999997,-0.8934,-0.16660000000000003,-4.0799999999999965,4.424600000000002,-33.6574,0,1,1,100.0,13.349916626548183,10.3016,3.048316626548182
13,89.0,1,20.0,0.0,3,7,10.2223,-0.233,0.06300999999999986,6.59946,30.0,25.12,0,19.0,1851.0,25.0,19.67755,-0.32289999999999996,-0.89645,-0.16355000000000003,-4.537499999999999,4.177550000000001,-32.92845,0,1,1,100.0,13.349916626548183,10.2223,3.127616626548182
13,90.0,1,20.0,0.0,3,7,10.143,-0.233,0.10510000000000001,6.6446000000000005,30.0,25.12,0,19.0,1851.0,25.0,20.0405,-0.329,-0.8995,-0.1605,-4.995,3.9305000000000003,-32.1995,0,1,1,100.0,13.349916626548183,10.143,3.206916626548182
13,91.0,1,20.0,0.0,3,7,9.6466,-0.21534999999999996,0.7835900000000011,7.889080000000002,30.0,24.929,0,19.0,1851.0,25.0,20.4882,-0.34,-0.9202000000000001,-0.13979999999999995,-6.001600000000001,4.591400000000003,-26.986699999999992,0,1,1,100.0,12.338646118142275,9.6466,2.692046118142276
13,92.0,1,20.0,0.0,3,7,9.435600000000003,-0.20572000000000012,1.0783599999999973,8.2534,30.0,24.88,0,19.0,1851.0,25.0,20.318400000000004,-0.34,-0.9323999999999999,-0.1264000000000002,-6.032000000000003,5.3623999999999885,-24.591600000000028,0,1,1,100.0,11.786887761431302,9.435600000000003,2.3512877614312995
13,93.0,1,20.0,0.0,3,7,9.209900000000001,-0.19413000000000008,1.3089399999999982,8.341849999999999,30.0,24.88,0,19.0,1851.0,25.0,19.9036,-0.34,-0.9445999999999999,-0.10810000000000014,-5.788000000000002,6.442099999999992,-21.95640000000002,0,1,1,100.0,11.122829676874677,9.209900000000001,1.9129296768746755
13,94.0,1,20.0,0.0,3,7,8.9808,-0.18050000000000005,1.569439999999999,8.44322,30.0,24.9038,0,19.0,1851.0,25.0,19.3902,-0.33660000000000007,-0.9567999999999999,-0.09320000000000005,-5.4182000000000015,7.555799999999995,-19.25660000000001,0,1,1,100.0,10.341888202111361,8.9808,1.361088202111361
13,95.0,1,20.0,0.0,3,7,8.749,-0.16525,1.8537,8.55485,30.0,24.9465,0,19.0,1851.0,25.0,18.7985,-0.3305,-0.969,-0.081,-4.9485,8.696499999999999,-16.5055,0,1,1,100.0,9.468127564536854,8.749,0.7191275645368531
13,96.0,1,20.0,0.0,3,7,8.623600000000001,-0.15616000000000013,1.87168,8.317600000000004,30.0,25.008799999999997,0,19.0,1851.0,25.0,18.447600000000005,-0.32720000000000005,-0.9783999999999998,-0.07440000000000009,-4.658000000000004,9.198799999999993,-15.048000000000021,0,1,1,100.0,8.947308928762943,8.623600000000001,0.323708928762942
13,97.0,1,20.0,0.0,3,7,8.507700000000002,-0.1476200000000001,1.865885,8.049200000000003,30.0,25.07285,0,19.0,1851.0,25.0,18.118200000000005,-0.32415000000000005,-0.9875499999999999,-0.06830000000000007,-4.383500000000003,9.644099999999995,-13.706000000000016,0,1,1,100.0,8.45800297172122,8.507700000000002,-0.049697028278782085
13,98.0,1,20.0,0.0,3,7,8.3918,-0.13908000000000006,1.86009,7.780800000000002,30.0,25.1369,0,19.0,1851.0,25.0,17.788800000000005,-0.32110000000000005,-0.9966999999999999,-0.06220000000000004,-4.109000000000002,10.089399999999996,-12.364000000000011,0,1,1,100.0,7.968697014679493,8.3918,-0.42310298532050705
13,99.0,1,20.0,0.0,3,7,7.833500000000001,-0.09369000000000006,1.967570000000001,5.856990000000004,30.0,25.5375,0,19.0,1851.0,25.0,16.219500000000004,-0.29610000000000003,-1.0239,-0.03610000000000002,-2.8653000000000017,10.9393,-6.512300000000008,0,1,1,100.0,5.368041582580687,7.833500000000001,-2.465458417419314
13,100.0,1,20.0,0.0,3,7,7.62,-0.076,1.701,4.784,30.0,25.69,0,19.0,1851.0,25.0,15.64,-0.29,-1.03,-0.03,-2.42,10.86,-4.42,0,1,1,100.0,4.354479242994256,7.62,-3.265520757005744
14,0.0,1,20.0,0.0,0,1,7.29,-0.053,1.103,2.705,30.0,25.83,0,19.0,1851.0,25.0,14.87,-0.28,-1.05,-0.02,-1.9,9.89,-1.73,0,1,1,100.0,3.036676314193363,7.29,-4.253323685806637
14,1.0,1,20.0,0.0,0,1,7.2001,-0.04835,1.09277,2.28991,30.0,25.83,0,19.0,1851.0,25.0,14.696399999999999,-0.27690000000000003,-1.0531000000000001,-0.016900000000000002,-1.8008,9.3506,-1.1906,0,1,1,100.0,2.7702509394575303,7.2001,-4.42984906054247
14,2.0,1,20.0,0.0,0,1,7.1102,-0.043699999999999996,1.08254,1.8748200000000002,30.0,25.83,0,19.0,1851.0,25.0,14.5228,-0.27380000000000004,-1.0562,-0.0138,-1.7016,8.811200000000001,-0.6512,0,1,1,100.0,2.5038255647216974,7.1102,-4.606374435278303
14,3.0,1,20.0,0.0,0,1,7.0203,-0.039049999999999994,1.07231,1.45973,30.0,25.83,0,19.0,1851.0,25.0,14.3492,-0.2707,-1.0593000000000001,-0.0107,-1.6024,8.2718,-0.11179999999999997,0,1,1,100.0,2.2374001899858644,7.0203,-4.782899810014135
14,4.0,1,20.0,0.0,0,1,6.6392,-0.038,1.07,1.366,30.0,25.83,0,48.6,1851.0,25.0,13.7172,-0.26,-1.07,-0.01,-1.3079999999999998,4.958,1.3612,0,1,1,100.0,2.177239621497128,6.6392,-4.461960378502871
14,5.0,1,20.0,0.0,0,1,6.5120000000000005,-0.0371,1.2916,1.2294,30.0,25.84,0,53.2,1851.0,25.0,13.498999999999999,-0.259,-1.07,-0.01,-1.214,3.649,1.776,0,1,1,100.0,2.1256734199353544,6.5120000000000005,-4.386326580064646
14,6.0,1,20.0,0.0,0,1,6.400399999999999,-0.03152,2.6655200000000008,0.3824799999999997,30.0,25.902,0,17.239999999999984,1851.0,25.0,13.3068,-0.2528,-1.07,-0.01,-1.1148,2.4647999999999994,2.1232,0,1,1,100.0,1.8059629702523547,6.400399999999999,-4.5944370297476445
14,7.0,1,20.0,0.0,0,1,6.3024,-0.02866,2.2037800000000005,-0.0,30.0,25.93,0,1.0,1851.0,25.0,13.118,-0.25,-1.07,-0.01,-1.0088000000000001,1.4030000000000002,2.4261999999999997,0,1,1,100.0,1.6420970408449393,6.3024,-4.66030295915506
14,8.0,1,20.0,0.0,0,1,6.2156,-0.02804,0.23031999999999986,-0.0,30.0,25.93,0,1.0,1851.0,25.0,12.932,-0.25,-1.07,-0.01,-0.8972,0.442,2.6928,0,1,1,100.0,1.6065736575468283,6.2156,-4.609026342453172
14,9.0,1,20.0,0.0,0,1,6.152,-0.028,0.061819999999999965,-0.0,30.0,25.93,0,1.0,1851.0,25.0,12.7402,-0.2442,-1.07,-0.01,-0.7739999999999999,-0.28120000000000056,2.8608000000000002,0,1,1,100.0,1.604281826366305,6.152,-4.547718173633696
14,10.0,1,20.0,0.0,0,1,6.098,-0.028,0.0512,-0.0,30.0,25.93,0,1.0,1851.0,25.0,12.549999999999999,-0.238,-1.068,-0.012,-0.6499999999999999,-0.904,2.972,0,1,1,100.0,1.604281826366305,6.098,-4.493718173633695
14,11.0,1,20.0,0.0,0,1,6.0607999999999995,-0.028,0.11072000000000004,-0.0,30.0,25.93,0,1.0,1851.0,25.0,12.364,-0.2318,-1.0618,-0.018200000000000004,-0.5259999999999999,-1.3504000000000003,2.9782,0,1,1,100.0,1.604281826366305,6.0607999999999995,-4.456518173633695
14,12.0,1,20.0,0.0,0,1,6.0456,-0.02734,0.15726000000000004,-0.0,30.0,25.93,0,1.0,1851.0,25.0,12.2418,-0.2278,-1.06,-0.02,-0.45039999999999997,-1.5570000000000002,2.9074,0,1,1,100.0,1.5664666118876707,6.0456,-4.47913338811233
14,13.0,1,20.0,0.0,0,1,6.0394,-0.02641,0.19849000000000006,-0.0,30.0,25.93,0,1.0,1851.0,25.0,12.1457,-0.2247,-1.06,-0.02,-0.3945999999999999,-1.6655000000000002,2.8051,0,1,1,100.0,1.5131815369405042,6.0394,-4.526218463059496
14,14.0,1,20.0,0.0,0,1,6.0332,-0.025480000000000003,0.23972,-0.0,30.0,25.93,0,1.0,1851.0,25.0,12.0496,-0.2216,-1.06,-0.02,-0.33880000000000005,-1.774,2.7028,0,1,1,100.0,1.4598964619933377,6.0332,-4.5733035380066624
14,15.0,1,20.0,0.0,0,1,6.03,-0.0235,0.2784,-0.0,30.0,25.93,0,1.0,1851.0,25.0,11.904,-0.22,-1.057,-0.023,-0.274,-1.845,2.4339999999999997,0,1,1,100.0,1.3464508185574346,6.03,-4.683549181442565
14,16.0,1,20.0,0.0,0,1,6.03,-0.020399999999999998,0.31436000000000003,-0.0,30.0,25.93,0,1.0,1851.0,25.0,11.7056,-0.22,-1.0508,-0.0292,-0.19959999999999997,-1.876,1.9875999999999998,0,1,1,100.0,1.1688339020668792,6.03,-4.861166097933121
14,17.0,1,20.0,0.0,0,1,6.0462,-0.017299999999999996,0.4221400000000001,-0.0,30.0,25.93,0,1.0,1851.0,25.0,11.4964,-0.21459999999999999,-1.05,-0.03,-0.16299999999999998,-1.8097999999999999,1.3251999999999993,0,1,1,100.0,0.991216985576324,6.0462,-5.054983014423676
14,18.0,1,20.0,0.08000000000000043,0,1,6.114800000000001,-0.0076799999999999985,0.2645200000000001,-0.0,30.080000000000002,25.93,0,1.0800000000000005,1851.0,25.0,10.9356,-0.19920000000000002,-1.0392000000000001,-0.030800000000000004,-0.1532,-1.5075999999999998,-0.7976000000000008,0,1,1,100.0,0.44003158666047215,6.114800000000001,-5.674768413339528
14,19.0,1,20.0,0.3899999999999999,0,1,6.1334,-0.00644,0.30916,-0.0,30.39,25.93,0,1.39,1851.0,25.0,10.8023,-0.1961,-1.0361,-0.0339,-0.1656,-1.4208,-1.3307999999999998,0,1,1,100.0,0.3689848200642502,6.1334,-5.7644151799357495
14,20.0,1,20.0,0.7000000000000001,0,1,6.152,-0.0052,0.3538,-0.0,30.7,25.93,0,1.7,1851.0,25.0,10.669,-0.193,-1.033,-0.037,-0.178,-1.334,-1.8639999999999999,0,1,1,100.0,0.29793805346802804,6.152,-5.8540619465319725
14,21.0,1,20.0,1.0,0,1,6.2516,0.002200000000000017,0.46248000000000067,-0.0,31.0,25.93,0,2.0,1851.0,25.0,10.0392,-0.1798,-1.03,-0.04,-0.23020000000000002,-0.9235999999999995,-4.290200000000003,0,1,1,100.0,-0.1260507149287821,6.2516,-6.377650714928782
14,22.0,1,20.0,1.0,0,1,6.3012,0.008400000000000006,0.6943600000000002,-0.0,31.0,25.93,0,2.0,1851.0,25.0,9.7044,-0.1736,-1.03,-0.04,-0.2364,-0.7251999999999998,-5.536400000000001,0,1,1,100.0,-0.4812845479098919,6.3012,-6.782484547909892
14,23.0,1,20.0,1.0,0,1,6.3378,0.013039999999999998,0.8173,-0.0,31.0,25.933466666666668,0,2.0,1851.0,25.0,9.461466666666666,-0.16913333333333336,-1.03,-0.04086666666666666,-0.23566666666666666,-0.5857333333333333,-6.442866666666666,0,1,1,100.0,-0.7471369648505933,6.3378,-7.084936964850593
14,24.0,1,20.0,1.0,0,1,6.3564,0.015520000000000004,0.7893999999999999,-0.0,31.0,25.94173333333333,0,2.0,1851.0,25.0,9.345733333333333,-0.16706666666666667,-1.03,-0.04293333333333334,-0.2253333333333333,-0.5278666666666666,-6.878933333333333,0,1,1,100.0,-0.8892304980430379,6.3564,-7.245630498043038
14,25.0,1,20.0,1.0,0,1,6.375,0.018000000000000002,0.7615,-0.0,31.0,25.95,0,2.0,1851.0,25.0,9.23,-0.165,-1.03,-0.045,-0.215,-0.47,-7.3149999999999995,0,1,1,100.0,-1.0313240312354819,6.375,-7.406324031235481
14,26.0,1,20.0,1.0,0,1,6.3936,0.02048000000000001,0.7335999999999999,-0.0,31.0,25.958266666666667,0,2.0,1851.0,25.0,9.114266666666666,-0.16293333333333335,-1.03,-0.04706666666666667,-0.20466666666666664,-0.4121333333333332,-7.751066666666667,0,1,1,100.0,-1.1734175644279266,6.3936,-7.5670175644279265
14,27.0,1,20.0,1.0,0,1,6.4122,0.022960000000000005,0.7056999999999999,-0.0,31.0,25.96653333333333,0,2.0,1851.0,25.0,8.998533333333333,-0.16086666666666666,-1.03,-0.049133333333333334,-0.19433333333333333,-0.3542666666666666,-8.187133333333334,0,1,1,100.0,-1.3155110976203703,6.4122,-7.727711097620371
14,28.0,1,20.0,1.0,0,1,6.4344,0.026339999999999995,0.7521399999999998,-0.0,31.0,25.962799999999998,0,2.0,1851.0,25.0,8.8438,-0.1582,-1.0282,-0.05,-0.16840000000000005,-0.29040000000000005,-8.771399999999998,0,1,1,100.0,-1.509170832374588,6.4344,-7.943570832374588
14,29.0,1,20.0,1.0,0,1,6.4592,0.030370000000000008,0.8522700000000001,-0.0,31.0,25.9504,0,2.0,1851.0,25.0,8.6609,-0.1551,-1.0251000000000001,-0.05,-0.13119999999999993,-0.22219999999999987,-9.4627,0,1,1,100.0,-1.7400728238123107,6.4592,-8.199272823812311
14,30.0,1,20.0,1.0,0,1,6.484,0.0344,0.9523999999999999,-0.0,31.0,25.938,0,2.0,1851.0,25.0,8.478,-0.152,-1.022,-0.05,-0.094,-0.154,-10.154,0,1,1,100.0,-1.970974815250032,6.484,-8.454974815250033
14,31.0,1,20.0,1.0,0,1,6.6388,0.07330000000000003,1.1753199999999997,-0.0,31.0,25.93,0,2.0,1851.0,25.0,7.047999999999999,-0.1278,-1.02,-0.06,0.36940000000000045,0.1754000000000001,-16.060800000000004,0,1,1,100.0,-4.199780638308936,6.6388,-10.838580638308937
14,32.0,1,20.0,1.0,6,2,6.6636,0.08260000000000002,1.0240399999999998,-0.0,31.0,25.93,0,2.0,1851.0,25.0,6.675999999999999,-0.12159999999999999,-1.02,-0.06,0.5368000000000002,0.21880000000000005,-17.6976,0,1,1,100.0,-4.732631387780601,6.6636,-11.3962313877806
14,33.0,1,20.0,0.0,6,2,6.6854000000000005,0.08309,0.8089700000000007,0.965119999999999,31.0,25.8356,0,18.0,1851.0,25.0,5.7498000000000005,-0.10540000000000001,-1.02,-0.06,1.0211999999999999,0.6287999999999999,-20.6874,0,1,1,100.0,-4.76070631974201,6.6854000000000005,-11.446106319742011
14,34.0,1,20.0,0.0,6,2,6.6792,0.07781999999999999,-0.015940000000001488,2.032760000000002,31.0,25.7488,0,18.0,1851.0,25.0,5.5203999999999995,-0.09919999999999998,-1.02,-0.06,1.1576000000000004,0.8024000000000003,-21.1152,0,1,1,100.0,-4.458757561708065,6.6792,-11.137957561708065
14,35.0,1,20.0,0.0,6,2,6.673,0.07255,-0.84085,3.1004,31.0,25.662,0,18.0,1851.0,25.0,5.2909999999999995,-0.093,-1.02,-0.06,1.294,0.9760000000000001,-21.543,0,1,1,100.0,-4.156808803674123,6.673,-10.829808803674123
14,36.0,1,20.0,0.3200000000000017,6,2,6.6044,0.050799999999999984,-0.7444799999999997,4.2154,31.0,25.54,0,18.32,1851.0,25.0,4.052399999999998,-0.07359999999999997,-1.02,-0.06320000000000002,2.140800000000001,2.010400000000001,-21.592399999999998,0,1,1,100.0,-2.910625599264581,6.6044,-9.51502559926458
14,37.0,1,20.0,0.9400000000000006,6,2,6.5548,0.044599999999999994,-0.6291599999999999,4.2123,31.0,25.54,0,18.94,1851.0,25.0,3.4757999999999996,-0.061199999999999984,-1.02,-0.06940000000000002,2.5686000000000004,2.4568000000000003,-20.860799999999998,0,1,1,100.0,-2.555391766283471,6.5548,-9.11019176628347
14,38.0,1,20.0,0.44000000000000056,6,2,6.4884,0.037840000000000006,-0.7563199999999999,3.5159200000000004,31.0,25.6408,0,18.44,1851.0,25.0,2.8544000000000005,-0.04880000000000001,-1.0256,-0.07,3.0915999999999997,2.7912,-19.261200000000002,0,1,1,100.0,-2.168072296775035,6.4884,-8.656472296775036
14,39.0,1,20.0,0.0,6,2,6.4148000000000005,0.030659999999999986,-0.8759800000000001,2.7304999999999984,31.0,25.7398,0,18.0,1851.0,25.0,2.224599999999999,-0.03639999999999998,-1.03,-0.07,3.6482000000000014,3.047,-17.287799999999994,0,1,1,100.0,-1.7566885998711033,6.4148000000000005,-8.171488599871104
14,40.0,1,20.0,0.0,6,2,6.328,0.022600000000000002,-0.9138000000000001,1.9089999999999998,31.0,25.808,0,18.0,1851.0,25.0,1.5859999999999999,-0.024,-1.03,-0.07,4.2620000000000005,3.14,-14.628,0,1,1,100.0,-1.2948846169956607,6.328,-7.622884616995661
14,41.0,1,20.0,0.14000000000000057,6,2,6.2748,0.01817999999999999,-0.9204,1.448139999999999,31.0,25.843999999999998,0,18.14,1851.0,25.0,1.2399999999999993,-0.018599999999999995,-1.0314,-0.07,4.6042000000000005,3.1279999999999997,-12.964999999999996,0,1,1,100.0,-1.0416372715478361,6.2748,-7.316437271547836
14,42.0,1,20.0,0.3466666666666678,6,2,6.2376,0.015493333333333319,-0.9121333333333334,1.1590133333333317,31.0,25.864666666666665,0,18.346666666666668,1851.0,25.0,1.033333333333332,-0.016533333333333324,-1.0334666666666668,-0.07,4.817066666666668,3.066,-11.77666666666666,0,1,1,100.0,-0.8877026105893546,6.2376,-7.125302610589355
14,43.0,1,20.0,0.5533333333333341,6,2,6.2004,0.012806666666666657,-0.9038666666666667,0.8698866666666655,31.0,25.88533333333333,0,18.553333333333335,1851.0,25.0,0.8266666666666658,-0.014466666666666659,-1.0355333333333334,-0.07,5.029933333333334,3.004,-10.588333333333328,0,1,1,100.0,-0.7337679496308738,6.2004,-6.934167949630874
14,44.0,1,20.0,0.7600000000000003,6,2,6.1632,0.010119999999999995,-0.8956,0.5807599999999994,31.0,25.906,0,18.76,1851.0,25.0,0.6199999999999996,-0.012399999999999996,-1.0376,-0.07,5.242800000000001,2.942,-9.399999999999997,0,1,1,100.0,-0.5798332886723928,6.1632,-6.743033288672392
14,45.0,1,20.0,0.9666666666666667,6,2,6.126,0.007433333333333333,-0.8873333333333333,0.2916333333333333,31.0,25.926666666666666,0,18.966666666666665,1851.0,25.0,0.4133333333333332,-0.010333333333333333,-1.0396666666666667,-0.07,5.455666666666667,2.8800000000000003,-8.211666666666666,0,1,1,100.0,-0.4258986277139119,6.126,-6.551898627713912
14,46.0,1,20.0,1.0,6,2,5.5804,-0.004960000000000003,0.05391999999999976,-0.5542400000000008,31.0,25.915599999999998,0,19.0,1851.0,25.0,-1.8603999999999992,0.03519999999999999,-1.0704,-0.07,7.1659999999999995,-0.16319999999999807,11.34719999999999,0,1,1,100.0,0.2841870663848885,5.5804,-5.296212933615111
14,47.0,1,20.0,1.0,6,2,5.439199999999999,-0.0037199999999999933,0.16574000000000014,-0.16131999999999877,31.0,25.93,0,19.0,1851.0,25.0,-2.311200000000002,0.041400000000000034,-1.0814000000000001,-0.07,7.304399999999999,-1.2232000000000063,16.72600000000003,0,1,1,100.0,0.21314029978866586,5.439199999999999,-5.226059700211333
14,48.0,1,20.0,1.0,6,2,5.3027999999999995,-0.0024799999999999957,0.1911600000000001,0.0631200000000008,31.0,25.93,0,19.0,1851.0,25.0,-2.670800000000001,0.047600000000000024,-1.0876000000000001,-0.07,7.279599999999999,-2.3888000000000043,22.24400000000002,0,1,1,100.0,0.14209353319244392,5.3027999999999995,-5.1607064668075555
14,49.0,1,20.0,1.0,6,2,5.166399999999999,-0.0008599999999999965,0.18883999999999998,0.2951600000000004,31.0,25.918599999999998,0,19.0,1851.0,25.0,-2.9392000000000005,0.053800000000000014,-1.0976000000000001,-0.07,7.1331999999999995,-3.6228000000000025,27.69740000000001,0,1,1,100.0,0.0492743703812506,5.166399999999999,-5.117125629618749
14,50.0,1,20.0,1.0,6,2,5.03,0.001,0.169,0.532,31.0,25.9,0,19.0,1851.0,25.0,-3.15,0.06,-1.11,-0.07,6.91,-4.9,33.11,0,1,1,100.0,-0.057295779513082325,5.03,-5.087295779513083
14,51.0,1,20.0,1.0,6,2,4.9122,0.0028599999999999967,0.18388,0.6820399999999998,31.0,25.9,0,19.0,1851.0,25.0,-3.2119999999999997,0.06,-1.1223999999999998,-0.07,6.5628,-6.245399999999998,38.08859999999999,0,1,1,100.0,-0.16386592940741526,4.9122,-5.076065929407416
14,52.0,1,20.0,1.0,6,2,4.8232,0.004,0.16851999999999964,0.7571999999999998,31.0,25.903599999999997,0,19.0,1851.0,25.0,-3.2439999999999998,0.06,-1.1312,-0.07,6.273199999999998,-7.330400000000004,41.95240000000001,0,1,1,100.0,-0.2291831180523293,4.8232,-5.0523831180523295
14,53.0,1,20.0,1.0,6,2,4.7798,0.004,0.10527999999999976,0.7137999999999999,31.0,25.9129,0,19.0,1851.0,25.0,-3.2285,0.06,-1.1342999999999999,-0.07,6.074799999999999,-8.003100000000003,44.051100000000005,0,1,1,100.0,-0.2291831180523293,4.7798,-5.008983118052329
14,54.0,1,20.0,1.0,6,2,4.7364,0.004,0.042039999999999876,0.6703999999999999,31.0,25.9222,0,19.0,1851.0,25.0,-3.213,0.06,-1.1374,-0.07,5.876399999999999,-8.6758,46.1498,0,1,1,100.0,-0.2291831180523293,4.7364,-4.965583118052329
14,55.0,1,20.0,1.0,6,2,4.69,0.004,-0.0137,0.6262,31.0,25.93,0,19.0,1851.0,25.0,-3.1870000000000003,0.06,-1.14,-0.069,5.649,-9.445,48.415,0,1,1,100.0,-0.2291831180523293,4.69,-4.91918311805233
14,56.0,1,20.0,1.0,6,2,4.628,0.004,-0.03043999999999997,0.5778400000000001,31.0,25.93,0,19.0,1851.0,25.0,-3.1064000000000003,0.06,-1.14,-0.06280000000000001,5.2708,-10.715999999999998,51.54599999999999,0,1,1,100.0,-0.2291831180523293,4.628,-4.85718311805233
14,57.0,1,20.0,1.0,6,2,4.586399999999999,0.004,-0.06724000000000029,0.5189399999999996,31.0,25.93,0,19.0,1851.0,25.0,-3.0359999999999996,0.06,-1.14,-0.06,4.926599999999998,-11.905400000000006,54.027600000000014,0,1,1,100.0,-0.2291831180523293,4.586399999999999,-4.815583118052329
14,58.0,1,20.0,1.0,6,2,4.561599999999999,0.004,-0.1205600000000002,0.45135999999999976,31.0,25.93,0,19.0,1851.0,25.0,-2.9739999999999998,0.06,-1.14,-0.06,4.6103999999999985,-13.027600000000003,55.97440000000001,0,1,1,100.0,-0.2291831180523293,4.561599999999999,-4.790783118052329
14,59.0,1,20.0,1.0,6,2,4.5774,0.003419999999999999,-0.12980000000000003,0.3333199999999998,31.0,25.93,0,19.0,1851.0,25.0,-2.97,0.06,-1.1341999999999999,-0.06,4.3812,-13.946800000000001,56.7496,0,1,1,100.0,-0.19595156593474147,4.5774,-4.773351565934742
14,60.0,1,20.0,0.2,6,2,4.738,0.0016,-0.0682,0.007399999999999997,31.0,25.93,0,18.2,1851.0,25.0,-3.18,0.062,-1.118,-0.05,4.01,-15.452,55.708,0,1,1,100.0,-0.09167324722093172,4.738,-4.829673247220932
14,61.0,1,20.0,0.819999999999999,6,2,4.8557999999999995,0.00036000000000000225,-0.14941999999999983,-0.11535999999999978,31.0,25.93,0,18.82,1851.0,25.0,-3.3659999999999997,0.0682,-1.1118000000000001,-0.05,3.979,-15.520199999999999,53.903800000000004,0,1,1,100.0,-0.020626480624709766,4.8557999999999995,-4.876426480624709
14,62.0,1,20.0,1.0,6,2,5.004400000000001,-0.00044000000000000343,-0.15099999999999983,-0.21084000000000044,31.0,25.93,0,19.0,1851.0,25.0,-3.6092000000000013,0.07,-1.1012,-0.05,4.014,-15.179199999999996,51.28559999999998,0,1,1,100.0,0.02521014298575642,5.004400000000001,-4.979189857014245
14,63.0,1,20.0,1.0,6,2,5.169800000000001,-0.0010600000000000023,-0.11969999999999988,-0.2919200000000002,31.0,25.93,0,19.0,1851.0,25.0,-3.8794000000000013,0.07060000000000002,-1.0888,-0.04939999999999998,4.083200000000001,-14.608399999999996,48.23719999999998,0,1,1,100.0,0.0607335262838674,5.169800000000001,-5.109066473716134
14,64.0,1,20.0,1.0,6,2,5.3744000000000005,-0.0016800000000000012,-0.08559999999999994,-0.34276000000000006,31.0,25.93,0,19.0,1851.0,25.0,-4.1832,0.07680000000000002,-1.0764,-0.04319999999999999,4.219600000000001,-13.455199999999998,44.28159999999999,0,1,1,100.0,0.09625690958197837,5.3744000000000005,-5.278143090418022
14,65.0,1,20.0,1.0,6,2,5.597,-0.0023,-0.0614,-0.3765,31.0,25.93,0,19.0,1768.5,25.3,-4.478,0.083,-1.061,-0.04,4.386,-11.984,39.924,0,1,1,100.0,0.13178029288008933,5.597,-5.465219707119911
14,66.0,1,20.0,1.0,1,5,5.8388,-0.002919999999999999,-0.047760000000000025,-0.39199999999999996,31.0,25.93,0,19.0,1598.0000000000002,25.919999999999998,-4.763199999999999,0.08919999999999999,-1.0424,-0.04,4.5844,-10.173600000000002,35.13760000000001,0,1,1,100.0,0.16730367617820033,5.8388,-5.6714963238218
14,67.0,1,20.0,0.4599999999999966,1,5,6.102200000000002,-0.003,-0.03951999999999996,-0.39670000000000005,31.0,25.8922,0,19.0,1576.0,26.0,-4.956600000000001,0.09,-1.0292,-0.04,4.826000000000001,-7.860999999999986,29.79499999999997,0,1,1,100.0,0.17188733853924698,6.102200000000002,-5.930312661460754
14,68.0,1,20.0,0.0,1,5,6.3376,-0.006200000000000045,-0.30320000000000386,-0.2642799999999981,31.0,25.857599999999998,0,19.0,1576.0,26.0,-5.0892,0.09,-1.0184,-0.04,5.038,-5.721199999999994,25.04199999999999,0,1,1,100.0,0.355233832981113,6.3376,-5.9823661670188875
14,69.0,1,20.0,0.0,1,5,6.4833,-0.01860000000000002,-1.346350000000002,0.25776000000000093,31.0,25.8483,0,19.0,1576.0,26.0,-5.0861,0.09,-1.0122,-0.04,5.1465000000000005,-4.292099999999998,22.220999999999997,0,1,1,100.0,1.0657014989433322,6.4833,-5.417598501056668
14,70.0,1,20.0,0.0,1,5,6.629,-0.030999999999999993,-2.3895,0.7797999999999999,31.0,25.839,0,19.0,1576.0,26.0,-5.083,0.09,-1.006,-0.04,5.255,-2.863,19.400000000000002,0,1,1,100.0,1.7761691649055515,6.629,-4.852830835094448
14,71.0,1,20.0,0.0,1,5,7.2596,-0.08973999999999996,-2.7236800000000008,2.1501399999999995,31.0,25.7186,0,19.0,1576.0,26.0,-4.632200000000001,0.07960000000000002,-0.9798,-0.050199999999999995,5.56,3.5855999999999946,7.54960000000001,0,1,1,100.0,5.141723253504005,7.2596,-2.1178767464959947
14,72.0,1,20.0,0.0,1,5,7.557200000000002,-0.11268000000000013,-2.4657599999999986,2.5884800000000023,31.0,25.675199999999997,0,19.0,1576.0,26.0,-4.080399999999997,0.06719999999999993,-0.9735999999999999,-0.05640000000000003,5.56,6.549200000000016,2.267199999999971,0,1,1,100.0,6.456088435534124,7.557200000000002,-1.101111564465878
14,73.0,1,20.0,0.0,1,5,7.8496000000000015,-0.13354000000000008,-2.1719599999999986,2.9932800000000013,31.0,25.6318,0,19.0,1576.0,26.0,-3.4089999999999967,0.05479999999999995,-0.9647999999999999,-0.06260000000000002,5.5184,9.33600000000001,-2.8566000000000185,0,1,1,100.0,7.651278396177018,7.8496000000000015,-0.19832160382298358
14,74.0,1,20.0,0.0,1,6,8.1348,-0.15152000000000004,-1.8284799999999994,3.3516400000000006,31.0,25.588399999999996,0,19.0,1576.0,26.0,-2.5719999999999987,0.04239999999999998,-0.9523999999999999,-0.06880000000000001,5.4192,11.878000000000004,-7.76080000000001,0,1,1,100.0,8.681456511822237,8.1348,0.5466565118222366
14,75.0,1,20.0,0.0,1,6,8.4,-0.16549999999999998,-1.528,3.8125,31.0,25.545,0,19.0,1576.0,26.0,-1.53,0.025,-0.9400000000000001,-0.07500000000000001,5.24,13.84,-12.290000000000001,0,1,1,100.0,9.482451509415123,8.4,1.0824515094151224
14,76.0,1,20.0,0.0,1,6,8.654399999999999,-0.17779999999999999,-1.2217600000000006,4.275159999999999,31.0,25.4968,0,19.0,1576.0,26.0,-0.3992000000000024,0.006400000000000034,-0.9288000000000001,-0.0812,5.0212,15.4912,-16.63799999999999,0,1,1,100.0,10.187189597426036,8.654399999999999,1.5327895974260368
14,77.0,1,20.0,0.0,1,6,8.8838,-0.18710000000000004,-0.8485199999999979,4.642820000000002,31.0,25.4286,0,19.0,1576.0,26.0,0.8966000000000071,-0.012200000000000103,-0.9226,-0.08740000000000003,4.717399999999998,16.427400000000006,-20.60600000000002,0,1,1,100.0,10.720040346897704,8.8838,1.8362403468977035
14,78.0,1,20.0,0.0,1,6,9.088000000000001,-0.19532000000000002,-0.7679600000000004,4.977360000000001,31.0,25.374799999999997,0,19.0,1576.0,26.0,2.264400000000005,-0.03440000000000009,-0.9164,-0.09360000000000002,4.327199999999999,16.8596,-24.253600000000013,0,1,1,100.0,11.19101165449524,9.088000000000001,2.103011654495239
14,79.0,1,20.0,0.0,1,6,9.274,-0.20276000000000002,-0.8987800000000002,5.287980000000001,31.0,25.3314,0,19.0,1576.0,26.0,3.684200000000003,-0.05920000000000004,-0.9102,-0.09980000000000001,3.874599999999999,16.9278,-27.669800000000006,0,1,1,100.0,11.617292254072574,9.274,2.3432922540725745
14,80.0,1,20.0,0.0,1,6,9.349,-0.2057,-0.7746,5.3628,31.0,25.320999999999998,0,19.0,1576.0,26.0,4.444,-0.072,-0.907,-0.10300000000000001,3.566,16.627,-29.148000000000003,0,1,1,100.0,11.785741845841034,9.349,2.436741845841034
14,81.0,1,20.0,0.0,1,6,9.4203,-0.20849,-0.6419200000000003,5.42976,31.0,25.3117,0,19.0,1576.0,26.0,5.181799999999999,-0.08439999999999998,-0.9039,-0.1061,3.2622000000000004,16.3139,-30.5616,0,1,1,100.0,11.945597070682535,9.4203,2.5252970706825355
14,82.0,1,20.0,0.0,1,6,9.4916,-0.21128000000000002,-0.5092399999999992,5.496720000000001,31.0,25.302400000000002,0,19.0,1576.0,26.0,5.919600000000004,-0.09680000000000008,-0.9008,-0.10920000000000002,2.9583999999999984,16.000799999999998,-31.97520000000001,0,1,1,100.0,12.105452295524035,9.4916,2.613852295524035
14,83.0,1,20.0,0.0,1,6,9.579,-0.21476,-0.43175999999999976,5.658900000000001,31.0,25.2816,0,19.0,1576.0,26.0,7.191000000000006,-0.11380000000000007,-0.9,-0.11460000000000002,2.314199999999997,15.128799999999996,-33.90400000000001,0,1,1,100.0,12.30484160822956,9.579,2.72584160822956
14,84.0,1,20.0,0.0,1,6,9.7292,-0.22132000000000002,-0.20740000000000056,6.11424,31.0,25.23,0,19.0,1576.0,26.0,10.866400000000013,-0.17240000000000022,-0.9,-0.13,0.1215999999999899,12.053199999999988,-37.99960000000001,0,1,1,100.0,12.68070192183538,9.7292,2.95150192183538
14,85.0,1,20.0,0.0,1,6,9.723,-0.2238,-0.257,6.0851,31.0,25.23,0,19.0,1576.0,26.0,12.155999999999999,-0.191,-0.9,-0.13,-0.7959999999999999,10.838000000000001,-38.539,0,1,1,100.0,12.822795455027824,9.723,3.0997954550278237
14,86.0,1,20.0,0.0,1,6,9.688,-0.22596000000000002,-0.24931999999999957,6.1366000000000005,31.0,25.217200000000002,0,19.0,1576.0,26.0,13.384800000000007,-0.21280000000000018,-0.9,-0.13,-1.723200000000007,9.686799999999993,-38.6592,0,1,1,100.0,12.946554338776084,9.688,3.258554338776083
14,87.0,1,20.0,0.0,3,7,9.626,-0.22782,-0.18794000000000022,6.263699999999999,31.0,25.192400000000003,0,19.0,1576.0,26.0,14.556599999999996,-0.2375999999999999,-0.9,-0.13,-2.6593999999999967,8.595600000000005,-38.3864,0,1,1,100.0,13.053124488670415,9.626,3.4271244886704153
14,88.0,1,20.0,0.0,3,7,9.5304,-0.22856,-0.11871999999999974,6.25864,31.0,25.19,0,19.0,1576.0,26.0,15.594000000000005,-0.2568000000000001,-0.9056000000000001,-0.13,-3.5956000000000032,7.649999999999997,-37.4304,0,1,1,100.0,13.095523365510097,9.5304,3.5651233655100967
14,89.0,1,20.0,0.0,3,7,9.4186,-0.22936000000000004,-0.08070000000000045,6.24644,31.0,25.19,0,19.0,1576.0,26.0,16.54500000000001,-0.2736000000000001,-0.9118,-0.12819999999999993,-4.5264000000000095,6.773999999999992,-36.19959999999998,0,1,1,100.0,13.141359989120563,9.4186,3.722759989120563
14,90.0,1,20.0,0.0,3,7,9.276,-0.2306,-0.12100000000000001,6.2514,31.0,25.19,0,19.0,1576.0,26.0,17.32,-0.286,-0.918,-0.122,-5.444,6.03,-34.476,0,1,1,100.0,13.212406755716783,9.276,3.9364067557167832
14,91.0,1,20.0,0.0,3,7,9.1124,-0.23016,0.06298000000000215,6.479800000000003,31.0,25.160600000000002,0,19.0,1576.0,26.0,17.830400000000004,-0.29840000000000005,-0.9242000000000001,-0.11579999999999996,-6.231400000000005,5.596799999999998,-32.323999999999984,0,1,1,100.0,13.187196612731027,9.1124,4.074796612731028
14,92.0,1,20.0,0.0,3,7,8.9434,-0.22888000000000003,0.33983999999999975,6.7983199999999995,31.0,25.12,0,19.0,1576.0,26.0,18.189,-0.31,-0.9304,-0.10980000000000001,-6.9224,5.3424,-30.026000000000007,0,1,1,100.0,13.113858014954284,8.9434,4.170458014954283
14,93.0,1,20.0,0.0,3,7,8.841099999999999,-0.22702,0.4148600000000003,6.880780000000001,31.0,25.12,0,19.0,1576.0,26.0,18.1735,-0.31,-0.9366,-0.10669999999999999,-7.114600000000001,5.534600000000001,-28.568999999999996,0,1,1,100.0,13.007287865059949,8.841099999999999,4.16618786505995
14,94.0,1,20.0,0.0,3,7,8.738799999999998,-0.22516,0.4898800000000008,6.963240000000001,31.0,25.12,0,19.0,1576.0,26.0,18.158,-0.31,-0.9428000000000001,-0.10359999999999997,-7.306800000000003,5.7268000000000026,-27.111999999999984,0,1,1,100.0,12.900717715165616,8.738799999999998,4.161917715165618
14,95.0,1,20.0,0.0,3,7,8.6365,-0.2233,0.5649,7.0457,31.0,25.12,0,19.0,1576.0,26.0,18.142500000000002,-0.31,-0.949,-0.1005,-7.4990000000000006,5.9190000000000005,-25.655,0,1,1,100.0,12.794147565271283,8.6365,4.157647565271283
14,96.0,1,20.0,0.0,3,7,8.067599999999999,-0.19759999999999991,1.3238000000000028,7.40132,31.0,25.1264,0,19.0,1576.0,26.0,17.035999999999994,-0.30479999999999996,-0.9804,-0.06439999999999986,-7.233999999999997,9.133600000000012,-17.049999999999972,0,1,1,100.0,11.321646031785063,8.067599999999999,3.254046031785064
14,97.0,1,20.0,0.0,3,7,7.8368,-0.18394000000000008,1.6900199999999987,7.36544,31.0,25.1796,0,19.0,1576.0,26.0,16.426000000000002,-0.2972,-0.9927999999999999,-0.04720000000000005,-6.8412000000000015,10.846999999999992,-13.493400000000012,0,1,1,100.0,10.538985683636367,7.8368,2.702185683636367
14,98.0,1,20.0,0.0,3,7,7.601199999999999,-0.16595999999999994,2.0576800000000013,7.33196,31.0,25.2664,0,19.0,1576.0,26.0,15.743999999999998,-0.2848,-1.0052,-0.034799999999999956,-6.270799999999998,12.738000000000007,-9.965599999999986,0,1,1,100.0,9.50880756799114,7.601199999999999,1.9076075679911408
14,99.0,1,20.0,0.0,3,7,7.365599999999997,-0.14341999999999971,2.525660000000006,6.992199999999994,31.0,25.4064,0,19.0,1576.0,26.0,15.096199999999994,-0.27619999999999995,-1.0176,-0.022399999999999864,-5.658599999999993,14.522600000000018,-6.646799999999964,0,1,1,100.0,8.217360697766251,7.365599999999997,0.8517606977662542
14,100.0,1,20.0,0.0,3,7,7.13,-0.118,3.057,6.459,31.0,25.58,0,19.0,1576.0,26.0,14.47,-0.27,-1.03,-0.01,-5.02,16.24,-3.46,0,1,1,100.0,6.7609019825437136,7.13,-0.36909801745628634
18,0.0,1,20.0,0.0,0,1,6.85,-0.014,0.82,1.467,31.0,25.9,0,19.0,1576.0,28.0,13.13,-0.25,-1.07,-0.03,2.75,7.66,-1.34,0,1,1,100.0,0.8021409131831525,6.85,-6.047859086816847
18,1.0,1,20.0,0.0,0,1,6.5835,-0.014,0.82,1.467,31.0,25.9,0,32.0,1576.0,28.0,12.831,-0.2435,-1.07,-0.03,2.568,5.1185,-0.7615000000000001,0,1,1,100.0,0.8021409131831525,6.5835,-5.781359086816847
18,2.0,1,20.0,0.0,0,1,6.329000000000001,-0.014,0.82,1.467,31.0,25.9,0,45.0,1576.0,28.0,12.514,-0.237,-1.07,-0.03,2.371,2.661,-0.312,0,1,1,100.0,0.8021409131831525,6.329000000000001,-5.526859086816848
18,3.0,1,20.0,0.0,0,1,6.088500000000001,-0.014,0.82,1.467,31.0,25.9,0,58.0,1576.0,28.0,12.176,-0.2305,-1.07,-0.03,2.1565000000000003,0.3015000000000001,-0.013000000000000018,0,1,1,100.0,0.8021409131831525,6.088500000000001,-5.286359086816848
18,4.0,1,20.0,0.0,0,1,5.974,-0.014,0.82,1.467,31.0,25.9,0,65.0,1576.0,28.0,11.979000000000001,-0.227,-1.0670000000000002,-0.03,2.035,-0.8160000000000001,0.121,0,1,1,100.0,0.8021409131831525,5.974,-5.1718590868168475
18,5.0,1,20.0,0.0,0,1,5.87,-0.014,0.82,1.467,31.0,25.9,0,71.5,1576.0,28.0,11.79375,-0.22375,-1.06375,-0.03,1.9212500000000001,-1.83,0.24125,0,1,1,100.0,0.8021409131831525,5.87,-5.067859086816847
18,6.0,1,20.0,0.0,0,1,5.766,-0.014,0.82,1.467,31.0,25.9,0,78.0,1576.0,28.0,11.6085,-0.2205,-1.0605,-0.03,1.8075,-2.844,0.3615,0,1,1,100.0,0.8021409131831525,5.766,-4.963859086816847
18,7.0,1,20.0,0.0,0,1,5.349,-0.01155,-0.83205,-0.0,31.0,25.979499999999998,0,1.0,1576.0,28.0,10.6655,-0.199,-1.06,-0.03,1.222,-6.502,1.0695000000000001,0,1,1,100.0,0.6617662533761008,5.349,-4.6872337466239
18,8.0,1,20.0,0.0,0,1,5.214,-0.0122,-0.023799999999999998,-0.0,31.0,25.93,0,1.0,1576.0,28.0,10.286,-0.188,-1.058,-0.03,0.996,-7.566,1.3920000000000001,0,1,1,100.0,0.6990085100596044,5.214,-4.514991489940396
18,9.0,1,20.0,0.0,0,1,5.097,-0.01285,0.01585,-0.0,31.0,25.93,0,1.0,1576.0,28.0,9.9155,-0.1815,-1.0515,-0.03,0.788,-8.333,1.7235,0,1,1,100.0,0.7362507667431079,5.097,-4.360749233256892
18,10.0,1,20.0,0.0,0,1,5.0375000000000005,-0.01275,0.041,-0.0,31.0,25.94,0,1.0,1576.0,28.0,9.6975,-0.1775,-1.05,-0.03,0.6749999999999999,-8.66,1.905,0,1,1,100.0,0.7305211887917996,5.0375000000000005,-4.306978811208201
18,11.0,1,20.0,0.0,0,1,4.99525,-0.012425,0.0618,-0.0,31.0,25.953,0,1.0,1576.0,28.0,9.52525,-0.17425000000000002,-1.05,-0.03,0.5905,-8.855,2.0415,0,1,1,100.0,0.7119000604500478,4.99525,-4.283349939549953
18,12.0,1,20.0,0.0,0,1,4.953,-0.0121,0.0826,-0.0,31.0,25.965999999999998,0,1.0,1576.0,28.0,9.353000000000002,-0.171,-1.05,-0.03,0.506,-9.049999999999999,2.1780000000000004,0,1,1,100.0,0.693278932108296,4.953,-4.259721067891705
18,13.0,1,20.0,0.0,0,1,4.8365,-0.010549999999999999,0.134875,-0.0,31.0,25.93,0,1.0,1576.0,28.0,8.73775,-0.15775,-1.04,-0.04,0.24625000000000002,-9.14475,2.4297500000000003,0,1,1,100.0,0.6044704738630184,4.8365,-4.232029526136982
18,14.0,1,20.0,0.0,0,1,4.817,-0.009899999999999999,0.14625,-0.0,31.0,25.93,0,1.0,1576.0,28.0,8.6045,-0.1545,-1.04,-0.04,0.1975,-9.0505,2.4005,0,1,1,100.0,0.567228217179515,4.817,-4.249771782820485
18,15.0,1,20.0,0.0,0,1,4.7975,-0.00925,0.15762500000000002,-0.0,31.0,25.93,0,1.0,1576.0,28.0,8.47125,-0.15125,-1.04,-0.04,0.14875,-8.95625,2.37125,0,1,1,100.0,0.5299859604960114,4.7975,-4.267514039503989
18,16.0,1,20.0,0.0,0,1,4.784,-0.008199999999999999,0.1792,-0.0,31.0,25.938,0,1.0,1576.0,28.0,8.346,-0.15,-1.04,-0.04,0.10200000000000001,-8.804,2.264,0,1,1,100.0,0.46982539200727497,4.784,-4.314174607992725
18,17.0,1,20.0,0.0,0,1,4.77425,-0.0069,0.20715,-0.0,31.0,25.951,0,1.0,1576.0,28.0,8.22575,-0.15,-1.04,-0.04,0.056499999999999995,-8.615499999999999,2.1079999999999997,0,1,1,100.0,0.395340878640268,4.77425,-4.378909121359732
18,18.0,1,20.0,0.0,0,1,4.7645,-0.0056,0.2351,-0.0,31.0,25.964,0,1.0,1576.0,28.0,8.105500000000001,-0.15,-1.04,-0.04,0.010999999999999987,-8.427,1.952,0,1,1,100.0,0.320856365273261,4.7645,-4.4436436347267385
18,19.0,1,20.0,0.0,0,1,4.767,0.0021000000000000003,0.48619999999999997,-0.0,31.0,25.93,0,1.0,1576.0,28.0,7.608,-0.1365,-1.03,-0.04,-0.22649999999999998,-7.252,0.5215,0,1,1,100.0,-0.12032113697747289,4.767,-4.887321136977473
18,20.0,1,20.0,1.0,0,1,4.81,0.018,0.784,-0.0,31.0,25.93,0,2.0,1576.0,28.0,7.06,-0.13,-1.02,-0.05,-0.57,-5.76,-2.03,0,1,1,100.0,-1.0313240312354817,4.81,-5.841324031235481
18,21.0,1,20.0,1.0,0,1,4.8425,0.0245,0.82885,-0.0,31.0,25.93,0,2.0,1576.0,28.0,6.826,-0.1235,-1.02,-0.05,-0.7065,-5.1945,-3.3625,0,1,1,100.0,-1.403746598070517,4.8425,-6.246246598070517
18,22.0,1,20.0,1.0,0,1,4.875,0.0322,0.9205,-0.0,31.0,25.93,0,2.0,1576.0,28.0,6.577,-0.11699999999999999,-1.02,-0.05,-0.828,-4.6499999999999995,-4.782,0,1,1,100.0,-1.8449241003212509,4.875,-6.719924100321251
18,23.0,1,20.0,1.0,0,1,4.9075,0.0413,1.06675,-0.0,31.0,25.93,0,2.0,1576.0,28.0,6.3105,-0.1105,-1.02,-0.05,-0.9319999999999999,-4.13,-6.303,0,1,1,100.0,-2.3663156938903,4.9075,-7.2738156938903
18,24.0,1,20.0,1.0,0,1,4.925,0.046200000000000005,1.0153,-0.0,31.0,25.93,0,2.0,1576.0,28.0,6.155,-0.107,-1.02,-0.05,-0.967,-3.877,-7.194,0,1,1,100.0,-2.647065013504404,4.925,-7.572065013504403
18,25.0,1,20.0,1.0,0,1,4.94125,0.05075,0.947375,-0.0,31.0,25.93,0,2.0,1576.0,28.0,6.00875,-0.10375000000000001,-1.02,-0.05,-0.99625,-3.6462499999999998,-8.0325,0,1,1,100.0,-2.907760810288928,4.94125,-7.849010810288928
18,26.0,1,20.0,1.0,0,1,4.9575,0.0553,0.87945,-0.0,31.0,25.93,0,2.0,1576.0,28.0,5.8625,-0.1005,-1.02,-0.05,-1.0255,-3.4154999999999998,-8.871,0,1,1,100.0,-3.168456607073453,4.9575,-8.125956607073451
18,27.0,1,20.0,1.0,0,1,4.9875,0.0637,0.93995,-0.0,31.0,25.93,0,2.0,1576.0,28.0,5.5705,-0.1,-1.02,-0.0555,-1.0245,-3.0444999999999998,-10.496,0,1,1,100.0,-3.6497411549833445,4.9875,-8.637241154983345
18,28.0,1,20.0,1.0,0,1,5.016,0.0722,0.8804,-0.0,31.0,25.93,0,2.0,1576.0,28.0,5.239999999999999,-0.098,-1.02,-0.06,-0.996,-2.666,-12.266,0,1,1,100.0,-4.136755280844544,5.016,-9.152755280844545
18,29.0,1,20.0,1.0,6,2,5.0355,0.07935,0.4982,-0.0,31.0,25.93,0,2.0,1576.0,28.0,4.882499999999999,-0.0915,-1.02,-0.06,-0.918,-2.328,-14.0405,0,1,1,100.0,-4.546420104363083,5.0355,-9.581920104363082
18,30.0,1,20.0,0.5,6,2,5.055,0.082,0.607,0.0255,31.0,25.93,0,10.0,1576.0,28.0,4.485,-0.08,-1.02,-0.06,-0.78,-1.9649999999999999,-15.645,0,1,1,100.0,-4.698253920072751,5.055,-9.753253920072751
18,31.0,1,20.0,0.0,6,2,5.067,0.0623,-1.3487,3.20875,31.0,25.65,0,18.0,1576.0,28.0,3.317,-0.058499999999999996,-1.02,-0.06,-0.1875,-0.824,-18.382,0,1,1,100.0,-3.5695270636650287,5.067,-8.636527063665028
18,32.0,1,20.0,0.0,6,2,5.054,0.0506,-1.0744,3.42,31.0,25.65,0,18.0,1576.0,28.0,2.784,-0.052000000000000005,-1.02,-0.06,0.17000000000000004,-0.278,-18.564,0,1,1,100.0,-2.8991664433619655,5.054,-7.953166443361965
18,33.0,1,20.0,0.45,6,2,5.0275,0.04205,-0.8505,3.35765,31.0,25.668,0,18.45,1576.0,28.0,2.2195,-0.041,-1.0245,-0.0645,0.613,0.23199999999999998,-18.125,0,1,1,100.0,-2.4092875285251116,5.0275,-7.4367875285251115
18,34.0,1,20.0,0.9,6,2,4.992,0.0349,-0.6878000000000001,3.1034,31.0,25.700000000000003,0,18.9,1576.0,28.0,1.637,-0.028,-1.03,-0.07,1.118,0.7050000000000001,-17.262,0,1,1,100.0,-1.9996227050065731,4.992,-6.991622705006574
18,35.0,1,20.0,0.24999999999999994,6,2,4.9399999999999995,0.02775,-0.7385,2.4625,31.0,25.765,0,18.25,1576.0,28.0,1.0325,-0.015000000000000001,-1.03,-0.07,1.7550000000000001,1.0625,-15.584999999999999,0,1,1,100.0,-1.5899578814880344,4.9399999999999995,-6.529957881488034
18,36.0,1,20.0,0.0,6,2,4.88,0.0206,-0.7844,1.7492,31.0,25.834,0,18.0,1576.0,28.0,0.43600000000000005,-0.006,-1.034,-0.07,2.48,1.28,-13.328,0,1,1,100.0,-1.180293057969496,4.88,-6.060293057969496
18,37.0,1,20.0,0.05,6,2,4.813000000000001,0.01345,-0.8000999999999999,0.9944999999999999,31.0,25.9015,0,18.05,1576.0,28.0,-0.1525,0.001,-1.0405,-0.07,3.2665,1.3875,-10.6445,0,1,1,100.0,-0.7706282344509573,4.813000000000001,-5.583628234450958
18,38.0,1,20.0,0.7000000000000001,6,2,4.7219999999999995,0.006300000000000002,-0.4894,0.28600000000000003,31.0,25.921,0,18.7,1576.0,28.0,-0.705,0.014,-1.0470000000000002,-0.07,4.131,1.2249999999999999,-7.193,0,1,1,100.0,-0.36096341093241874,4.7219999999999995,-5.082963410932418
18,39.0,1,20.0,1.0,6,2,4.6274999999999995,0.00125,-0.304,-0.25975,31.0,25.9195,0,19.0,1576.0,28.0,-1.2329999999999999,0.0235,-1.05,-0.07350000000000001,4.9815000000000005,0.9049999999999999,-3.381,0,1,1,100.0,-0.0716197243913529,4.6274999999999995,-4.699119724391353
18,40.0,1,20.0,1.0,6,2,4.53,-0.002,-0.226,-0.666,31.0,25.9,0,19.0,1576.0,28.0,-1.74,0.03,-1.05,-0.08,5.82,0.45,0.74,0,1,1,100.0,0.11459155902616465,4.53,-4.4154084409738354
18,41.0,1,20.0,1.0,6,2,4.4715,-0.002,-0.11777499999999999,-0.516175,31.0,25.9,0,19.0,1576.0,28.0,-1.9675,0.0365,-1.0565,-0.08,6.1775,0.09574999999999997,3.0669999999999997,0,1,1,100.0,0.11459155902616465,4.4715,-4.356908440973835
18,42.0,1,20.0,1.0,6,2,4.413,-0.002,-0.009549999999999986,-0.36634999999999995,31.0,25.9,0,19.0,1576.0,28.0,-2.195,0.043000000000000003,-1.0630000000000002,-0.08,6.535,-0.25850000000000006,5.394,0,1,1,100.0,0.11459155902616465,4.413,-4.2984084409738355
18,43.0,1,20.0,1.0,6,2,4.3545,-0.002,0.09867500000000003,-0.21652499999999994,31.0,25.9,0,19.0,1576.0,28.0,-2.4225,0.0495,-1.0695000000000001,-0.08,6.8925,-0.6127500000000001,7.721,0,1,1,100.0,0.11459155902616465,4.3545,-4.239908440973835
18,44.0,1,20.0,1.0,6,2,4.242,-0.0014,0.1568,0.01040000000000002,31.0,25.918,0,19.0,1576.0,28.0,-2.776,0.056,-1.076,-0.07400000000000001,7.412,-1.4500000000000002,12.52,0,1,1,100.0,0.08021409131831525,4.242,-4.161785908681685
18,45.0,1,20.0,1.0,6,2,4.125,-0.0005,0.17075,0.2415,31.0,25.9225,0,19.0,1576.0,28.0,-3.0925000000000002,0.06,-1.085,-0.07,7.855,-2.365,17.58,0,1,1,100.0,0.028647889756541162,4.125,-4.096352110243459
18,46.0,1,20.0,1.0,6,2,4.008,0.0008,0.1207,0.469,31.0,25.903,0,19.0,1576.0,28.0,-3.333,0.06,-1.098,-0.07,8.154,-3.3400000000000003,22.728,0,1,1,100.0,-0.04583662361046586,4.008,-4.053836623610466
18,47.0,1,20.0,1.0,6,2,3.7375,0.00455,0.08620000000000001,0.7368,31.0,25.9165,0,19.0,1576.0,28.0,-3.508,0.07,-1.1255,-0.0645,8.232,-5.9325,35.1385,0,1,1,100.0,-0.2606957967845246,3.7375,-3.9981957967845245
18,48.0,1,20.0,1.0,6,2,3.659,0.005,0.0156,0.6607000000000001,31.0,25.927,0,19.0,1576.0,28.0,-3.475,0.07,-1.1309999999999998,-0.06,8.127,-6.773,38.913,0,1,1,100.0,-0.2864788975654116,3.659,-3.9454788975654114
18,49.0,1,20.0,1.0,6,2,3.62325,0.005,0.04355,0.6239750000000001,31.0,25.91725,0,19.0,1576.0,28.0,-3.42625,0.07,-1.13425,-0.06,8.01975,-7.23775,40.84025,0,1,1,100.0,-0.2864788975654116,3.62325,-3.9097288975654116
18,50.0,1,20.0,1.0,6,2,3.5875,0.005,0.0715,0.58725,31.0,25.9075,0,19.0,1576.0,28.0,-3.3775,0.07,-1.1375,-0.06,7.9125,-7.702500000000001,42.7675,0,1,1,100.0,-0.2864788975654116,3.5875,-3.8739788975654115
18,51.0,1,20.0,1.0,6,2,3.4885,0.0037,0.0055499999999999985,0.35300000000000004,31.0,25.93,0,19.0,1576.0,28.0,-3.1245,0.06,-1.14,-0.05,7.396,-9.421999999999999,49.0325,0,1,1,100.0,-0.2119943841984046,3.4885,-3.7004943841984046
18,52.0,1,20.0,1.0,6,2,3.482,0.0024000000000000002,-0.0484,0.197,31.0,25.93,0,19.0,1576.0,28.0,-3.014,0.06,-1.14,-0.05,7.162,-9.994,50.690000000000005,0,1,1,100.0,-0.1375098708313976,3.482,-3.619509870831398
18,53.0,1,20.0,1.0,6,2,3.5025,0.00155,-0.08075,0.08825,31.0,25.93,0,19.0,1576.0,28.0,-2.944,0.06,-1.1355,-0.0455,6.973,-10.368,51.434,0,1,1,100.0,-0.0888084582452776,3.5025,-3.5913084582452774
18,54.0,1,20.0,0.95,6,2,3.5359999999999996,0.0009,-0.1004,-0.003400000000000002,31.0,25.93,0,18.95,1576.0,28.0,-2.901,0.06,-1.129,-0.04,6.8235,-10.6035,51.6425,0,1,1,100.0,-0.05156620156177409,3.5359999999999996,-3.5875662015617737
18,55.0,1,20.0,0.625,6,2,3.5749999999999997,0.00025,-0.10300000000000001,-0.11650000000000002,31.0,25.93,0,18.625,1576.0,28.0,-2.9074999999999998,0.06,-1.1225,-0.04,6.78125,-10.56125,51.13875,0,1,1,100.0,-0.014323944878270581,3.5749999999999997,-3.58932394487827
18,56.0,1,20.0,0.29999999999999993,6,2,3.614,-0.0004000000000000001,-0.1056,-0.22960000000000003,31.0,25.93,0,18.3,1576.0,28.0,-2.9139999999999997,0.06,-1.116,-0.04,6.739,-10.519,50.635,0,1,1,100.0,0.022918311805232933,3.614,-3.591081688194767
18,57.0,1,20.0,1.0,6,2,3.8525,-0.0021,-0.15595,-0.43445,31.0,25.9285,0,19.0,1576.0,28.0,-3.0715,0.06,-1.089,-0.03,6.706,-9.613999999999999,46.3305,0,1,1,100.0,0.12032113697747288,3.8525,-3.732178863022527
18,58.0,1,20.0,1.0,6,2,4.015,-0.0034000000000000002,-0.1033,-0.5443,31.0,25.909,0,19.0,1576.0,28.0,-3.221,0.06,-1.076,-0.03,6.784000000000001,-8.626,42.827,0,1,1,100.0,0.1948056503444799,4.015,-3.82019434965552
18,59.0,1,20.0,1.0,6,2,4.146,-0.004175,-0.086875,-0.607775,31.0,25.90525,0,19.0,1576.0,28.0,-3.33725,0.06175,-1.0665,-0.03,6.855,-7.771,39.999,0,1,1,100.0,0.2392098794671187,4.146,-3.9067901205328814
18,60.0,1,20.0,1.0,6,2,4.25,-0.0045000000000000005,-0.10149999999999999,-0.6315,31.0,25.915,0,19.0,1576.0,28.0,-3.4250000000000003,0.065,-1.06,-0.03,6.92,-7.029999999999999,37.75,0,1,1,100.0,0.25783100780887047,4.25,-3.9921689921911296
18,61.0,1,20.0,1.0,6,2,4.354,-0.004825,-0.11612499999999999,-0.6552250000000001,31.0,25.92475,0,19.0,1576.0,28.0,-3.51275,0.06825,-1.0535,-0.03,6.984999999999999,-6.289,35.501,0,1,1,100.0,0.27645213615062225,4.354,-4.077547863849378
18,62.0,1,20.0,0.7,6,2,4.89,-0.006,-0.0817,-0.7177,31.0,25.909,0,19.0,1576.0,29.0,-3.811,0.07,-1.024,-0.03,7.319,-1.869,23.604,0,1,1,100.0,0.34377467707849396,4.89,-4.546225322921506
18,63.0,1,20.0,0.04999999999999995,1,5,5.15,-0.006,-0.09405,-0.74305,31.0,25.8635,0,19.0,1576.0,29.0,-3.8565,0.07,-1.0110000000000001,-0.03,7.468500000000001,0.4514999999999999,18.001,0,1,1,100.0,0.34377467707849396,5.15,-4.806225322921506
18,64.0,1,20.0,0.0,1,5,5.428,-0.030600000000000002,-2.0558,0.2281999999999999,31.0,25.86,0,19.0,1576.0,29.0,-3.74,0.064,-0.998,-0.03,7.546,2.976,12.482,0,1,1,100.0,1.7532508531003193,5.428,-3.6747491468996807
18,65.0,1,20.0,0.0,1,5,5.65375,-0.05275,-3.281375,1.0,31.0,25.8475,0,19.0,1576.0,29.0,-3.58875,0.05875,-0.9875,-0.03,7.58,5.0200000000000005,8.1,0,1,1,100.0,3.0223523693150924,5.65375,-2.631397630684907
18,66.0,1,20.0,0.0,1,5,5.7935,-0.0677,-3.06915,1.3198,31.0,25.815,0,19.0,1576.0,29.0,-3.4035,0.0555,-0.981,-0.03,7.554,6.268000000000001,5.526,0,1,1,100.0,3.878924273035673,5.7935,-1.9145757269643267
18,67.0,1,20.0,0.0,1,5,5.93325,-0.08265,-2.856925,1.6396,31.0,25.782500000000002,0,19.0,1576.0,29.0,-3.21825,0.05225,-0.9744999999999999,-0.03,7.528,7.516000000000001,2.9519999999999995,0,1,1,100.0,4.7354961767562544,5.93325,-1.1977538232437457
18,68.0,1,20.0,0.0,1,5,6.114,-0.1004,-2.6042,2.0224,31.0,25.746000000000002,0,19.0,1576.0,29.0,-2.9019999999999997,0.048,-0.968,-0.032,7.454,9.036000000000001,-0.268,0,1,1,100.0,5.752496263113465,6.114,-0.3615037368865348
18,69.0,1,20.0,0.0,1,6,6.3870000000000005,-0.12445,-2.26035,2.5469500000000003,31.0,25.7005,0,19.0,1576.0,29.0,-2.291,0.0415,-0.9615,-0.0385,7.272,11.168000000000001,-4.9415,0,1,1,100.0,7.130459760403095,6.3870000000000005,0.7434597604030948
18,70.0,1,20.0,0.0,1,6,7.0249999999999995,-0.169,-1.5415,3.8275,31.0,25.565,0,19.0,1576.0,29.0,-0.045000000000000095,0.0,-0.945,-0.055,6.4350000000000005,14.365,-15.0,0,1,1,100.0,9.682986737710912,7.0249999999999995,2.657986737710913
18,71.0,1,20.0,0.0,1,6,7.2465,-0.18125,-1.2033,4.2812,31.0,25.4935,0,19.0,1576.0,29.0,1.017,-0.0145,-0.9385,-0.0615,5.9885,14.789,-18.3445,0,1,1,100.0,10.38486003674617,7.2465,3.13836003674617
18,72.0,1,20.0,0.0,1,6,7.4479999999999995,-0.191,-0.9056,4.7154,31.0,25.422,0,19.0,1576.0,29.0,2.174,-0.034,-0.932,-0.068,5.462,14.568,-21.224,0,1,1,100.0,10.943493886998723,7.4479999999999995,3.495493886998724
18,73.0,1,20.0,0.0,1,6,7.618,-0.1994,-0.7321,5.027200000000001,31.0,25.4,0,19.0,1576.0,29.0,3.3625,-0.053500000000000006,-0.9255,-0.07450000000000001,4.877,13.879,-23.680500000000002,0,1,1,100.0,11.424778434908616,7.618,3.8067784349086153
18,74.0,1,20.0,0.0,1,6,7.768,-0.20679999999999998,-0.6061,5.2816,31.0,25.39,0,19.0,1576.0,29.0,4.563,-0.07300000000000001,-0.92,-0.08,4.256,12.915999999999999,-25.857000000000003,0,1,1,100.0,11.848767203305423,7.768,4.080767203305423
18,75.0,1,20.0,0.0,1,6,7.885,-0.212,-0.43775000000000003,5.5195,31.0,25.325,0,19.0,1576.0,29.0,5.7524999999999995,-0.09250000000000001,-0.92,-0.08,3.58,11.59,-27.5275,0,1,1,100.0,12.146705256773451,7.885,4.2617052567734515
18,76.0,1,20.0,0.0,1,6,7.97,-0.2164,-0.3406,5.7426,31.0,25.284000000000002,0,19.0,1576.0,29.0,6.906,-0.112,-0.92,-0.084,2.852,10.168000000000001,-28.830000000000002,0,1,1,100.0,12.398806686631016,7.97,4.428806686631016
18,77.0,1,20.0,0.0,1,6,8.030999999999999,-0.220025,-0.289025,5.947925000000001,31.0,25.25825,0,19.0,1576.0,29.0,7.99,-0.1305,-0.92,-0.09,2.11875,8.747250000000001,-29.84,0,1,1,100.0,12.606503887365937,8.030999999999999,4.575503887365938
18,78.0,1,20.0,0.0,1,6,8.044,-0.22035,-0.25034999999999996,6.05095,31.0,25.235500000000002,0,19.0,1576.0,29.0,8.51,-0.137,-0.92,-0.09,1.7125,8.0615,-30.1,0,1,1,100.0,12.62512501570769,8.044,4.5811250157076895
18,79.0,1,20.0,0.0,1,6,8.057,-0.220675,-0.21167499999999997,6.153975,31.0,25.21275,0,19.0,1576.0,29.0,9.030000000000001,-0.1435,-0.92,-0.09,1.30625,7.375750000000001,-30.36,0,1,1,100.0,12.643746144049443,8.057,4.586746144049442
18,80.0,1,20.0,0.0,1,6,8.03,-0.223,-0.191,6.419,31.0,25.12,0,19.0,1576.0,29.0,11.03,-0.18,-0.91,-0.09,-0.41,4.93,-30.61,0,1,1,100.0,12.776958831417359,8.03,4.746958831417359
18,81.0,1,20.0,0.0,3,7,7.965,-0.22365000000000002,-0.057749999999999996,6.54315,31.0,25.12,0,19.0,1576.0,29.0,11.9075,-0.193,-0.91,-0.09,-1.2745,4.0525,-30.142,0,1,1,100.0,12.814201088100862,7.965,4.8492010881008625
18,82.0,1,20.0,0.0,3,7,7.917999999999999,-0.224,0.007775000000000001,6.62155,31.0,25.11775,0,19.0,1576.0,29.0,12.47225,-0.2015,-0.91,-0.09,-1.83975,3.50425,-29.794,0,1,1,100.0,12.83425461093044,7.917999999999999,4.916254610930441
18,83.0,1,20.0,0.0,3,7,7.8919999999999995,-0.224,-0.0057125,6.646575,31.0,25.112875000000003,0,19.0,1576.0,29.0,12.672125000000001,-0.20475000000000002,-0.91,-0.09,-2.055875,3.340125,-29.586,0,1,1,100.0,12.83425461093044,7.8919999999999995,4.942254610930441
18,84.0,1,20.0,0.0,3,7,7.866,-0.224,-0.019200000000000002,6.671600000000001,31.0,25.108,0,19.0,1576.0,29.0,12.872,-0.20800000000000002,-0.91,-0.09,-2.272,3.176,-29.378,0,1,1,100.0,12.83425461093044,7.866,4.96825461093044
18,85.0,1,20.0,0.0,3,7,7.84,-0.224,-0.0326875,6.696625,31.0,25.103125,0,19.0,1576.0,29.0,13.071875,-0.21125,-0.91,-0.09,-2.4881249999999997,3.011875,-29.17,0,1,1,100.0,12.83425461093044,7.84,4.99425461093044
18,86.0,1,20.0,0.0,3,7,7.814,-0.224,-0.046175,6.72165,31.0,25.09825,0,19.0,1576.0,29.0,13.271749999999999,-0.2145,-0.91,-0.09,-2.70425,2.84775,-28.962,0,1,1,100.0,12.83425461093044,7.814,5.02025461093044
18,87.0,1,20.0,0.0,3,7,7.787999999999999,-0.224,-0.0596625,6.746675000000001,31.0,25.093375,0,19.0,1576.0,29.0,13.471625,-0.21775,-0.91,-0.09,-2.920375,2.6836249999999997,-28.753999999999998,0,1,1,100.0,12.83425461093044,7.787999999999999,5.046254610930441
18,88.0,1,20.0,0.9,3,7,7.545,-0.2227,0.012700000000000001,6.7629,31.0,25.09,0,19.9,1576.0,29.0,14.811,-0.241,-0.91,-0.1,-4.519,1.7750000000000001,-26.648,0,1,1,100.0,12.759770097563434,7.545,5.214770097563434
18,89.0,1,20.0,0.575,3,7,7.46375,-0.221725,0.096225,6.850325,31.0,25.09,0,19.575,1576.0,29.0,15.10675,-0.24425,-0.91,-0.1,-4.93825,1.59625,-25.959,0,1,1,100.0,12.703906712538178,7.46375,5.240156712538178
18,90.0,1,20.0,0.24999999999999994,3,7,7.3825,-0.22075,0.17975,6.93775,31.0,25.09,0,19.25,1576.0,29.0,15.4025,-0.2475,-0.91,-0.1,-5.3575,1.4175,-25.27,0,1,1,100.0,12.648043327512923,7.3825,5.265543327512923
18,91.0,1,20.0,0.0,3,7,6.6835,-0.19455,1.14205,7.8044,31.0,24.959,0,19.0,1576.0,29.0,15.497,-0.2585,-0.933,-0.0885,-7.075,3.1635,-19.2185,0,1,1,100.0,11.146893904270167,6.6835,4.463393904270166
18,92.0,1,20.0,0.0,3,7,6.482,-0.17959999999999998,1.6666,8.3738,31.0,24.868,0,19.0,1576.0,29.0,14.834000000000001,-0.252,-0.946,-0.082,-7.01,4.912,-17.392,0,1,1,100.0,10.290322000549585,6.482,3.808322000549585
18,93.0,1,20.0,0.0,3,7,6.028,-0.134575,2.176075,8.46605,31.0,24.9415,0,19.0,1576.0,29.0,12.82225,-0.22325,-0.9744999999999999,-0.0555,-6.3347500000000005,10.41625,-13.34675,0,1,1,100.0,7.710579527973054,6.028,1.6825795279730542
18,94.0,1,20.0,0.0,3,7,5.924,-0.12384999999999999,2.2628500000000003,8.328899999999999,31.0,24.987000000000002,0,19.0,1576.0,29.0,12.3055,-0.21350000000000002,-0.981,-0.049,-6.1105,11.9275,-12.4465,0,1,1,100.0,7.096082292695245,5.924,1.1720822926952446
18,95.0,1,20.0,0.0,3,7,5.82,-0.113125,2.349625,8.191749999999999,31.0,25.032500000000002,0,19.0,1576.0,29.0,11.78875,-0.20375000000000001,-0.9875,-0.0425,-5.8862499999999995,13.438749999999999,-11.546249999999999,0,1,1,100.0,6.481585057417438,5.82,0.6615850574174376
18,96.0,1,20.0,0.6,3,7,5.364000000000001,-0.0556,2.4938000000000002,6.8926,31.0,25.396,0,19.6,1576.0,29.0,9.62,-0.172,-1.018,-0.022,-4.83,20.108,-7.867999999999999,0,1,1,100.0,3.185645340927377,5.364000000000001,-2.1783546590726237
18,97.0,1,20.0,0.0,3,7,5.176500000000001,-0.02955,2.5409,6.0922,31.0,25.551,0,19.0,1576.0,29.0,8.857000000000001,-0.1595,-1.0310000000000001,-0.0095,-4.449,22.493000000000002,-6.5395,0,1,1,100.0,1.6930902846115827,5.176500000000001,-3.483409715388418
18,98.0,1,20.0,0.0,3,7,5.001,-0.010700000000000001,1.9285999999999999,4.703799999999999,31.0,25.694000000000003,0,19.0,1576.0,29.0,8.298,-0.153,-1.044,-0.003,-4.176,24.092,-5.493,0,1,1,100.0,0.6130648407899809,5.001,-4.387935159210019
18,99.0,1,20.0,0.0,3,7,4.829,0.00535,1.4258499999999998,3.5481499999999997,31.0,25.795,0,19.0,1576.0,29.0,7.8545,-0.1465,-1.0535,0.0035,-3.973,25.176499999999997,-4.59,0,1,1,100.0,-0.3065324203949904,4.829,-5.13553242039499
18,100.0,1,20.0,0.0,3,7,4.66,0.019,1.017,2.592,31.0,25.86,0,19.0,1576.0,29.0,7.51,-0.14,-1.06,0.01,-3.83,25.82,-3.81,0,1,1,100.0,-1.088619810748564,4.66,-5.748619810748564
19,0.0,1,20.0,0.0,0,1,4.44,0.028,0.205,1.174,31.0,25.9,0,19.0,1576.0,29.0,7.22,-0.14,-1.07,0.01,-3.79,25.47,-2.83,0,1,1,100.0,-1.604281826366305,4.44,-6.044281826366305
19,1.0,1,20.0,0.0,0,1,4.376,0.028,0.10643999999999998,0.9720799999999999,31.0,25.9,0,19.0,1576.0,29.0,7.1784,-0.1368,-1.0732000000000002,0.01,-3.8124,25.0508,-2.5292,0,1,1,100.0,-1.604281826366305,4.376,-5.980281826366305
19,2.0,1,20.0,0.0,0,1,4.312,0.028,0.00787999999999997,0.77016,31.0,25.9,0,19.0,1576.0,29.0,7.1368,-0.1336,-1.0764,0.01,-3.8348,24.6316,-2.2284,0,1,1,100.0,-1.604281826366305,4.312,-5.916281826366305
19,3.0,1,20.0,0.0,0,1,4.248,0.028,-0.09068000000000007,0.56824,31.0,25.9,0,19.0,1576.0,29.0,7.0952,-0.13040000000000002,-1.0796000000000001,0.01,-3.8571999999999997,24.2124,-1.9275999999999998,0,1,1,100.0,-1.604281826366305,4.248,-5.852281826366305
19,4.0,1,20.0,0.0,0,1,4.1392,0.028,-0.103,0.543,31.0,25.9,0,30.200000000000003,1576.0,29.0,7.062,-0.13,-1.08,0.01,-3.944,23.0568,-1.3132,0,1,1,100.0,-1.604281826366305,4.1392,-5.743481826366304
19,5.0,1,20.0,0.0,0,1,3.874,0.0254,-0.83,0.4344,31.0,25.9,0,48.2,1576.0,29.0,7.004,-0.13,-1.08,0.01,-4.21,19.398,0.61,0,1,1,100.0,-1.455312799632291,3.874,-5.329312799632291
19,6.0,1,20.0,0.0,0,1,3.7908,0.01707999999999999,-3.156400000000002,0.08687999999999972,31.0,25.9,0,13.639999999999967,1576.0,29.0,6.9848,-0.13,-1.08,0.01,-4.306,17.8556,1.4740000000000006,0,1,1,100.0,-0.9786119140834456,3.7908,-4.769411914083445
19,7.0,1,20.0,0.0,0,1,3.722,0.012119999999999997,-2.1314399999999987,-0.0,31.0,25.9144,0,5.0,1576.0,29.0,6.956,-0.13,-1.08,0.005199999999999995,-4.3828000000000005,16.3324,2.3764000000000007,0,1,1,100.0,-0.6944248476985576,3.722,-4.416424847698558
19,8.0,1,20.0,0.0,0,1,3.6604,0.008279999999999997,-0.3886,-0.0,31.0,25.9348,0,5.0,1576.0,29.0,6.9216,-0.13,-1.08,-0.001200000000000003,-4.4496,14.8348,3.2892000000000006,0,1,1,100.0,-0.4744090543683215,3.6604,-4.134809054368322
19,9.0,1,20.0,0.0,0,1,3.6092,0.004439999999999999,-0.3758,-0.0,31.0,25.9604,0,5.0,1576.0,29.0,6.8768,-0.13,-1.08,-0.007600000000000002,-4.5008,13.4204,4.1916,0,1,1,100.0,-0.25439326103808546,3.6092,-3.863593261038085
19,10.0,1,20.0,0.0,0,1,3.566,0.0014,-0.2842,-0.0,31.0,25.954,0,5.0,1576.0,29.0,6.82,-0.13,-1.076,-0.01,-4.532,12.086,5.042,0,1,1,100.0,-0.08021409131831525,3.566,-3.646214091318315
19,11.0,1,20.0,0.0,0,1,3.5284,-0.0010400000000000006,-0.15275999999999998,-0.0,31.0,25.93,0,5.0,1576.0,29.0,6.755199999999999,-0.1296,-1.07,-0.010400000000000006,-4.5496,10.808,5.852,0,1,1,100.0,0.05958761069360565,3.5284,-3.4688123893063945
19,12.0,1,20.0,0.0,0,1,3.5028,-0.0016800000000000012,-0.13291999999999995,-0.0,31.0,25.93,0,5.0,1576.0,29.0,6.6784,-0.12319999999999999,-1.07,-0.016800000000000013,-4.5432,9.655999999999999,6.524000000000001,0,1,1,100.0,0.09625690958197837,3.5028,-3.4065430904180216
19,13.0,1,20.0,0.0,0,1,3.4884000000000004,-0.0023200000000000004,-0.10667999999999998,-0.0,31.0,25.93,0,5.0,1576.0,29.0,6.6175999999999995,-0.12,-1.0684,-0.02,-4.5336,8.8272,6.9752,0,1,1,100.0,0.13292620847035103,3.4884000000000004,-3.3554737915296493
19,14.0,1,20.0,0.0,0,1,3.4852000000000003,-0.002960000000000001,-0.07403999999999995,-0.0,31.0,25.93,0,5.0,1576.0,29.0,6.5728,-0.12,-1.0652000000000001,-0.02,-4.5208,8.3216,7.2056000000000004,0,1,1,100.0,0.16959550735872372,3.4852000000000003,-3.3156044926412767
19,15.0,1,20.0,0.0,0,1,3.482,-0.0036,-0.041400000000000006,-0.0,31.0,25.93,0,5.0,1576.0,29.0,6.528,-0.12,-1.062,-0.02,-4.508,7.816,7.436,0,1,1,100.0,0.20626480624709637,3.482,-3.275735193752904
19,16.0,1,20.0,0.0,0,1,3.4824,-0.004,-0.027720000000000015,-0.0,31.0,25.93,0,5.0,1576.0,29.0,6.4639999999999995,-0.12,-1.06,-0.022400000000000007,-4.4832,7.171199999999999,7.6664,0,1,1,100.0,0.2291831180523293,3.4824,-3.253216881947671
19,17.0,1,20.0,0.0,0,1,3.4888000000000003,-0.004,-0.045640000000000035,-0.0,31.0,25.93,0,5.0,1576.0,29.0,6.367999999999999,-0.12,-1.06,-0.02880000000000001,-4.4384,6.294399999999999,7.896800000000001,0,1,1,100.0,0.2291831180523293,3.4888000000000003,-3.259616881947671
19,18.0,1,20.0,0.0,0,1,3.536,-0.0035200000000000006,0.014919999999999992,-0.0,31.0,25.93,0,5.0,1576.0,29.0,6.132,-0.11,-1.0448,-0.0352,-4.288,4.465599999999999,7.656,0,1,1,100.0,0.2016811438860498,3.536,-3.33431885611395
19,19.0,1,20.0,0.0,0,1,3.5712,-0.0036799999999999984,0.012840000000000061,-0.0,31.0,25.93,0,5.0,1576.0,29.0,6.039199999999999,-0.11,-1.04,-0.04,-4.2272,3.8751999999999995,7.305599999999999,0,1,1,100.0,0.21084846860814285,3.5712,-3.3603515313918573
19,20.0,1,20.0,0.0,0,1,3.616,-0.0024000000000000002,0.0602,-0.0,31.0,25.93,0,5.0,1576.0,29.0,5.9559999999999995,-0.11,-1.04,-0.04,-4.176,3.3760000000000003,6.768,0,1,1,100.0,0.1375098708313976,3.616,-3.4784901291686023
19,21.0,1,20.0,0.0,0,1,3.6652,-0.0011199999999999988,0.12780000000000008,-0.0,31.0,25.93,0,5.0,1576.0,29.0,5.864,-0.1056,-1.0356,-0.04440000000000001,-4.138,2.9471999999999996,6.080799999999999,0,1,1,100.0,0.06417127305465213,3.6652,-3.601028726945348
19,22.0,1,20.0,0.0,0,1,3.718,0.00024000000000000342,0.20348000000000013,-0.0,31.0,25.93,0,5.0,1576.0,29.0,5.768,-0.1,-1.03,-0.05,-4.1052,2.5623999999999993,5.302399999999999,0,1,1,100.0,-0.013750987083139954,3.718,-3.73175098708314
19,23.0,1,20.0,0.0,0,1,3.782,0.0021600000000000052,0.27132000000000017,-0.0,31.0,25.93,0,5.0,1576.0,29.0,5.672,-0.1,-1.03,-0.05,-4.0668,2.261599999999999,4.3615999999999975,0,1,1,100.0,-0.12375888374825812,3.782,-3.905758883748258
19,24.0,1,20.0,0.0,0,1,3.8280000000000003,0.0037200000000000046,0.3298000000000002,-0.0,31.0,25.93,0,5.0,1576.0,29.0,5.5958,-0.1,-1.03,-0.05,-4.0374,2.0669999999999997,3.645799999999998,0,1,1,100.0,-0.2131402997886665,3.8280000000000003,-4.041140299788667
19,25.0,1,20.0,0.0,0,1,3.8600000000000003,0.005,0.381,-0.0,31.0,25.93,0,5.0,1576.0,29.0,5.535,-0.1,-1.03,-0.05,-4.015,1.9549999999999998,3.105,0,1,1,100.0,-0.2864788975654116,3.8600000000000003,-4.146478897565412
19,26.0,1,20.0,0.0,0,1,3.8920000000000003,0.006280000000000002,0.4322000000000001,-0.0,31.0,25.93,0,5.0,1576.0,29.0,5.474200000000001,-0.1,-1.03,-0.05,-3.9926,1.843,2.5641999999999996,0,1,1,100.0,-0.35981749534215707,3.8920000000000003,-4.2518174953421575
19,27.0,1,20.0,0.0,0,1,3.9436000000000004,0.008960000000000008,0.44839999999999997,-0.0,31.0,25.93,0,5.0,1576.0,29.0,5.3812,-0.0972,-1.0272000000000001,-0.052800000000000014,-3.9408,1.7127999999999997,1.7419999999999978,0,1,1,100.0,-0.513370184437218,3.9436000000000004,-4.4569701844372185
19,28.0,1,20.0,0.0,0,1,4.0204,0.013440000000000013,0.4195999999999999,-0.0,31.0,25.93,0,5.0,1576.0,29.0,5.2468,-0.09079999999999998,-1.0208,-0.059200000000000016,-3.8511999999999995,1.5591999999999997,0.5579999999999966,0,1,1,100.0,-0.7700552766558272,4.0204,-4.790455276655828
19,29.0,1,20.0,1.0,0,1,4.2072,0.023920000000000014,0.42592000000000024,-0.0,31.0,25.93,0,6.0,1576.0,29.0,4.8232,-0.08439999999999998,-1.02,-0.06560000000000002,-3.4775999999999994,1.3463999999999998,-2.6644000000000045,0,1,1,100.0,-1.37051504595293,4.2072,-5.57771504595293
19,30.0,1,20.0,1.0,0,1,4.271,0.0279,0.49629999999999996,-0.0,31.0,25.93,0,6.0,1576.0,29.0,4.67,-0.08,-1.02,-0.07,-3.3120000000000003,1.32,-3.74,0,1,1,100.0,-1.5985522484149968,4.271,-5.869552248414997
19,31.0,1,20.0,1.0,0,1,4.3062,0.030780000000000002,0.57086,-0.0,31.0,25.93,0,6.0,1576.0,29.0,4.574,-0.08,-1.02,-0.07,-3.1904,1.32,-4.380000000000001,0,1,1,100.0,-1.763564093412674,4.3062,-6.069764093412673
19,32.0,1,20.0,1.0,0,1,4.3414,0.03366,0.6454200000000001,-0.0,31.0,25.93,0,6.0,1576.0,29.0,4.478,-0.08,-1.02,-0.07,-3.0688,1.32,-5.020000000000001,0,1,1,100.0,-1.9285759384103511,4.3414,-6.269975938410351
19,33.0,1,20.0,1.0,0,1,4.382000000000001,0.03720000000000002,0.6743199999999995,-0.0,31.12,25.93,0,6.0,1576.0,29.0,4.3616,-0.07879999999999998,-1.02,-0.07,-2.9159999999999995,1.3224,-5.774000000000004,0,1,1,100.0,-2.1314029978866635,4.382000000000001,-6.513402997886664
19,34.0,1,20.0,1.0,0,1,4.446,0.04360000000000002,0.5053599999999994,-0.0,31.76,25.93,0,6.0,1576.0,29.0,4.1568,-0.07239999999999998,-1.02,-0.07,-2.6279999999999992,1.3352000000000002,-7.022000000000005,0,1,1,100.0,-2.4980959867703905,4.446,-6.944095986770391
19,35.0,1,20.0,0.6,0,1,4.578,0.051399999999999994,0.225,0.026000000000000002,31.0,25.93,0,10.4,1576.0,29.0,3.574,-0.066,-1.02,-0.07400000000000001,-1.7859999999999998,1.4300000000000002,-9.798,0,1,1,100.0,-2.945003066972431,4.578,-7.523003066972431
19,36.0,1,20.0,0.0,6,2,4.622,0.051559999999999995,0.2034399999999994,0.14452000000000115,31.0,25.926,0,17.0,1576.0,29.0,3.3215999999999997,-0.05959999999999999,-1.02,-0.08,-1.4259999999999997,1.5312000000000001,-10.6128,0,1,1,100.0,-2.9541703916945243,4.622,-7.576170391694524
19,37.0,1,20.0,0.0,6,2,4.654,0.04451999999999999,-0.4775200000000013,1.4168400000000023,31.0,25.862,0,17.0,1576.0,29.0,3.0271999999999992,-0.05319999999999999,-1.02,-0.08,-1.0419999999999994,1.7104000000000004,-10.9776,0,1,1,100.0,-2.5508081039224244,4.654,-7.204808103922424
19,38.0,1,20.0,0.0,6,2,4.6748,0.03907999999999999,-0.7872799999999998,2.05268,31.0,25.83,0,17.0,1576.0,29.0,2.7967999999999993,-0.04839999999999999,-1.02,-0.08,-0.7427999999999995,1.8528000000000002,-11.1008,0,1,1,100.0,-2.2391190633712568,4.6748,-6.913919063371257
19,39.0,1,20.0,0.0,6,2,4.6844,0.03523999999999999,-0.7258399999999997,2.05204,31.0,25.83,0,17.0,1576.0,29.0,2.6303999999999994,-0.04519999999999999,-1.02,-0.08,-0.5283999999999993,1.9584000000000004,-10.982399999999998,0,1,1,100.0,-2.01910327004102,4.6844,-6.70350327004102
19,40.0,1,20.0,0.0,6,2,4.694,0.0314,-0.6644,2.0514,31.0,25.83,0,17.0,1576.0,29.0,2.464,-0.042,-1.02,-0.08,-0.31400000000000006,2.064,-10.863999999999999,0,1,1,100.0,-1.7990874767107847,4.694,-6.493087476710785
19,41.0,1,20.0,0.24000000000000343,6,2,4.7,0.02683999999999997,-0.6284000000000001,1.9384399999999986,31.240000000000002,25.8372,0,17.240000000000002,1576.0,29.0,2.2183999999999977,-0.03759999999999997,-1.0224,-0.08,2.5579538487363606e-15,2.192400000000001,-10.434799999999994,0,1,1,100.0,-1.537818722131128,4.7,-6.237818722131128
19,42.0,1,20.0,0.8800000000000012,6,2,4.7,0.02107999999999999,-0.6348,1.6382799999999995,31.880000000000003,25.8564,0,17.880000000000003,1576.0,29.0,1.8407999999999993,-0.031199999999999988,-1.0288,-0.08,0.4800000000000008,2.3588000000000005,-9.487599999999999,0,1,1,100.0,-1.2077950321357749,4.7,-5.907795032135775
19,43.0,1,20.0,0.4800000000000011,6,2,4.659199999999999,0.00532000000000001,-0.6506000000000001,-0.07487999999999832,31.0,25.915599999999998,0,17.48,1576.0,29.0,0.7768000000000008,-0.014800000000000011,-1.03,-0.08519999999999998,1.9899999999999989,2.2740000000000005,-4.510400000000004,0,1,1,100.0,-0.3048135470095985,4.659199999999999,-4.964013547009598
19,44.0,1,20.0,0.16000000000000228,6,2,4.6288,-0.00044000000000002056,-0.6326800000000004,-0.9451200000000025,31.160000000000004,25.9252,0,17.160000000000004,1576.0,29.0,0.3607999999999986,-0.008399999999999977,-1.0316,-0.09,2.6268000000000025,2.0211999999999986,-1.7871999999999886,0,1,1,100.0,0.0252101429857574,4.6288,-4.603589857014243
19,45.0,1,20.0,0.8,6,2,4.5840000000000005,-0.006200000000000001,-0.7434000000000001,-1.6536,31.8,25.906,0,17.8,1576.0,29.0,-0.035999999999999976,-0.002,-1.038,-0.09,3.2540000000000004,1.5859999999999999,1.464,0,1,1,100.0,0.35523383298111044,4.5840000000000005,-4.22876616701889
19,46.0,1,20.0,1.0,6,2,4.5348,-0.011960000000000031,-0.5997999999999987,-2.0906000000000016,31.559999999999995,25.8692,0,18.0,1576.0,29.0,-0.42400000000000204,0.004400000000000034,-1.0444,-0.09,3.8108000000000026,1.0011999999999965,5.13760000000002,0,1,1,100.0,0.6852575229764664,4.5348,-3.849542477023533
19,47.0,1,20.0,1.0,6,2,4.4828,-0.017,-0.3263599999999993,-2.3238799999999995,31.0,25.8324,0,18.0,1576.0,29.0,-0.8048000000000006,0.010800000000000011,-1.0508,-0.09,4.314,0.3283999999999985,9.064800000000007,0,1,1,100.0,0.9740282517223996,4.4828,-3.5087717482776006
19,48.0,1,20.0,1.0,6,2,4.4252,-0.017,0.04676000000000263,-1.9949199999999978,31.0,25.851599999999998,0,18.0,1576.0,29.0,-1.1632000000000027,0.017200000000000045,-1.0572000000000001,-0.09,4.666000000000002,-0.48440000000000577,13.423200000000032,0,1,1,100.0,0.9740282517223996,4.4252,-3.4511717482776008
19,49.0,1,20.0,1.0,6,2,4.3838,-0.016099999999999996,0.23160000000000014,-1.7231999999999992,31.18,25.8672,0,18.0,1576.0,29.0,-1.4082000000000006,0.02180000000000001,-1.0636,-0.09,4.856000000000001,-1.0920000000000016,16.658400000000007,0,1,1,100.0,0.9224620501606252,4.3838,-3.4613379498393746
19,50.0,1,20.0,1.0,6,2,4.355,-0.0145,0.27,-1.496,31.5,25.88,0,18.0,1576.0,29.0,-1.5650000000000002,0.024999999999999998,-1.07,-0.09,4.92,-1.5400000000000003,19.02,0,1,1,100.0,0.8307888029396937,4.355,-3.524211197060307
19,51.0,1,20.0,1.0,6,2,4.326199999999999,-0.012899999999999991,0.30840000000000023,-1.2687999999999988,31.82,25.892799999999998,0,18.0,1576.0,29.0,-1.7218000000000009,0.028200000000000017,-1.0764,-0.09,4.984,-1.9880000000000027,21.381600000000013,0,1,1,100.0,0.7391155557187614,4.326199999999999,-3.5870844442812375
19,52.0,1,20.0,1.0,6,2,4.287599999999999,-0.010599999999999995,0.32495999999999997,-0.9794399999999993,31.72,25.9,0,18.0,1576.0,29.0,-1.9108000000000005,0.03280000000000001,-1.0828,-0.09,4.9696,-2.648800000000002,24.871600000000008,0,1,1,100.0,0.6073352628386723,4.287599999999999,-3.680264737161327
19,53.0,1,20.0,1.0,6,2,4.2364,-0.007399999999999978,0.31343999999999994,-0.6101599999999973,31.079999999999995,25.9,0,18.0,1576.0,29.0,-2.1412000000000018,0.03920000000000005,-1.0892000000000002,-0.09,4.854399999999999,-3.583200000000007,29.812400000000036,0,1,1,100.0,0.42398876839680794,4.2364,-3.8124112316031917
19,54.0,1,20.0,1.0,6,2,4.1964,-0.005319999999999993,0.1955199999999995,-0.3511999999999991,31.0,25.9168,0,18.0,1576.0,29.0,-2.2708000000000004,0.04560000000000002,-1.1012000000000002,-0.08439999999999998,4.526399999999999,-4.540000000000004,34.798000000000016,0,1,1,100.0,0.30481354700959756,4.1964,-3.8915864529904023
19,55.0,1,20.0,1.0,6,2,4.14,0.0004,0.2246,0.5206000000000001,31.8,25.93,0,18.0,1576.0,29.0,-2.286,0.048,-1.132,-0.08,3.178,-7.096,47.153999999999996,0,1,1,100.0,-0.02291831180523293,4.14,-4.162918311805233
19,56.0,1,20.0,1.0,6,2,4.14,0.001680000000000007,0.18171999999999977,0.7369200000000012,31.159999999999997,25.93,0,18.0,1576.0,29.0,-2.145199999999999,0.04159999999999996,-1.1383999999999999,-0.08,2.467599999999996,-8.203200000000006,51.51880000000002,0,1,1,100.0,-0.0962569095819787,4.14,-4.236256909581979
19,57.0,1,20.0,1.0,6,2,4.1544,0.002720000000000002,0.13595999999999991,0.79412,31.240000000000002,25.93,0,18.0,1576.0,29.0,-2.026,0.04,-1.14,-0.08,2.0043999999999995,-8.988800000000001,53.9108,0,1,1,100.0,-0.15584452027558404,4.1544,-4.3102445202755835
19,58.0,1,20.0,1.0,6,2,4.1736,0.003680000000000007,0.08923999999999967,0.7982800000000001,31.560000000000002,25.93,0,18.0,1576.0,29.0,-1.913999999999999,0.04,-1.14,-0.08,1.6235999999999973,-9.667200000000005,55.64520000000001,0,1,1,100.0,-0.21084846860814335,4.1736,-4.384448468608144
19,59.0,1,20.0,1.0,6,2,4.1928,0.0046400000000000035,0.04251999999999983,0.80244,31.880000000000003,25.93,0,18.0,1576.0,29.0,-1.8019999999999996,0.04,-1.14,-0.08,1.2427999999999988,-10.345600000000003,57.3796,0,1,1,100.0,-0.26585241694070216,4.1928,-4.458652416940702
19,60.0,1,20.0,1.0,6,2,4.382,0.004,0.012400000000000001,0.5514,31.6,25.93,0,18.0,1576.0,29.0,-1.278,0.026,-1.136,-0.07,-0.4,-14.634,61.83,0,1,1,100.0,-0.2291831180523293,4.382,-4.611183118052329
19,61.0,1,20.0,0.9599999999999966,6,2,4.500400000000001,0.004,-0.013160000000000184,0.5088399999999996,31.0,25.93,0,17.959999999999997,1576.0,29.0,-1.1072,0.02,-1.1291999999999998,-0.07,-0.9984000000000024,-16.763200000000012,62.32959999999999,0,1,1,100.0,-0.2291831180523293,4.500400000000001,-4.7295831180523304
19,62.0,1,20.0,0.31999999999999884,6,2,4.6668,0.004,-0.04772000000000006,0.4422799999999999,31.0,25.93,0,17.32,1576.0,29.0,-1.0624,0.02,-1.1164,-0.07,-1.4528000000000008,-19.054400000000005,61.203199999999995,0,1,1,100.0,-0.2291831180523293,4.6668,-4.89598311805233
19,63.0,1,20.0,0.32000000000000456,6,2,4.852400000000001,0.0036799999999999953,-0.06371999999999998,0.3568399999999992,31.320000000000004,25.93,0,17.320000000000004,1576.0,29.0,-1.104000000000001,0.02,-1.1036,-0.06679999999999996,-1.824000000000002,-21.256000000000014,59.20319999999998,0,1,1,100.0,-0.2108484686081427,4.852400000000001,-5.063248468608144
19,64.0,1,20.0,0.9600000000000023,6,2,5.057200000000001,0.0030399999999999976,-0.06115999999999999,0.25251999999999963,31.96,25.93,0,17.96,1576.0,29.0,-1.2320000000000004,0.02,-1.0908,-0.060399999999999975,-2.112000000000001,-23.36800000000001,56.32959999999999,0,1,1,100.0,-0.17417916971977013,5.057200000000001,-5.231379169719771
19,65.0,1,20.0,0.7,6,2,5.19,0.0024000000000000002,-0.0676,0.192,31.7,25.93,0,17.7,1576.0,29.0,-1.387,0.023,-1.081,-0.06,-2.1959999999999997,-24.196,54.062,0,1,1,100.0,-0.1375098708313976,5.19,-5.327509870831398
19,66.0,1,20.0,0.3799999999999983,6,2,5.3180000000000005,0.0017599999999999966,-0.07464000000000004,0.1343999999999997,31.38,25.93,0,17.38,1576.0,29.0,-1.543800000000001,0.026200000000000015,-1.0714,-0.06,-2.2664000000000004,-24.938400000000005,51.83479999999999,0,1,1,100.0,-0.10084057194302469,5.3180000000000005,-5.418840571943025
19,67.0,1,20.0,0.05999999999999938,6,2,5.446,0.0011199999999999988,-0.08168000000000002,0.07679999999999991,31.06,25.93,0,17.06,1576.0,29.0,-1.7006000000000003,0.029400000000000006,-1.0618,-0.06,-2.3368,-25.6808,49.60759999999999,0,1,1,100.0,-0.06417127305465213,5.446,-5.5101712730546515
19,68.0,1,20.0,0.47999999999999543,1,5,6.1952000000000025,0.00047999999999999546,-0.06080000000000052,-0.027320000000000073,31.0,25.8936,0,18.520000000000003,1576.0,30.0,-2.8864000000000036,0.05040000000000009,-1.0195999999999998,-0.05,-2.270799999999999,-25.833199999999994,34.967999999999954,0,1,1,100.0,-0.027501974166279256,6.1952000000000025,-6.222701974166282
19,69.0,1,20.0,0.0,1,5,6.484000000000001,-0.003040000000000043,-0.3556800000000034,0.10156000000000193,31.0,25.852,0,19.0,1576.0,30.0,-3.335200000000001,0.06080000000000001,-1.0076,-0.05,-2.1331999999999995,-24.9108,29.291999999999987,0,1,1,100.0,0.17417916971977274,6.484000000000001,-6.309820830280228
19,70.0,1,20.0,0.0,1,5,6.66,-0.0152,-1.3144,0.6477999999999999,31.0,25.82,0,19.0,1576.0,30.0,-3.556,0.064,-0.998,-0.05,-1.986,-23.794,25.98,0,1,1,100.0,0.8708958485988513,6.66,-5.7891041514011485
19,71.0,1,20.0,0.0,1,5,6.836000000000001,-0.027360000000000065,-2.273120000000005,1.1940400000000029,31.0,25.788,0,19.0,1576.0,30.0,-3.776800000000001,0.06720000000000002,-0.9884,-0.05,-1.838799999999999,-22.677199999999996,22.66799999999998,0,1,1,100.0,1.567612527477936,6.836000000000001,-5.268387472522065
19,72.0,1,20.0,0.0,1,5,7.6048,-0.08480000000000004,-2.5773599999999997,2.674440000000001,31.0,25.6812,0,19.0,1576.0,30.0,-4.3088,0.07,-0.9683999999999999,-0.05,-0.9047999999999989,-15.818399999999993,9.08559999999999,0,1,1,100.0,4.858682102709383,7.6048,-2.746117897290617
19,73.0,1,20.0,0.0,1,5,7.963200000000002,-0.10720000000000017,-2.300239999999998,3.2299600000000037,31.0,25.610799999999998,0,19.0,1576.0,30.0,-4.219199999999999,0.07,-0.9555999999999999,-0.05,-0.3031999999999957,-11.645599999999972,3.210399999999959,0,1,1,100.0,6.142107563802435,7.963200000000002,-1.821092436197567
19,74.0,1,20.0,0.0,1,5,8.318000000000001,-0.12636000000000006,-1.9143999999999983,3.731840000000002,31.0,25.540399999999998,0,19.0,1576.0,30.0,-3.920799999999998,0.06639999999999999,-0.9463999999999999,-0.05360000000000002,0.3596000000000026,-7.389999999999985,-2.315600000000019,0,1,1,100.0,7.239894699273085,8.318000000000001,-1.0781053007269161
19,75.0,1,20.0,0.0,1,6,8.67,-0.143,-1.444,4.192,31.0,25.47,0,19.0,1576.0,30.0,-3.46,0.06,-0.94,-0.06,1.07,-3.07,-7.57,0,1,1,100.0,8.193296470370772,8.67,-0.47670352962922813
19,76.0,1,20.0,0.0,1,6,8.996400000000001,-0.15580000000000008,-1.277599999999999,4.578560000000002,31.0,25.425199999999997,0,19.0,1576.0,30.0,-2.6343999999999954,0.04719999999999993,-0.94,-0.07280000000000007,1.8252000000000042,0.7892000000000206,-12.146000000000026,0,1,1,100.0,8.92668244813823,8.996400000000001,-0.0697175518617712
19,77.0,1,20.0,0.0,1,6,9.243,-0.16510000000000002,-1.1338799999999998,4.85634,31.0,25.3902,0,19.0,1576.0,30.0,-1.922199999999999,0.035799999999999985,-0.9386,-0.0814,2.3984000000000005,3.6054000000000026,-15.569800000000004,0,1,1,100.0,9.459533197609893,9.243,0.21653319760989298
19,78.0,1,20.0,0.0,1,6,9.387,-0.16990000000000002,-1.0193199999999991,4.9942600000000015,31.0,25.3678,0,19.0,1576.0,30.0,-1.355799999999996,0.02619999999999993,-0.9354,-0.08460000000000002,2.7376000000000023,5.08060000000001,-17.512200000000014,0,1,1,100.0,9.734552939272689,9.387,0.3475529392726884
19,79.0,1,20.0,0.0,1,6,9.531,-0.17470000000000002,-0.9047599999999996,5.132180000000001,31.0,25.345399999999998,0,19.0,1576.0,30.0,-0.789399999999998,0.016599999999999965,-0.9322,-0.0878,3.0768000000000013,6.555800000000005,-19.454600000000006,0,1,1,100.0,10.009572680935483,9.531,0.478572680935482
19,80.0,1,20.0,0.0,1,6,10.07,-0.1904,-0.6064,5.7652,31.0,25.216,0,19.0,1576.0,30.0,2.16,-0.036,-0.928,-0.114,4.082,10.76,-26.686,0,1,1,100.0,10.909116419290875,10.07,0.8391164192908747
19,81.0,1,20.0,0.0,1,6,10.262,-0.19488,-0.4956800000000004,6.085839999999999,31.0,25.1712,0,19.0,1576.0,30.0,3.631999999999995,-0.05519999999999993,-0.9216000000000001,-0.12679999999999997,4.280399999999999,11.623999999999997,-29.32919999999999,0,1,1,100.0,11.165801511509484,10.262,0.9038015115094833
19,82.0,1,20.0,0.0,1,6,10.410800000000002,-0.19792000000000004,-0.37343999999999866,6.362800000000003,31.0,25.1408,0,19.0,1576.0,30.0,5.152000000000017,-0.07920000000000027,-0.92,-0.1348000000000001,4.195599999999998,11.864,-31.53560000000002,0,1,1,100.0,11.339980681229255,10.410800000000002,0.9291806812292531
19,83.0,1,20.0,0.0,1,6,10.5344,-0.20036000000000004,-0.25059999999999927,6.604560000000001,31.0,25.116400000000002,0,19.0,1576.0,30.0,6.689200000000011,-0.10480000000000018,-0.9188,-0.1424000000000001,3.9287999999999954,11.785599999999997,-33.49800000000001,0,1,1,100.0,11.479782383241176,10.5344,0.9453823832411761
19,84.0,1,20.0,0.0,1,6,10.6112,-0.20228000000000002,-0.14179999999999962,6.756880000000001,31.0,25.0972,0,19.0,1576.0,30.0,8.231600000000006,-0.1304000000000001,-0.9124,-0.15520000000000006,3.2823999999999978,11.228799999999998,-35.034000000000006,0,1,1,100.0,11.589790279906293,10.6112,0.9785902799062924
19,85.0,1,20.0,0.0,1,6,10.652000000000001,-0.2034,-0.0378,6.9252,31.0,25.062,0,19.0,1576.0,30.0,9.758000000000001,-0.156,-0.91,-0.164,2.392,10.416,-36.25,0,1,1,100.0,11.653961552960943,10.652000000000001,1.0019615529609425
19,86.0,1,20.0,0.0,1,6,10.668,-0.20392,0.0710399999999992,7.115839999999999,31.0,25.0156,0,19.0,1576.0,30.0,11.267999999999995,-0.1815999999999999,-0.91,-0.17,1.3456000000000041,9.448800000000004,-37.2368,0,1,1,100.0,11.683755358307748,10.668,1.0157553583077483
19,87.0,1,20.0,0.0,1,6,10.636,-0.20264,0.2956800000000024,7.4972800000000035,31.0,24.9452,0,19.0,1576.0,30.0,12.676000000000016,-0.20720000000000027,-0.91,-0.17,0.15519999999998724,8.46959999999999,-37.665600000000005,0,1,1,100.0,11.610416760531,10.636,0.9744167605310015
19,88.0,1,20.0,0.0,1,6,10.5976,-0.19992,0.4408000000000004,7.860640000000002,31.0,24.854,0,19.0,1576.0,30.0,13.685600000000004,-0.22480000000000008,-0.91,-0.1684,-0.6976000000000037,7.821599999999998,-37.7712,0,1,1,100.0,11.454572240255418,10.5976,0.8569722402554181
19,89.0,1,20.0,0.0,1,6,10.5528,-0.19576,0.5064000000000002,8.20592,31.0,24.741999999999997,0,19.0,1576.0,30.0,14.296800000000003,-0.23440000000000003,-0.91,-0.16519999999999999,-1.2128000000000017,7.5047999999999995,-37.5536,0,1,1,100.0,11.216221797480994,10.5528,0.6634217974809946
19,90.0,1,20.0,0.0,3,7,10.508000000000001,-0.1916,0.572,8.5512,31.0,24.63,0,19.0,1576.0,30.0,14.908,-0.244,-0.91,-0.162,-1.7279999999999998,7.188000000000001,-37.336000000000006,0,1,1,100.0,10.977871354706572,10.508000000000001,0.46987135470657115
19,91.0,1,20.0,0.0,3,7,10.432,-0.18732000000000001,0.6386799999999997,8.864439999999998,31.0,24.5264,0,19.0,1576.0,30.0,15.649999999999995,-0.25719999999999993,-0.9148,-0.15760000000000002,-2.3019999999999974,6.9564,-36.684000000000005,0,1,1,100.0,10.732645418390582,10.432,0.300645418390582
19,92.0,1,20.0,0.0,3,7,10.303999999999998,-0.18283999999999995,0.7071600000000007,9.124280000000002,31.0,24.4368,0,19.0,1576.0,30.0,16.61000000000001,-0.2764000000000002,-0.9276000000000002,-0.15119999999999992,-2.9740000000000073,6.866799999999999,-35.307999999999986,0,1,1,100.0,10.475960326171968,10.303999999999998,0.17196032617196977
19,93.0,1,20.0,0.0,3,7,9.838399999999998,-0.16727999999999996,0.7510400000000005,9.50268,31.0,24.39,0,19.0,1576.0,30.0,18.188400000000005,-0.3204000000000001,-0.9604,-0.1095999999999999,-3.5756,7.934400000000005,-29.04079999999998,0,1,1,100.0,9.584437996948408,9.838399999999998,-0.25396200305159056
19,94.0,1,20.0,0.16000000000000228,3,7,9.623999999999999,-0.16088,0.7143999999999988,9.309879999999998,31.0,24.4508,0,19.160000000000004,1576.0,30.0,18.567600000000002,-0.33160000000000006,-0.9732000000000001,-0.09679999999999996,-3.5451999999999995,8.548800000000002,-25.899999999999988,0,1,1,100.0,9.217745008064684,9.623999999999999,-0.4062549919353149
19,95.0,1,20.0,0.8,3,7,9.4,-0.1564,0.372,8.4734,31.0,24.694,0,19.8,1576.0,30.0,18.798000000000002,-0.338,-0.986,-0.084,-3.366,9.144,-22.380000000000003,0,1,1,100.0,8.961059915846075,9.4,-0.43894008415392527
19,96.0,1,20.0,0.5599999999999908,3,7,9.158399999999997,-0.15279999999999996,0.2214399999999991,7.698079999999989,31.44000000000001,24.910800000000002,0,19.55999999999999,1576.0,30.0,18.927200000000003,-0.3444000000000001,-0.9988000000000001,-0.07119999999999982,-3.1251999999999964,9.585200000000006,-18.666399999999946,0,1,1,100.0,8.754795109598977,9.158399999999997,-0.4036048904010201
19,97.0,1,20.0,0.0,3,7,8.908799999999998,-0.14983999999999997,0.1554399999999991,6.920799999999989,32.0,25.1124,0,19.0,1576.0,30.0,18.9984,-0.35,-1.0116,-0.05839999999999986,-2.8547999999999973,9.914800000000001,-14.859199999999959,0,1,1,100.0,8.585199602240253,8.908799999999998,-0.32360039775974414
19,98.0,1,20.0,0.0,3,7,8.659199999999998,-0.14856,0.07095999999999941,5.935199999999993,32.0,25.291600000000003,0,19.0,1576.0,30.0,18.9856,-0.35,-1.0244000000000002,-0.04559999999999991,-2.573199999999998,9.9532,-11.012799999999972,0,1,1,100.0,8.51186100446351,8.659199999999998,-0.14733899553648833
19,99.0,1,20.0,0.0,3,7,8.4096,-0.14692,0.09952000000000041,5.063359999999997,32.0,25.46,0,19.0,1576.0,30.0,18.9332,-0.3536,-1.0336,-0.036399999999999974,-2.3275999999999994,9.7792,-7.281599999999988,0,1,1,100.0,8.417895926062055,8.4096,0.00829592606205587
19,100.0,1,20.0,0.0,3,7,8.16,-0.145,0.216,4.28,32.0,25.62,0,19.0,1576.0,30.0,18.85,-0.36,-1.04,-0.03,-2.11,9.44,-3.64,0,1,1,100.0,8.307888029396937,8.16,0.14788802939693646
20,0.0,1,20.0,0.0,0,1,7.79,-0.136,0.699,3.047,32.0,25.79,0,19.0,1576.0,30.0,18.68,-0.36,-1.05,-0.02,-1.9,8.38,1.27,0,1,1,100.0,7.792226013779197,7.79,0.002226013779196734
20,1.0,1,20.0,0.0,0,1,7.688,-0.1306,0.9561,2.6594,32.0,25.79,0,19.0,1576.0,30.0,18.635,-0.357,-1.053,-0.02,-1.882,7.894,2.368,0,1,1,100.0,7.482828804408551,7.688,-0.2051711955914488
20,2.0,1,20.0,0.0,0,1,7.586,-0.1252,1.2132,2.2718,32.0,25.79,0,19.0,1576.0,30.0,18.59,-0.354,-1.056,-0.02,-1.864,7.408,3.466,0,1,1,100.0,7.173431595037907,7.586,-0.41256840496209346
20,3.0,1,20.0,0.0,0,1,7.484,-0.11979999999999999,1.4703000000000002,1.8841999999999999,32.0,25.79,0,19.0,1576.0,30.0,18.545,-0.351,-1.0590000000000002,-0.02,-1.846,6.922,4.564,0,1,1,100.0,6.864034385667262,7.484,-0.6199656143327381
20,4.0,1,20.0,0.0,0,1,7.050000000000001,-0.118,1.556,1.755,32.0,25.79,0,47.0,1576.0,30.0,18.246000000000002,-0.346,-1.056,-0.02,-2.03,3.7199999999999998,7.2700000000000005,0,1,1,100.0,6.7609019825437136,7.050000000000001,-0.28909801745628716
20,5.0,1,20.0,0.0,0,1,6.9,-0.118,1.556,1.755,32.0,25.79,0,59.0,1576.0,30.0,18.09,-0.34,-1.05,-0.02,-2.15,2.34,7.69,0,1,1,100.0,6.7609019825437136,6.9,-0.1390980174562868
20,6.0,1,20.0,0.0,0,1,6.837000000000001,-0.10239999999999999,5.6498,1.2285,32.0,25.843999999999998,0,41.9,1576.0,30.0,17.982,-0.34,-1.05,-0.02,-2.222,1.6949999999999998,7.573,0,1,1,100.0,5.867087822139629,6.837000000000001,-0.9699121778603716
20,7.0,1,20.0,0.0,0,1,6.774,-0.0868,9.7436,0.702,32.0,25.898,0,24.799999999999997,1576.0,30.0,17.874,-0.34,-1.05,-0.02,-2.294,1.0499999999999998,7.456,0,1,1,100.0,4.973273661735546,6.774,-1.8007263382644538
20,8.0,1,20.0,0.0,0,1,6.711,-0.0712,13.8374,0.1755,32.0,25.951999999999998,0,7.699999999999998,1576.0,30.0,17.766000000000002,-0.34,-1.05,-0.02,-2.366,0.4049999999999999,7.3389999999999995,0,1,1,100.0,4.079459501331462,6.711,-2.6315404986685387
20,9.0,1,20.0,0.0,0,1,6.514,-0.0536,0.4268,-0.0,32.0,25.93,0,2.0,1576.0,30.0,17.038,-0.316,-1.04,-0.024,-2.798,-2.23,5.2,0,1,1,100.0,3.0710537819012127,6.514,-3.4429462180987875
20,10.0,1,20.0,0.0,0,1,6.46,-0.05,0.488,-0.0,32.0,25.93,0,2.0,1576.0,30.0,16.69,-0.31,-1.04,-0.03,-2.99,-3.1,4.0,0,1,1,100.0,2.8647889756541165,6.46,-3.5952110243458835
20,11.0,1,20.0,0.0,0,1,6.43,-0.0464,0.5048,-0.0,32.0,25.93,0,2.0,1576.0,30.0,16.27,-0.304,-1.04,-0.03,-3.194,-3.718,2.536,0,1,1,100.0,2.6585241694070194,6.43,-3.7714758305929803
20,12.0,1,20.0,0.1,0,1,6.4110000000000005,-0.0431,0.5226,-0.0,32.0,25.93,0,2.1,1576.0,30.0,15.91,-0.298,-1.0390000000000001,-0.03,-3.362,-4.194,1.292,0,1,1,100.0,2.469448097013848,6.4110000000000005,-3.9415519029861525
20,13.0,1,20.0,0.4,0,1,6.414,-0.0404,0.5424,-0.0,32.0,25.93,0,2.4,1576.0,30.0,15.67,-0.292,-1.036,-0.03,-3.458,-4.386,0.488,0,1,1,100.0,2.314749492328526,6.414,-4.099250507671474
20,14.0,1,20.0,0.7000000000000001,0,1,6.417,-0.037700000000000004,0.5622,-0.0,32.0,25.93,0,2.7,1576.0,30.0,15.43,-0.28600000000000003,-1.033,-0.03,-3.554,-4.577999999999999,-0.31600000000000006,0,1,1,100.0,2.160050887643204,6.417,-4.256949112356796
20,15.0,1,20.0,1.0,0,1,6.42,-0.035,0.582,-0.0,32.0,25.93,0,3.0,1576.0,30.0,15.19,-0.28,-1.03,-0.03,-3.65,-4.77,-1.12,0,1,1,100.0,2.0053522829578814,6.42,-4.414647717042119
20,16.0,1,20.0,1.0,0,1,6.45,-0.0308,0.4686,-0.0,32.0,25.93,0,3.0,1576.0,30.0,14.649999999999999,-0.268,-1.03,-0.036,-3.794,-4.95,-2.764,0,1,1,100.0,1.7647100090029355,6.45,-4.685289990997065
20,17.0,1,20.0,1.0,0,1,6.56,-0.0202,0.4974,-0.0,32.0,25.93,0,3.0,1576.0,30.0,13.132,-0.236,-1.028,-0.05,-4.018,-5.046,-7.004,0,1,1,100.0,1.157374746164263,6.56,-5.402625253835737
20,18.0,1,20.0,1.0,0,1,6.62,-0.014799999999999999,0.6786,-0.0,32.0,25.93,0,3.0,1576.0,30.0,12.538,-0.224,-1.022,-0.05,-4.012,-4.914,-8.486,0,1,1,100.0,0.8479775367936183,6.62,-5.7720224632063815
20,19.0,1,20.0,1.0,0,1,6.662,-0.011,0.6882,-0.0,32.0,25.93,0,3.0,1576.0,30.0,12.142,-0.218,-1.02,-0.052000000000000005,-3.984,-4.798,-9.436,0,1,1,100.0,0.6302535746439055,6.662,-6.031746425356094
20,20.0,1,20.0,1.0,0,1,6.695,-0.008,0.612,-0.0,32.0,25.93,0,3.0,1576.0,30.0,11.845,-0.215,-1.02,-0.055,-3.945,-4.6899999999999995,-10.12,0,1,1,100.0,0.4583662361046586,6.695,-6.236633763895342
20,21.0,1,20.0,1.0,0,1,6.728,-0.005000000000000001,0.5358,-0.0,32.0,25.93,0,3.0,1576.0,30.0,11.548,-0.212,-1.02,-0.057999999999999996,-3.9059999999999997,-4.582,-10.804,0,1,1,100.0,0.28647889756541167,6.728,-6.441521102434588
20,22.0,1,20.0,1.0,0,1,6.88,0.0060999999999999995,0.6151,-0.0,32.0,25.93,0,3.0,1576.0,30.0,10.299000000000001,-0.188,-1.02,-0.061,-3.622,-4.008,-13.539,0,1,1,100.0,-0.34950425502980215,6.88,-7.229504255029802
20,23.0,1,20.0,1.0,0,1,6.91,0.009399999999999999,0.6784,-0.0,32.0,25.93,0,3.0,1576.0,30.0,10.026,-0.182,-1.02,-0.064,-3.538,-3.852,-14.106,0,1,1,100.0,-0.5385803274229738,6.91,-7.448580327422974
20,24.0,1,20.0,1.0,0,1,6.9399999999999995,0.0127,0.7417,-0.0,32.0,25.93,0,3.0,1576.0,30.0,9.753,-0.17600000000000002,-1.02,-0.067,-3.454,-3.6959999999999997,-14.673,0,1,1,100.0,-0.7276563998161455,6.9399999999999995,-7.667656399816145
20,25.0,1,20.0,1.0,0,1,6.97,0.016,0.805,-0.0,32.0,25.93,0,3.0,1576.0,30.0,9.48,-0.17,-1.02,-0.07,-3.37,-3.54,-15.24,0,1,1,100.0,-0.9167324722093172,6.97,-7.886732472209317
20,26.0,1,20.0,1.0,0,1,7.03,0.021400000000000002,0.7348,-0.0,32.0,25.93,0,3.0,1576.0,30.0,8.958,-0.158,-1.02,-0.07,-3.184,-3.228,-16.308,0,1,1,100.0,-1.2261296815799618,7.03,-8.256129681579962
20,27.0,1,20.0,1.0,0,1,7.0840000000000005,0.027200000000000002,0.6878,-0.0,32.0,25.93,0,3.0,1576.0,30.0,8.443999999999999,-0.148,-1.02,-0.07,-2.996,-2.912,-17.354,0,1,1,100.0,-1.5584452027558393,7.0840000000000005,-8.64244520275584
20,28.0,1,20.0,1.0,0,1,7.1259999999999994,0.0338,0.6872,-0.0,32.0,25.93,0,3.0,1576.0,30.0,7.946,-0.14200000000000002,-1.02,-0.07,-2.8040000000000003,-2.588,-18.356,0,1,1,100.0,-1.9365973475421823,7.1259999999999994,-9.062597347542182
20,29.0,1,20.0,0.6,0,1,7.198,0.052199999999999996,1.1548,0.0892,32.0,25.918,0,9.0,1576.0,30.0,6.67,-0.11599999999999999,-1.02,-0.08,-2.284,-1.708,-20.956,0,1,1,100.0,-2.990839690582897,7.198,-10.188839690582897
20,30.0,1,20.0,0.0,6,2,7.21,0.054,1.381,0.223,32.0,25.9,0,18.0,1576.0,30.0,6.19,-0.11,-1.02,-0.08,-2.08,-1.36,-21.91,0,1,1,100.0,-3.093972093706445,7.21,-10.303972093706445
20,31.0,1,20.0,0.0,6,2,7.198,0.0498,0.277,1.8694000000000002,32.0,25.791999999999998,0,18.0,1576.0,30.0,5.686,-0.10400000000000001,-1.02,-0.08,-1.852,-0.892,-22.648,0,1,1,100.0,-2.8533298197514996,7.198,-10.0513298197515
20,32.0,1,20.0,0.1,6,2,7.1850000000000005,0.0462,-0.4526,3.0127,32.0,25.717,0,18.1,1576.0,30.0,5.2589999999999995,-0.098,-1.02,-0.08,-1.656,-0.484,-23.198,0,1,1,100.0,-2.6470650135044034,7.1850000000000005,-9.832065013504405
20,33.0,1,20.0,0.4,6,2,7.17,0.0438,-0.4334,3.1498,32.0,25.708,0,18.4,1576.0,30.0,4.986,-0.092,-1.02,-0.08,-1.524,-0.19599999999999995,-23.372,0,1,1,100.0,-2.5095551426730056,7.17,-9.679555142673006
20,34.0,1,20.0,0.7000000000000001,6,2,7.155,0.0414,-0.4142,3.2869,32.0,25.699,0,18.7,1576.0,30.0,4.713,-0.08600000000000001,-1.02,-0.08,-1.392,0.09200000000000005,-23.546,0,1,1,100.0,-2.3720452718416083,7.155,-9.527045271841608
20,35.0,1,20.0,0.0,6,2,7.05,0.032,-0.371,3.117,32.0,25.69,0,18.0,1576.0,30.0,3.46,-0.06,-1.02,-0.09,-0.7,1.37,-23.33,0,1,1,100.0,-1.8334649444186344,7.05,-8.883464944418634
20,36.0,1,20.0,0.6000000000000001,6,2,6.966,0.0266,-0.5252,2.5266,32.0,25.774,0,18.6,1576.0,30.0,2.86,-0.048,-1.02,-0.09,-0.262,1.8980000000000001,-22.381999999999998,0,1,1,100.0,-1.5240677350479896,6.966,-8.49006773504799
20,37.0,1,20.0,1.0,6,2,6.876,0.020999999999999998,-0.6204,1.938,32.0,25.843999999999998,0,19.0,1576.0,30.0,2.264,-0.038,-1.022,-0.09,0.218,2.374,-21.182,0,1,1,100.0,-1.2032113697747286,6.876,-8.079211369774729
20,38.0,1,20.0,1.0,6,2,6.774,0.015,-0.5976,1.353,32.0,25.886,0,19.0,1576.0,30.0,1.676,-0.032,-1.028,-0.09,0.782,2.746,-19.478,0,1,1,100.0,-0.8594366926962348,6.774,-7.633436692696235
20,39.0,1,20.0,1.0,6,2,6.713333333333334,0.0118,-0.5716,1.0018666666666667,32.0,25.9,0,19.0,1576.0,30.0,1.3586666666666667,-0.027333333333333334,-1.03,-0.09133333333333334,1.1193333333333333,2.9153333333333333,-18.366,0,1,1,100.0,-0.6760901982543714,6.713333333333334,-7.389423531587705
20,40.0,1,20.0,1.0,6,2,6.673333333333334,0.01,-0.544,0.7676666666666666,32.0,25.9,0,19.0,1576.0,30.0,1.1766666666666667,-0.023333333333333334,-1.03,-0.09333333333333334,1.3433333333333333,2.9833333333333334,-17.55,0,1,1,100.0,-0.5729577951308232,6.673333333333334,-7.246291128464157
20,41.0,1,20.0,1.0,6,2,6.633333333333334,0.008199999999999999,-0.5164,0.5334666666666666,32.0,25.9,0,19.0,1576.0,30.0,0.9946666666666666,-0.019333333333333334,-1.03,-0.09533333333333334,1.5673333333333332,3.0513333333333335,-16.734,0,1,1,100.0,-0.46982539200727497,6.633333333333334,-7.1031587253406085
20,42.0,1,20.0,1.0,6,2,6.593333333333334,0.0064,-0.4888,0.2992666666666667,32.0,25.9,0,19.0,1576.0,30.0,0.8126666666666666,-0.015333333333333334,-1.03,-0.09733333333333334,1.7913333333333332,3.1193333333333335,-15.918,0,1,1,100.0,-0.36669298888372687,6.593333333333334,-6.96002632221706
20,43.0,1,20.0,1.0,6,2,6.553333333333334,0.0046,-0.4612,0.06506666666666669,32.0,25.9,0,19.0,1576.0,30.0,0.6306666666666666,-0.011333333333333336,-1.03,-0.09933333333333334,2.0153333333333334,3.187333333333333,-15.102,0,1,1,100.0,-0.26356058576017866,6.553333333333334,-6.816893919093513
20,44.0,1,20.0,1.0,6,2,5.928,-0.010199999999999999,-0.212,-1.4298,32.0,25.9,0,19.0,1576.0,30.0,-1.064,0.024,-1.044,-0.1,5.138,2.47,-1.108,0,1,1,100.0,0.5844169510334396,5.928,-5.34358304896656
20,45.0,1,20.0,1.0,6,2,5.76,-0.012,-0.002,-1.434,32.0,25.9,0,19.0,1576.0,30.0,-1.37,0.03,-1.05,-0.1,5.87,1.99,2.78,0,1,1,100.0,0.6875493541569879,5.76,-5.072450645843012
20,46.0,1,20.0,1.0,6,2,5.585999999999999,-0.0114,0.0028000000000000004,-1.3301999999999998,32.0,25.9,0,19.0,1576.0,30.0,-1.598,0.03,-1.056,-0.094,6.494,1.3719999999999999,6.854,0,1,1,100.0,0.6531718864491385,5.585999999999999,-4.932828113550861
20,47.0,1,20.0,1.0,6,2,5.412,-0.010799999999999999,0.0318,-1.2218,32.0,25.9,0,19.0,1576.0,30.0,-1.806,0.032,-1.062,-0.09,7.066,0.73,10.97,0,1,1,100.0,0.618794418741289,5.412,-4.793205581258711
20,48.0,1,20.0,1.0,6,2,5.2379999999999995,-0.0102,0.1092,-1.1041999999999998,32.0,25.9,0,19.0,1576.0,30.0,-1.9739999999999998,0.038,-1.068,-0.09,7.534000000000001,0.040000000000000036,15.17,0,1,1,100.0,0.5844169510334397,5.2379999999999995,-4.65358304896656
20,49.0,1,20.0,1.0,6,2,5.072,-0.0088,0.1382,-0.9198,32.0,25.9,0,19.0,1576.0,30.0,-2.094,0.04,-1.074,-0.09,7.87,-0.6659999999999999,19.418,0,1,1,100.0,0.5042028597151245,5.072,-4.567797140284876
20,50.0,1,20.0,1.0,6,2,4.91,-0.007,0.143,-0.702,32.0,25.9,0,19.0,1576.0,30.0,-2.19,0.04,-1.08,-0.09,8.14,-1.38,23.69,0,1,1,100.0,0.40107045659157625,4.91,-4.508929543408424
20,51.0,1,20.0,1.0,6,2,4.76,-0.0058000000000000005,0.1634,-0.44279999999999997,32.0,25.918,0,19.0,1576.0,30.0,-2.208,0.04,-1.092,-0.09,8.200000000000001,-2.094,28.004,0,1,1,100.0,0.3323155211758775,4.76,-4.427684478824123
20,52.0,1,20.0,1.0,6,2,4.638,-0.0047,0.18689999999999998,-0.2268,32.0,25.93,0,19.0,1576.0,30.0,-2.21,0.04,-1.101,-0.089,8.214,-2.694,31.595,0,1,1,100.0,0.26929016371148695,4.638,-4.368709836288513
20,53.0,1,20.0,1.0,6,2,4.572,-0.0038,0.21660000000000001,-0.09720000000000001,32.0,25.93,0,19.0,1576.0,30.0,-2.18,0.04,-1.104,-0.086,8.136000000000001,-3.066,33.74,0,1,1,100.0,0.21772396214971282,4.572,-4.354276037850287
20,54.0,1,20.0,1.0,6,2,4.506,-0.0029,0.24630000000000002,0.0324,32.0,25.93,0,19.0,1576.0,30.0,-2.1500000000000004,0.04,-1.1070000000000002,-0.083,8.058,-3.438,35.885,0,1,1,100.0,0.1661577605879387,4.506,-4.339842239412062
20,55.0,1,20.0,1.0,6,2,4.44,-0.002,0.276,0.162,32.0,25.93,0,19.0,1576.0,30.0,-2.12,0.04,-1.11,-0.08,7.98,-3.81,38.03,0,1,1,100.0,0.11459155902616465,4.44,-4.325408440973836
20,56.0,1,20.0,1.0,6,2,4.344,-0.00019999999999999987,0.20820000000000002,0.3654,32.0,25.93,0,19.0,1576.0,30.0,-1.976,0.04,-1.1219999999999999,-0.08,7.62,-4.62,42.146,0,1,1,100.0,0.011459155902616458,4.344,-4.332540844097384
20,57.0,1,20.0,1.0,6,2,4.152,0.002,0.0234,0.4664,32.0,25.93,0,19.0,1576.0,30.0,-1.504,0.028,-1.14,-0.08,6.308,-6.844,51.968,0,1,1,100.0,-0.11459155902616465,4.152,-4.266591559026165
20,58.0,1,20.0,1.0,6,2,4.128,0.002,-0.0504,0.3476,32.0,25.93,0,19.0,1576.0,30.0,-1.306,0.022,-1.14,-0.08,5.702,-7.636,54.872,0,1,1,100.0,-0.11459155902616465,4.128,-4.242591559026165
20,59.0,1,20.0,1.0,6,2,4.126,0.002,-0.0542,0.2704,32.0,25.924,0,19.0,1576.0,30.0,-1.186,0.02,-1.14,-0.08,5.294,-8.122,56.472,0,1,1,100.0,-0.11459155902616465,4.126,-4.240591559026165
20,60.0,1,20.0,1.0,6,2,4.135,0.002,-0.023,0.214,32.0,25.915,0,19.0,1576.0,30.0,-1.105,0.02,-1.14,-0.08,4.985,-8.455,57.42,0,1,1,100.0,-0.11459155902616465,4.135,-4.249591559026165
20,61.0,1,20.0,1.0,6,2,4.144,0.002,0.008199999999999999,0.1576,32.0,25.906,0,19.0,1576.0,30.0,-1.024,0.02,-1.14,-0.08,4.676,-8.788,58.368,0,1,1,100.0,-0.11459155902616465,4.144,-4.258591559026165
20,62.0,1,20.0,0.8,6,2,4.288,-0.0002,-0.04,-0.0424,32.0,25.93,0,18.8,1576.0,30.0,-0.76,0.018000000000000002,-1.126,-0.07,3.344,-9.904,59.98,0,1,1,100.0,0.011459155902616465,4.288,-4.276540844097384
20,63.0,1,20.0,0.19999999999999996,6,2,4.402,-0.0008,-0.076,-0.1756,32.0,25.93,0,18.2,1576.0,30.0,-0.7000000000000001,0.012,-1.114,-0.07,2.846,-10.186,59.38,0,1,1,100.0,0.04583662361046586,4.402,-4.356163376389534
20,64.0,1,20.0,0.0,6,2,4.5520000000000005,-0.0014,-0.0768,-0.26080000000000003,32.0,25.918,0,18.0,1576.0,30.0,-0.68,0.01,-1.102,-0.07,2.42,-10.34,57.904,0,1,1,100.0,0.08021409131831525,4.5520000000000005,-4.471785908681685
20,65.0,1,20.0,0.0,6,2,4.72,-0.002,-0.06,-0.322,32.0,25.9,0,18.0,1576.0,30.0,-0.68,0.01,-1.09,-0.07,2.03,-10.43,55.99,0,1,1,100.0,0.11459155902616465,4.72,-4.605408440973835
20,66.0,1,20.0,0.30000000000000004,6,2,4.825,-0.0023,-0.07680000000000001,-0.3613,32.0,25.909,0,18.3,1576.0,30.0,-0.6950000000000001,0.01,-1.081,-0.07,1.892,-10.382,54.409,0,1,1,100.0,0.13178029288008933,4.825,-4.693219707119911
20,67.0,1,20.0,0.6000000000000001,6,2,4.93,-0.0026,-0.0936,-0.4006,32.0,25.918,0,18.6,1576.0,30.0,-0.71,0.01,-1.072,-0.07,1.754,-10.334,52.828,0,1,1,100.0,0.14896902673401402,4.93,-4.7810309732659855
20,68.0,1,20.0,0.9,6,2,5.035,-0.0029000000000000002,-0.1104,-0.4399,32.0,25.927,0,18.9,1576.0,30.0,-0.725,0.01,-1.0630000000000002,-0.07,1.616,-10.286,51.247,0,1,1,100.0,0.16615776058793874,5.035,-4.868842239412062
20,69.0,1,20.0,1.0,6,2,5.682,-0.004,0.0586,-0.464,32.0,25.918,0,19.0,1516.8,30.4,-0.802,0.01,-1.014,-0.07,1.202,-9.442,40.18,0,1,1,100.0,0.2291831180523293,5.682,-5.452816881947671
20,70.0,1,20.0,1.0,1,5,5.97,-0.004,0.001,-0.479,32.0,25.9,0,19.0,1428.0,31.0,-0.82,0.01,-0.99,-0.07,1.1,-8.92,35.02,0,1,1,100.0,0.2291831180523293,5.97,-5.74081688194767
20,71.0,1,20.0,0.39999999999999997,1,5,6.288,-0.004,-0.0758,-0.45139999999999997,32.0,25.857999999999997,0,19.0,1428.0,31.0,-0.754,0.01,-0.972,-0.07,1.052,-7.966,29.314000000000004,0,1,1,100.0,0.2291831180523293,6.288,-6.058816881947671
20,72.0,1,20.0,0.0,1,5,6.612,-0.011799999999999998,-0.7555999999999999,-0.0826,32.0,25.83,0,19.0,1428.0,31.0,-0.638,0.01,-0.954,-0.07,1.024,-6.876,23.582,0,1,1,100.0,0.6760901982543713,6.612,-5.935909801745629
20,73.0,1,20.0,0.0,1,5,6.9479999999999995,-0.035199999999999995,-2.6414,0.9685999999999999,32.0,25.83,0,19.0,1428.0,31.0,-0.422,0.01,-0.936,-0.07,1.036,-5.513999999999999,17.798000000000002,0,1,1,100.0,2.0168114388604974,6.9479999999999995,-4.931188561139502
20,74.0,1,20.0,0.0,1,5,7.292,-0.061399999999999996,-3.0184,1.7138,32.0,25.774,0,19.0,1428.0,31.0,-0.07400000000000001,0.002,-0.918,-0.07400000000000001,1.092,-4.0,12.161999999999999,0,1,1,100.0,3.5179608621032545,7.292,-3.7740391378967453
20,75.0,1,20.0,0.0,1,5,7.64,-0.089,-2.641,2.306,32.0,25.69,0,19.0,1428.0,31.0,0.34,-0.01,-0.9,-0.08,1.17,-2.41,6.6,0,1,1,100.0,5.099324376664327,7.64,-2.540675623335673
20,76.0,1,20.0,0.0,1,6,7.982,-0.11,-2.3992,2.774,32.0,25.648,0,19.0,1428.0,31.0,0.964,-0.016,-0.888,-0.086,1.2959999999999998,-0.802,1.4100000000000004,0,1,1,100.0,6.302535746439055,7.982,-1.679464253560945
