gait_percent,walk_dt_ms_mean,walk_dt_ms_sd,walk_exec_ms_mean,walk_exec_ms_sd,walk_tilt_forward_deg_mean,walk_tilt_forward_deg_sd,walk_pos_rad_mean,walk_pos_rad_sd,walk_vel_rad_s_mean,walk_vel_rad_s_sd,walk_tq_nm_mean,walk_tq_nm_sd,walk_temp_c_mean,walk_temp_c_sd,walk_vbus_v_mean,walk_vbus_v_sd,walk_fb_age_ms_mean,walk_fb_age_ms_sd,walk_typical_stride_ms_mean,walk_typical_stride_ms_sd,walk_effective_step_count_mean,walk_effective_step_count_sd,walk_tilt_accel_deg_mean,walk_tilt_accel_deg_sd,walk_acc_x_mean,walk_acc_x_sd,walk_acc_y_mean,walk_acc_y_sd,walk_acc_z_mean,walk_acc_z_sd,walk_gyr_x_mean,walk_gyr_x_sd,walk_gyr_y_mean,walk_gyr_y_sd,walk_gyr_z_mean,walk_gyr_z_sd,cfg_assist_pct_mean,cfg_assist_pct_sd
0.0,20.0,0.0,0.0,0.0,7.725,1.7158077263627627,-0.08435714285714287,0.04819448922033298,0.6013571428571429,0.35266602356312154,2.8154285714285714,0.8249191768601627,31.857142857142858,1.231455852429764,25.787142857142857,0.060310551625420955,21.857142857142858,7.262730392025629,1497.142857142857,253.0654695293925,34.07142857142857,6.650208622688068,16.355,3.1836620182038557,-0.315,0.06284902544988268,-1.07,0.014675987714106869,-0.017857142857142856,0.017619295117556787,-0.4849999999999999,2.413455072010951,12.795714285714284,6.073363932002548,-0.29714285714285726,2.6301986721434285,100.0,0.0
1.0,20.0,0.0,0.0,0.0,7.512671428571428,1.6757215715251519,-0.08038214285714285,0.04682632480832705,0.6571492857142858,0.37500460344793485,2.361658571428572,0.6246912646180591,31.857142857142858,1.231455852429764,25.787142857142857,0.060310551625420955,25.328571428571426,11.659953065707663,1497.142857142857,253.0654695293925,34.07142857142857,6.650208622688068,16.188657142857146,3.1689565573919385,-0.3113714285714285,0.06273041746015465,-1.0710928571428573,0.013343247458818005,-0.0172,0.017622232461384592,-0.5572571428571429,2.3678489500662137,11.479114285714285,6.140815849938601,1.2650785714285715,2.8241327851159963,100.0,0.0
2.0,20.0,0.0,0.0,0.0,7.278928571428572,1.6422835033193035,-0.07771285714285714,0.04617913455373398,0.6920114285714286,0.42302699129846666,2.0472914285714285,0.6135336012973365,31.857142857142858,1.231455852429764,25.787142857142857,0.060310551625420955,32.199999999999996,16.036880571405977,1497.142857142857,253.0654695293925,34.07142857142857,6.650208622688068,15.999714285714285,3.160634400500377,-0.3077857142857143,0.06313967248694155,-1.0720428571428573,0.012615540738782004,-0.0167,0.01772868167253713,-0.6427571428571431,2.3273805403415317,9.938014285714287,6.252625939168666,2.7587,3.180585379841506,100.0,0.0
3.0,20.0,0.0,0.0,0.0,7.088107142857142,1.6132969879980306,-0.07671214285714285,0.04620181218200319,0.6912671428571429,0.4662864660506222,1.91158,0.6677444596089597,31.857142857142858,1.231455852429764,25.787142857142857,0.060310551625420955,40.028571428571425,20.359818216334787,1497.142857142857,253.0654695293925,34.07142857142857,6.650208622688068,15.831457142857143,3.1499199522708965,-0.30550714285714287,0.06390220249347031,-1.072707142857143,0.01216884194513653,-0.01647857142857143,0.01778695194069685,-0.7325071428571429,2.2832965289632936,8.56209285714286,6.474900910375063,3.734878571428571,3.4392605965590852,100.0,0.0
4.0,20.0,0.0,0.0,0.0,6.851685714285714,1.6328355547975397,-0.07422857142857142,0.04575983170644531,1.04606,0.8920908335607292,1.7214257142857146,0.6619491540049824,31.857142857142858,1.231455852429764,25.801228571428574,0.06038980337481062,47.68571428571429,12.058757248308234,1497.142857142857,253.0654695293925,34.07142857142857,6.650208622688068,15.596485714285715,3.114498425319667,-0.30067142857142853,0.06296776255258812,-1.0733142857142859,0.010537176467730244,-0.016914285714285715,0.016769517085971894,-0.8384999999999999,2.2521453563555456,6.641685714285714,6.55043867830558,4.802599999999999,3.557631305323162,100.0,0.0
5.0,20.0,0.0,0.0,0.0,6.648928571428571,1.7324729835516237,-0.07051071428571427,0.04550441305129489,1.6219821428571433,1.8347875837658183,1.3821928571428572,0.892084930817245,31.857142857142858,1.231455852429764,25.830142857142857,0.07960368868807007,46.93571428571429,20.264239329528152,1497.142857142857,253.0654695293925,34.07142857142857,6.650208622688068,15.363071428571427,3.069269097453402,-0.29505357142857147,0.06083230247759223,-1.0712857142857144,0.011227480513513216,-0.01775,0.015648482354528825,-0.9457678571428574,2.2433161868269194,4.891321428571429,6.069191592844911,5.637750000000001,3.5788845248635353,100.0,0.0
6.0,20.0,0.0,0.0,0.0,6.5089,1.7262321057948506,-0.06313285714285714,0.03967237334208034,2.5218600000000007,2.741558513815987,0.8101028571428571,0.8622420653820398,31.900000000000002,1.2471505985183249,25.878314285714286,0.07733013003344115,30.558571428571433,24.231915971469355,1497.142857142857,253.0654695293925,34.07142857142857,6.650208622688068,15.171000000000001,3.0490155816136917,-0.28985,0.06000961140966055,-1.0698714285714288,0.011310541616047918,-0.019257142857142855,0.015424342114668284,-1.0610785714285715,2.283919889198114,3.366914285714287,6.290905152172171,5.925542857142857,3.604235281467599,100.0,0.0
7.0,20.0,0.0,0.0,0.0,6.313988095238094,1.6497525568724554,-0.05042309523809524,0.029572865001270914,3.440339047619049,3.979795931790962,0.09388571428571428,0.2392993582464083,31.94333333333333,1.270909896810929,25.94183095238095,0.030663275911446127,7.6571428571428575,8.73698718408955,1497.142857142857,253.0654695293925,34.07142857142857,6.650208622688068,14.854535714285715,3.0365163938574145,-0.2829738095238095,0.05978764440657806,-1.066807142857143,0.010842612819207982,-0.021335714285714284,0.01459607993437106,-1.2490595238095235,2.20241772217182,1.6186357142857146,6.461495097838858,6.02997380952381,3.6094482848331855,100.0,0.0
8.0,20.0,0.0,0.0,0.0,6.207995238095238,1.6327303488672988,-0.048603809523809514,0.027810552472319366,1.9309404761904767,3.6611394399912696,0.02347142857142857,0.05982483956160208,31.95904761904762,1.2757671923912801,25.93555238095238,0.01847145968663112,5.235714285714287,4.823596988979066,1497.142857142857,253.0654695293925,34.07142857142857,6.650208622688068,14.633742857142858,3.019402050257451,-0.2782523809523809,0.05968767817162035,-1.0646714285714285,0.01063451771510898,-0.023357142857142854,0.01364972325928057,-1.3389380952380951,2.188481396512559,0.5599000000000002,6.525766563518684,6.0009952380952365,3.677331717191988,100.0,0.0
9.0,20.0,0.0,0.0,0.0,6.076445238095239,1.674846608034797,-0.04613238095238096,0.02580417065039725,0.24626404761904763,0.42812520162211953,0.0,0.0,32.0097619047619,1.2611637986336774,25.9294630952381,0.0138598975381505,4.428571428571429,4.734720944003186,1497.142857142857,253.0654695293925,34.07142857142857,6.650208622688068,14.312607142857145,2.9495916933767905,-0.27023095238095235,0.05666657385254195,-1.0597285714285716,0.010733999080665895,-0.025639285714285708,0.013458057045894456,-1.4440023809523808,2.186234320247508,-0.7337571428571422,6.576900593009572,5.842080952380953,3.866740027607882,100.0,0.0
10.0,20.0,0.0,0.0,0.0,6.01677380952381,1.6634555394282273,-0.04513809523809524,0.025140287098779027,0.23501190476190476,0.2860130215962003,0.0,0.0,32.06190476190476,1.2617893374538922,25.93034523809524,0.010099603166807745,4.428571428571429,4.734720944003186,1497.142857142857,253.0654695293925,34.07142857142857,6.650208622688068,14.108249999999998,2.9196311130926214,-0.26530952380952383,0.05529067930998153,-1.0574285714285714,0.010423452002496652,-0.027428571428571424,0.01288388549679426,-1.5175595238095236,2.1937980234178105,-1.3991428571428568,6.5601557657063045,5.601702380952381,3.9459374527613846,100.0,0.0
11.0,20.0,0.0,0.0,0.0,5.957210714285714,1.6758825888489752,-0.043688571428571424,0.024746211242917992,0.27347,0.25369835557060827,0.0,0.0,32.07142857142857,1.2688144505364485,25.930432142857143,0.007359285268986775,4.428571428571429,4.734720944003186,1497.142857142857,253.0654695293925,34.07142857142857,6.650208622688068,13.858374999999999,2.855079533834256,-0.26030000000000003,0.053940472888032935,-1.0543,0.009370124373199692,-0.02933571428571428,0.011964457436851941,-1.6253749999999996,2.2079060392101764,-2.1063857142857136,6.534555268471091,5.3475464285714285,4.045421351329668,100.0,0.0
12.0,20.0,0.0,0.07857142857142858,0.266540721174,5.910514285714287,1.6689435437089872,-0.04066428571428571,0.02566075024812609,0.34128,0.319245934134702,0.0,0.0,32.07142857142857,1.2688144505364485,25.930814285714288,0.011504237155390552,4.507142857142857,4.969207379252951,1497.142857142857,253.0654695293925,34.07142857142857,6.650208622688068,13.53835714285714,2.7388164587911064,-0.2532714285714286,0.05255307103039056,-1.052057142857143,0.009842272586670718,-0.03065714285714285,0.010934610842902195,-1.7341999999999995,2.1744851132376852,-2.6414142857142857,6.245338929259058,4.6499571428571445,4.455672419376362,100.0,0.0
13.0,20.0,0.0,0.09999999999999999,0.28010986855435577,5.872228571428572,1.6821641799633138,-0.03662321428571429,0.026250742524820046,0.42968892857142865,0.41795763199055036,0.0,0.0,32.07142857142857,1.2688144505364485,25.927707142857145,0.007994273362439607,4.5285714285714285,4.9586643008325995,1497.142857142857,253.0654695293925,34.07142857142857,6.650208622688068,13.240160714285713,2.7161276158969248,-0.2463785714285714,0.05222339114245247,-1.04785,0.009304878786463019,-0.03295357142857142,0.010698103072071204,-1.8210142857142857,2.143753190572066,-3.0432964285714297,6.068917830491323,3.9540071428571433,4.2622936726448275,100.0,0.0
14.0,20.0,0.0,0.23714285714285696,0.3483461711359188,5.848004761904763,1.6785152298170298,-0.03145952380952381,0.02767606803063147,0.47288833333333324,0.4295873384324228,0.0,0.0,32.07142857142857,1.2688144505364485,25.927857142857142,0.008017837257373034,4.6657142857142855,4.940883935687426,1497.142857142857,253.0654695293925,34.07142857142857,6.650208622688068,12.838830952380954,2.5787618571664965,-0.2371404761904762,0.049308368906304786,-1.043542857142857,0.009439500824947085,-0.03504285714285714,0.010065073983121748,-1.9706119047619048,2.1389031677377277,-3.4051214285714293,5.948495700230382,2.771464285714287,4.5125419136527185,100.0,0.0
15.0,20.0,0.0,0.35714285714285715,0.4972451580988468,5.8478690476190485,1.6680882481274497,-0.026461309523809522,0.028472542930532446,0.5533279761904761,0.4761759188250491,0.0,0.0,32.07142857142857,1.2688144505364485,25.928553571428573,0.004802021380695956,4.785714285714286,4.93306850096011,1497.142857142857,253.0654695293925,34.07142857142857,6.650208622688068,12.491738095238095,2.470394621374783,-0.22902976190476187,0.046196586240552784,-1.0398571428571428,0.00972393670562211,-0.03699999999999999,0.009714679613862725,-2.078386904761905,2.1175902486361102,-3.5711249999999994,5.761651624309113,1.6928392857142853,4.770943310619568,100.0,0.0
16.0,20.0,0.0,0.35714285714285715,0.4972451580988468,5.868047619047617,1.6691742312623135,-0.022082380952380954,0.031214466031336967,0.6096719047619048,0.5439270661841684,0.0,0.0,32.07142857142857,1.2688144505364485,25.92847142857143,0.005850237151199602,4.785714285714286,4.93306850096011,1497.142857142857,253.0654695293925,34.07142857142857,6.650208622688068,12.167266666666666,2.401848138555758,-0.22220476190476196,0.04410944790386063,-1.036957142857143,0.008957396109079082,-0.039914285714285715,0.008845238366389101,-2.1448619047619046,2.127942855486231,-3.5424714285714285,5.465555033033779,0.6995000000000008,5.1180754175764145,100.0,0.0
17.0,20.0,0.0,0.39142857142857135,0.47805466605427444,5.894005952380952,1.67249555821478,-0.017663690476190482,0.03331152617555504,0.6444033333333332,0.5700428431450922,0.0,0.0,32.07142857142857,1.2688144505364485,25.92780357142857,0.010392905573695283,4.793571428571428,4.861119856960561,1497.142857142857,253.0654695293925,34.07142857142857,6.650208622688068,11.83235,2.276530440794335,-0.2158452380952381,0.041319435953867854,-1.0354071428571427,0.009523773031065627,-0.042835714285714276,0.00830952716815113,-2.198545238095238,2.123133599614774,-3.5463642857142856,5.221103543660705,-0.3516619047619035,5.748999402510062,100.0,0.0
18.0,20.0,0.0,0.4642857142857143,0.4847317146265912,5.924950000000001,1.6714062849977305,-0.01326785714285714,0.03543354588080938,0.6596804761904762,0.5922538331060557,0.0,0.0,32.07714285714285,1.2589093483062022,25.92889285714286,0.013290625052484142,4.822857142857144,4.732160717362107,1497.142857142857,253.0654695293925,34.07142857142857,6.650208622688068,11.534876190476192,2.25355004292576,-0.20998571428571428,0.042202320417198014,-1.0322714285714283,0.006870497526652365,-0.04425714285714286,0.007604119762512775,-2.2200571428571427,2.085623769016173,-3.5754857142857146,4.85747410838456,-1.3235238095238093,6.129705760055664,100.0,0.0
19.0,20.0,0.0,0.6571428571428571,0.41942137012112973,5.984828571428571,1.6474198602796908,-0.005267857142857146,0.039508868367372024,0.7168585714285715,0.6091738091351792,0.0,0.0,32.09928571428571,1.2233023670861924,25.927364285714287,0.0071208909493184844,5.014285714285713,4.628089345400647,1497.142857142857,253.0654695293925,34.07142857142857,6.650208622688068,11.04955,2.237391349403277,-0.20114285714285712,0.041802773450237356,-1.028142857142857,0.0059418611802796555,-0.04800714285714286,0.009474943822501558,-2.327421428571429,1.972672079723561,-3.3558857142857144,4.403710558828097,-3.1095857142857133,5.833871309181228,100.0,0.0
20.0,20.0,0.0,0.8357142857142856,0.3629094883070663,6.034404761904761,1.6413267729803458,0.001104761904761905,0.041766700139432136,0.7694500000000001,0.5993257682917209,0.0,0.0,32.121428571428574,1.192398082358902,25.928285714285717,0.006414269805898428,5.192857142857143,4.526582049951713,1497.142857142857,253.0654695293925,34.07142857142857,6.650208622688068,10.663404761904761,2.154471720913249,-0.19476190476190475,0.03867913781453384,-1.0257142857142856,0.006544857892663883,-0.05057142857142859,0.00972478424292429,-2.386547619047619,1.889454946084847,-3.1982142857142857,3.9989662544707234,-4.466547619047619,5.892106435706568,100.0,0.0
21.0,20.0,0.0,0.8571428571428571,0.36313651960128146,6.088373809523808,1.6312866508665738,0.0068345238095238086,0.0443647496283351,0.7802889285714285,0.5479003314970096,0.0,0.0,32.142857142857146,1.167320591199077,25.929485714285715,0.0019242809417697184,5.214285714285714,4.509452831016733,1497.142857142857,253.0654695293925,34.07142857142857,6.650208622688068,10.32147023809524,2.0908892679580933,-0.18755952380952384,0.038217560242209486,-1.0245321428571428,0.005510884584265851,-0.0523357142857143,0.009343990840918285,-2.4156309523809525,1.8230354776854665,-3.0217678571428577,3.7644147408843467,-5.803548809523809,5.886046219707475,100.0,0.0
22.0,20.0,0.0,0.8571428571428571,0.36313651960128146,6.165149999999999,1.6168755923551588,0.01574785714285714,0.04892954938222151,0.702025,0.3279011848513558,-0.0010285714285714269,0.0038485618835389047,32.142857142857146,1.167320591199077,25.927771428571436,0.006134320672241313,5.934285714285713,5.070472158693693,1497.142857142857,253.0654695293925,34.07142857142857,6.650208622688068,9.757828571428574,1.9012772664017905,-0.17595000000000002,0.035446964717621564,-1.0230642857142855,0.004615626825146399,-0.05547142857142858,0.008321836758370536,-2.4820499999999996,1.7312344092049998,-2.6915714285714287,3.41896951646333,-8.000707142857141,6.679983830757063,100.0,0.0
23.0,20.0,0.0,0.8571428571428571,0.36313651960128146,6.241467857142856,1.5902086466400882,0.022345357142857143,0.04959675409913767,0.6167785714285718,0.3698606626380167,-0.03300571428571417,0.12349607466289263,32.142857142857146,1.167320591199077,25.92501904761905,0.014010653542873343,6.214285714285714,5.632031624536586,1497.142857142857,253.0654695293925,34.07142857142857,6.650208622688068,9.323544047619048,1.7859458495203906,-0.1677559523809524,0.03294045106771561,-1.022835714285714,0.004653469696879985,-0.05623333333333332,0.008525417001105288,-2.4342797619047616,1.7030544139915724,-2.4053773809523813,3.1822938489411774,-9.785197619047617,6.9728696295605985,100.0,0.0
24.0,20.0,0.0,0.8571428571428571,0.36313651960128146,6.290457142857143,1.5782183809669617,0.026324285714285706,0.04891277207976944,0.5543771428571432,0.4731434679708852,-0.083002857142857,0.31056825355191303,32.142857142857146,1.167320591199077,25.92345238095238,0.0211678869597188,6.214285714285714,5.632031624536586,1497.142857142857,253.0654695293925,34.07142857142857,6.650208622688068,8.981480952380952,1.7490051916629585,-0.16111904761904763,0.03171940201170987,-1.0223999999999998,0.004227383260454305,-0.05868095238095239,0.008610158126005758,-2.4070095238095237,1.6869332074501489,-2.2271904761904766,3.0101113970762454,-11.013895238095236,7.534630477918538,100.0,0.0
25.0,20.0,0.0,0.8392857142857143,0.3617152361843665,6.358928571428572,1.5872567846050383,0.031348214285714285,0.04638432102500315,0.45608035714285705,0.6104268360193177,-0.1425,0.5433399205200821,32.142857142857146,1.167320591199077,25.92160714285714,0.028243568751561796,6.446428571428571,5.645095362201745,1497.142857142857,253.0654695293925,34.07142857142857,6.650208622688068,8.504464285714285,1.6727872665138828,-0.15258928571428568,0.0304472442770431,-1.021785714285714,0.003724731718342455,-0.06196428571428573,0.010245945325073507,-2.3141964285714285,1.6818193279056561,-1.9847321428571425,2.675006298454637,-12.542589285714286,8.04110417552261,100.0,0.0
26.0,20.0,0.0,0.7957142857142857,0.40718006384842115,6.4030571428571434,1.5898543797440094,0.03367785714285715,0.04473286112340361,0.3933192857142857,0.618072804106744,-0.1383542857142857,0.553258849721904,32.142857142857146,1.167320591199077,25.919319047619044,0.036519969281041134,7.0128571428571425,6.209608470961543,1497.142857142857,253.0654695293925,34.07142857142857,6.650208622688068,8.173404761904763,1.6118924926960134,-0.14644523809523813,0.029223242146669524,-1.0214285714285711,0.003631365196012817,-0.06363333333333333,0.010214377331658758,-2.213040476190476,1.6877010153743113,-1.8245166666666666,2.5171102600650586,-13.517654761904762,8.154419119681059,100.0,0.0
27.0,20.0,0.0,0.7557142857142859,0.3758828435668647,6.451225000000002,1.5921257177301333,0.03656107142857142,0.04238187340119011,0.3113257142857145,0.6775072612465184,-0.1193328571428572,0.5117388452570854,32.142857142857146,1.167320591199077,25.9206130952381,0.03029675180649584,8.187142857142854,6.294972876548675,1497.142857142857,253.0654695293925,34.07142857142857,6.650208622688068,7.782884523809524,1.5261616307248598,-0.13873690476190476,0.025978607387989294,-1.021060714285714,0.003300476572314329,-0.06548809523809525,0.00963441664694776,-2.0694523809523813,1.7130421663055766,-1.670579761904762,2.355549739709809,-14.629677380952383,8.163782287027454,100.0,0.0
28.0,20.0,0.0,0.6085714285714287,0.48717169841470037,6.493828571428571,1.5776349170288324,0.03632428571428572,0.03837608724879952,0.040492857142857254,0.97282217951712,0.10064857142857134,0.8769732306664183,32.142857142857146,1.167320591199077,25.904357142857144,0.06513201640084161,9.697142857142856,7.094382857716951,1497.142857142857,253.0654695293925,34.07142857142857,6.650208622688068,7.246142857142857,1.8349856279941412,-0.12955714285714287,0.03128009232441899,-1.0206,0.002974765666272011,-0.06814285714285716,0.009589233889806141,-1.8762285714285718,1.696751573053445,-1.4272285714285717,2.1446887338900082,-15.63327142857143,8.126471967818278,100.0,0.0
29.0,20.0,0.0,0.5685714285714287,0.4617501346109028,6.566085714285713,1.5298584881048227,0.035646428571428586,0.0343697110856331,-0.10802571428571407,0.9932712375062227,0.14294357142857136,0.8678906245304198,32.142857142857146,1.167320591199077,25.902410714285708,0.06326101053015704,11.237142857142857,6.608962945030878,1497.142857142857,253.0654695293925,34.07142857142857,6.650208622688068,6.50775,1.9965951824774861,-0.11676785714285716,0.034536166144753556,-1.0204749999999998,0.0038655654377912603,-0.07085714285714287,0.009516117039868913,-1.613964285714286,1.7119532643724837,-1.1428821428571434,1.9187735549651288,-16.96626428571429,7.729338994288346,100.0,0.0
30.0,20.0,0.0,0.41785714285714287,0.45217727244332584,6.591107142857143,1.5218223157498665,0.03395357142857142,0.031958822450421774,-0.10951071428571427,1.0347235346437251,0.1797535714285714,0.8385061644799513,32.142857142857146,1.167320591199077,25.90239285714285,0.05705334163051904,13.467857142857143,6.353121799037588,1497.142857142857,253.0654695293925,34.07142857142857,6.650208622688068,6.087428571428572,2.11566507871041,-0.10832142857142858,0.03734743691280626,-1.0204642857142856,0.00404048876381924,-0.07246428571428573,0.010620126548779345,-1.4001071428571428,1.7536659643616395,-0.9568214285714286,1.7838098554147315,-17.37367857142857,7.235708549662523,100.0,0.0
31.0,20.0,0.0,0.3896428571428571,0.48035429346758957,6.611682142857142,1.514344227406593,0.03210059523809524,0.029007090067621175,-0.3887027380952381,0.9327082975193105,0.6441617857142857,1.201733993379834,32.142857142857146,1.167320591199077,25.867524999999993,0.0870064293601338,14.175357142857141,6.499494792285401,1497.142857142857,253.0654695293925,34.07142857142857,6.650208622688068,5.558880952380953,2.2007932040813487,-0.09910119047619048,0.039844177509138407,-1.0208321428571427,0.005100060600803524,-0.07401071428571429,0.009736769693585962,-1.127765476190476,1.820693640014451,-0.6861226190476193,1.6588933005312048,-18.00388452380953,6.492137486519058,100.0,0.0
32.0,20.0,0.0,0.272857142857143,0.416550459985685,6.6215,1.498756981891738,0.02846190476190477,0.027501117730642816,-0.49174904761904753,0.913213346397401,0.7642657142857142,1.4210578118360353,32.142857142857146,1.167320591199077,25.854857142857135,0.0976649981729988,15.129999999999999,5.8817932901192895,1497.142857142857,253.0654695293925,34.07142857142857,6.650208622688068,5.084290476190477,2.395050852570368,-0.09138095238095241,0.04212780253029757,-1.022142857142857,0.006350979849987334,-0.07514285714285714,0.010389174416427178,-0.8229095238095242,1.9207071271928284,-0.45839523809523824,1.5158628177934648,-17.79727619047619,6.02403388004554,100.0,0.0
33.0,20.0,0.0,0.23142857142857107,0.3577032965345,6.617688095238096,1.4947659605623624,0.02573285714285715,0.025952471774549554,-0.42391452380952377,0.7753401884098562,0.7927354761904762,1.4472372078636482,32.151428571428575,1.1586919491249745,25.849164285714284,0.0890485918097341,16.423571428571428,4.292547400648386,1497.142857142857,253.0654695293925,34.07142857142857,6.650208622688068,4.614011904761905,2.4481791008168567,-0.08292142857142858,0.04222688131385629,-1.0232714285714282,0.005857989753835684,-0.07684285714285714,0.009617269265850263,-0.48303571428571496,2.007687161735016,-0.2090666666666669,1.401185739318088,-17.604957142857145,5.658930283354632,100.0,0.0
34.0,20.0,0.0,0.4157142857142852,0.4405715568478023,6.603042857142857,1.4881100438601182,0.022608095238095243,0.02505016002863689,-0.44346238095238105,0.6238542001571552,0.7056871428571437,1.6132379992397923,32.19714285714286,1.1270617249592552,25.843771428571426,0.08705940879273495,17.174285714285713,3.406125058198528,1497.142857142857,253.0654695293925,34.07142857142857,6.650208622688068,4.19792380952381,2.5895636138136844,-0.07506190476190477,0.04568366492015762,-1.0247142857142857,0.00622042011230964,-0.07797142857142858,0.009973767791363696,-0.1327190476190483,2.063848890675115,-0.059847619047619136,1.345790619197649,-16.80116666666667,5.631250068912982,100.0,0.0
35.0,20.0,0.0,0.3916666666666666,0.43744352504847706,6.570047619047618,1.4742123080417993,0.016763095238095233,0.02407967470974191,-0.4711380952380952,0.4599473583511623,0.470554761904762,1.9046943427692773,32.142857142857146,1.167320591199077,25.83975,0.08700768091646556,17.73452380952381,2.1811886538843774,1497.142857142857,253.0654695293925,34.07142857142857,6.650208622688068,3.4049166666666673,2.5181645803307773,-0.060690476190476184,0.04516446002476338,-1.0275476190476192,0.008136240698161072,-0.08192857142857143,0.011411628925148009,0.6101666666666666,1.9987030388746692,0.19516666666666668,1.3190625912587013,-15.393880952380954,6.182857491687421,100.0,0.0
36.0,20.0,0.0,0.4285714285714287,0.41994243456889213,6.527680952380953,1.4750178392497515,0.011507142857142856,0.021489170950315137,-0.4422409523809524,0.40899825401468076,0.26769333333333345,2.074302665853229,32.142857142857146,1.167320591199077,25.83615714285714,0.10035561932283758,18.285714285714285,0.5684758879361864,1497.142857142857,253.0654695293925,34.07142857142857,6.650208622688068,2.9059619047619045,2.5629501790548836,-0.052685714285714294,0.045724372513553886,-1.0299571428571428,0.010310913880687078,-0.08278571428571428,0.010767605057825931,1.144242857142857,2.0922739873214447,0.33493333333333325,1.4908782896433614,-13.819514285714286,7.063835020599061,100.0,0.0
37.0,20.0,0.0,0.5726190476190476,0.41664549396755474,6.479757142857143,1.4734794121473083,0.007389404761904764,0.020875947694411492,-0.4229238095238096,0.3161161967931562,0.11474154761904794,2.105412230557162,32.142857142857146,1.167320591199077,25.831260714285715,0.10056060204705382,18.429761904761904,0.6703315473662144,1497.142857142857,253.0654695293925,34.07142857142857,6.650208622688068,2.3635285714285716,2.5174319318362057,-0.04300952380952382,0.04498936897894125,-1.032245238095238,0.012877427459439957,-0.0843142857142857,0.010044964842214163,1.8135119047619042,2.327149826793088,0.40101785714285715,1.8217722349412255,-11.74102976190476,8.836704364784753,100.0,0.0
38.0,20.0,0.0,0.7038095238095238,0.34034386116682636,6.428892857142857,1.4775220786918812,0.004156666666666669,0.01951938593681746,-0.3955840476190477,0.32594400422603803,-0.10026047619047589,2.0168169128065796,32.142857142857146,1.167320591199077,25.837992857142858,0.08016034377599467,18.560952380952383,0.6173993271634894,1497.142857142857,253.0654695293925,34.07142857142857,6.650208622688068,1.9887928571428577,2.5295489085436333,-0.03606190476190478,0.04580796380794008,-1.0349261904761906,0.013518927399997329,-0.0852857142857143,0.010395476615621528,2.3015452380952377,2.356942616477699,0.40236428571428595,2.012211665577931,-9.860130952380956,9.649744116446811,100.0,0.0
39.0,20.0,0.0,0.7135714285714286,0.42813741760286267,6.375370238095238,1.4858859366585875,0.0014371428571428597,0.018394989358966295,-0.35836607142857135,0.3517308852833729,-0.323263095238095,1.9019402097681313,32.142857142857146,1.167320591199077,25.843953571428568,0.07008045503969934,18.570714285714285,0.633154061768592,1497.142857142857,253.0654695293925,34.07142857142857,6.650208622688068,1.649044047619048,2.555879752946463,-0.029066666666666678,0.046245361975807954,-1.0372392857142858,0.01463042376182416,-0.08584523809523811,0.01030817124340658,2.770741666666666,2.3904921332062448,0.3562702380952384,2.1923205031551927,-7.856210714285718,10.571213702390423,100.0,0.0
40.0,20.0,0.0,0.7714285714285715,0.391110001108426,6.266023809523809,1.4574669658878918,-0.0012642857142857154,0.016664361195855487,-0.2508785714285714,0.40297258577986406,-0.5075738095238095,1.6351864591751735,32.142857142857146,1.167320591199077,25.85442857142857,0.051147921659729464,18.62857142857143,0.6069198038881649,1497.142857142857,253.0654695293925,34.07142857142857,6.650208622688068,1.017261904761905,2.408895956563552,-0.017380952380952375,0.04375023460603415,-1.0447857142857144,0.021712026342837944,-0.08680952380952381,0.010275449361699935,3.623595238095238,2.504420632383307,-0.04561904761904761,2.7785818520729437,-3.4837142857142864,13.113441274735404,100.0,0.0
41.0,20.0,0.0,0.8592857142857145,0.29504795661603267,6.190316666666666,1.454913391833013,-0.002410000000000002,0.014438713984924747,-0.2057692857142857,0.4188036980167767,-0.5724641666666669,1.4122194317981123,32.160000000000004,1.1508926301588025,25.866664285714286,0.03876266258900473,18.71642857142857,0.5408768826616662,1497.142857142857,253.0654695293925,34.07142857142857,6.650208622688068,0.6516190476190477,2.2963608084347857,-0.010627380952380954,0.041964117561297684,-1.0511357142857143,0.025226645166839513,-0.0869559523809524,0.010277757094986283,4.155345238095238,2.479648886732012,-0.3131333333333327,3.071804912223541,-0.4945607142857181,14.533434325166047,100.0,0.0
42.0,20.0,0.0,0.857619047619048,0.2633850276148449,6.1058666666666666,1.4457920716790207,-0.004156190476190478,0.012711099050516404,-0.18425666666666674,0.4223923454491299,-0.7072778571428573,1.3228226980984474,32.205714285714286,1.1239334382544073,25.86953333333333,0.03278709356245975,18.714761904761904,0.41939458662674567,1497.142857142857,253.0654695293925,34.07142857142857,6.650208622688068,0.30832857142857156,2.21603507014495,-0.004340476190476195,0.040436156661678,-1.055461904761905,0.027009168614661048,-0.08710238095238096,0.010443404365899786,4.665242857142857,2.264034339174684,-0.6049761904761902,3.3137397241211564,2.6597452380952356,15.257335908558854,100.0,0.0
43.0,20.0,0.0,0.803452380952381,0.3421990625537982,6.025170238095238,1.415670320239116,-0.005385952380952381,0.009755470648318693,-0.10515083333333328,0.4328149042894744,-0.7752129761904761,0.9989583149123665,32.142857142857146,1.167320591199077,25.882055952380945,0.0373225955294827,18.660595238095237,0.5181622716916385,1497.142857142857,253.0654695293925,34.07142857142857,6.650208622688068,-0.038372619047619204,2.032279974545947,0.0014178571428571447,0.037880410935756524,-1.0601238095238095,0.029241505241960945,-0.08745595238095238,0.010373276001635403,5.168247619047619,2.079421188643662,-0.9461047619047619,3.5119815369980083,5.814972619047621,15.755919840092458,100.0,0.0
44.0,20.0,0.0,0.8385714285714287,0.29019508406102723,5.925761904761906,1.4147665386129964,-0.006786666666666669,0.008390507864379976,-0.0637057142857143,0.4014009819027945,-0.9025933333333337,0.9176443423700495,32.15428571428571,1.1559991634659885,25.887599999999992,0.041497581023105794,18.695714285714285,0.5437294899504326,1497.142857142857,253.0654695293925,34.07142857142857,6.650208622688068,-0.33586666666666654,1.9937004874113549,0.006919047619047616,0.03756904689359693,-1.0651333333333333,0.030282848944096045,-0.08712857142857143,0.010648974567565618,5.668209523809524,1.7838716244595327,-1.2717523809523805,3.550728474618128,9.08248095238095,15.208196697950116,100.0,0.0
45.0,20.0,0.0,0.9636904761904762,0.08694771631506702,5.791053571428572,1.4904129499344863,-0.006851190476190477,0.007821935828021098,-0.023629166666666652,0.3897523533087674,-0.816079761904762,0.8634752490570455,32.2,1.1259184285250452,25.893208333333327,0.03996406973342583,18.820833333333333,0.39877952158756425,1497.142857142857,253.0654695293925,34.07142857142857,6.650208622688068,-0.5900297619047619,2.0287152827092885,0.011904761904761902,0.03871396666445089,-1.0740654761904762,0.03168432669795599,-0.08630357142857144,0.010871707534940163,6.169726190476191,1.529888968105653,-1.8018928571428572,3.610692057191825,13.912184523809524,16.76963905364415,100.0,0.0
46.0,20.0,0.0,1.0,0.0,5.639795238095238,1.450383251494203,-0.006835476190476197,0.005783202851870686,0.06004000000000016,0.2593379637580156,-0.71960880952381,0.811334690108643,32.182857142857145,1.1342732581595252,25.89641428571428,0.02243794372667197,18.857142857142858,0.3631365196012814,1497.142857142857,253.0654695293925,34.07142857142857,6.650208622688068,-0.9895404761904761,1.8302614761671723,0.01915952380952381,0.03386176064447675,-1.0859523809523812,0.03242097219917127,-0.08414285714285716,0.010995503576512486,6.584211904761905,1.3992062101042801,-2.7464833333333325,3.8283450673441273,20.271947619047612,16.49620457132262,100.0,0.0
47.0,20.0,0.0,1.0,0.0,5.529404761904763,1.4724510624176603,-0.0056313095238095245,0.006543145045378376,0.0776578571428572,0.18560126670566457,-0.5125729761904761,0.8928862029889981,32.142857142857146,1.167320591199077,25.898392857142852,0.024226827605449624,18.857142857142858,0.3631365196012814,1497.142857142857,253.0654695293925,34.07142857142857,6.650208622688068,-1.1380773809523812,1.8414389172973014,0.02250833333333333,0.03596031213915279,-1.0957404761904763,0.03660999566596232,-0.08316428571428572,0.011449259777406984,6.798863095238095,1.3597220100845928,-3.497691666666667,4.022916369131168,25.36600952380952,17.758096254463997,100.0,0.0
48.0,20.0,0.0,1.0,0.0,5.413338095238096,1.4523397696377067,-0.004225714285714289,0.006080234957866114,0.12714476190476195,0.12299688005016911,-0.30871380952380995,0.7917459655548645,32.142857142857146,1.167320591199077,25.903642857142852,0.019934381365860954,18.857142857142858,0.3631365196012814,1497.142857142857,253.0654695293925,34.07142857142857,6.650208622688068,-1.2861380952380956,1.741127811420539,0.02574285714285715,0.03455550082638996,-1.1050904761904763,0.034858126199624605,-0.0828857142857143,0.013189439665176024,6.9103,1.3368817650959828,-4.460528571428569,4.119686386575591,30.453538095238084,16.848732343773285,100.0,0.0
49.0,20.0,0.0,1.0,0.0,5.348622619047619,1.4568179196044533,-0.0032667857142857147,0.005664099360528032,0.1534130952380952,0.11960143282639622,-0.17371619047619058,0.7055215714100946,32.15571428571429,1.1546875320636734,25.903774999999996,0.014707124777833475,18.857142857142858,0.3631365196012814,1497.142857142857,253.0654695293925,34.07142857142857,6.650208622688068,-1.3290047619047622,1.7482859967245354,0.02663214285714285,0.03475632541845307,-1.1106630952380951,0.033951567552252794,-0.08206428571428571,0.013080790798422238,6.884092857142858,1.406336265847312,-5.104014285714285,4.305629032951584,33.712244047619045,16.580720294017528,100.0,0.0
50.0,20.0,0.0,1.0,0.0,5.268392857142857,1.4526148859446992,-0.0020357142857142857,0.005245746576308957,0.15417857142857141,0.11386034075920463,-0.01105357142857141,0.6257699578747541,32.17857142857143,1.1369179467236927,25.90339285714285,0.011249236848352644,18.857142857142858,0.3631365196012814,1497.142857142857,253.0654695293925,34.07142857142857,6.650208622688068,-1.368392857142857,1.7230969455579705,0.02678571428571429,0.034171915079781234,-1.1180357142857145,0.03073113197601854,-0.08178571428571428,0.012950667172766822,6.821607142857141,1.5691796016558293,-5.8758928571428575,4.400665335092356,37.895535714285714,15.482293179460859,100.0,0.0
51.0,20.0,0.0,1.0,0.0,5.219741666666667,1.4679417934376486,-0.0013078571428571442,0.004820897105425388,0.143307261904762,0.10039092099279127,0.05564047619047617,0.5490375522751634,32.20142857142857,1.1253844276024572,25.90708214285714,0.01271325182547855,18.857142857142858,0.3631365196012814,1497.142857142857,253.0654695293925,34.07142857142857,6.650208622688068,-1.338502380952381,1.7105919080764997,0.025310714285714294,0.03375967199628431,-1.1241404761904763,0.02841077554867459,-0.08050000000000002,0.014122431692986761,6.642432142857145,1.674197661063483,-6.619635714285713,4.6398047972213945,41.215034523809514,15.114277683081713,100.0,0.0
52.0,20.0,0.0,0.9771428571428572,0.08552359741197549,5.182104761904762,1.4723815439914651,-0.0008242857142857141,0.004327373895928664,0.1004595238095238,0.12991704273465504,0.08363238095238097,0.48814324840823564,32.19428571428572,1.1283051570707845,25.90874285714285,0.011571697188579779,18.834285714285716,0.4258875670646184,1497.142857142857,253.0654695293925,34.07142857142857,6.650208622688068,-1.2865047619047618,1.687627900964052,0.02522857142857143,0.033726671220984016,-1.128595238095238,0.027150035359542694,-0.07909999999999999,0.014062443162278298,6.328542857142857,1.85850198473199,-7.643514285714285,5.172783028782199,44.86880476190476,14.956920966024633,100.0,0.0
53.0,20.0,0.0,0.9300000000000004,0.26191601707417467,5.164567857142857,1.4518644124561335,-0.00025357142857142777,0.0034239082642789627,0.07751821428571434,0.15832122618280667,0.13413571428571444,0.41231192661184696,32.14857142857143,1.1614768923351737,25.91374642857142,0.013840526672473319,18.787142857142857,0.5741941318917324,1497.142857142857,253.0654695293925,34.07142857142857,6.650208622688068,-1.2277357142857146,1.6749265502183592,0.02365357142857144,0.03344571068443326,-1.131757142857143,0.02640462413715014,-0.07731428571428574,0.01485674450015403,5.961667857142858,2.072307561781824,-8.596321428571425,5.321811458108914,48.20258214285713,13.97394882296239,100.0,0.0
54.0,20.0,0.0,0.9249999999999999,0.2665664875930437,5.15515,1.4674429160696771,0.00031142857142857117,0.003120776178460087,0.04479642857142852,0.143644140827101,0.17134714285714286,0.44020448029084347,32.142857142857146,1.167320591199077,25.912321428571424,0.013503058261653012,18.782142857142855,0.5776634443558419,1497.142857142857,253.0654695293925,34.07142857142857,6.650208622688068,-1.1749142857142856,1.650764447091171,0.02239285714285715,0.03308144877037964,-1.1342142857142856,0.025415496700388705,-0.07557142857142858,0.015763025313465902,5.653842857142856,2.2182494968622595,-9.401664285714284,5.32645301629332,50.77472857142857,12.707301354214167,100.0,0.0
55.0,20.0,0.0,0.9232142857142858,0.20532907118215743,5.167642857142858,1.4767332115253513,0.0009589285714285714,0.0028858009010774358,0.003087499999999999,0.14273153213086123,0.20779642857142858,0.46215089546442667,32.2,1.1259184285250452,25.91285714285714,0.01425108440061394,18.780357142857145,0.5080296186312302,1497.142857142857,253.0654695293925,34.07142857142857,6.650208622688068,-1.1069107142857142,1.6587428210010517,0.02192857142857143,0.03353807087180474,-1.1368035714285714,0.02512510592618857,-0.07451785714285715,0.015447324975577452,5.1880178571428575,2.330656214262342,-10.465214285714286,5.104104905195598,53.682285714285705,11.02395268436362,100.0,0.0
56.0,20.0,0.0,0.947142857142857,0.18656525240942756,5.194714285714285,1.504503035177112,0.00101857142857143,0.0031249513402804964,-0.029230000000000003,0.14612615682242627,0.17970285714285752,0.5282635861215288,32.15428571428571,1.1559991634659892,25.91251428571428,0.0150448998331338,18.804285714285715,0.3956827455990916,1497.142857142857,253.0654695293925,34.07142857142857,6.650208622688068,-1.0603285714285713,1.623122782420722,0.021228571428571427,0.03332911475136851,-1.1355285714285712,0.027924911089216662,-0.0735,0.01616772663720489,4.828842857142859,2.4253535344878583,-11.281514285714286,5.012407937057052,55.16097142857143,10.071343225319938,100.0,0.0
57.0,20.0,0.0,0.9952380952380953,0.017817416127494955,5.247921428571429,1.4981427020345361,0.0008408333333333337,0.0036182659083821745,-0.04309273809523813,0.11491389875918943,0.11215357142857142,0.5855134996487092,32.160000000000004,1.1508926301588025,25.911099999999994,0.014504429031798409,18.85238095238095,0.36155274956829014,1496.0135714285714,253.94091280050966,34.09357142857143,6.6719477114060375,-0.9866273809523809,1.5757978086764064,0.020204761904761902,0.03155089188911748,-1.1308369047619047,0.031079803661951337,-0.07183214285714286,0.01720815557030643,4.31367380952381,2.4196301934785236,-12.391863095238094,4.803265249602796,56.81180595238095,9.625995136900091,100.0,0.0
58.0,20.0,0.0,0.8523809523809531,0.28506837857605355,5.347549999999998,1.516264516577094,0.00023833333333333614,0.004226435476569687,-0.04492380952380941,0.07011651254433392,0.015558571428571802,0.6155213062219592,32.182857142857145,1.1342732581595247,25.909621428571423,0.013636725219981828,18.70952380952381,0.4095251724996485,1494.8114285714287,254.9464969167254,34.11714285714286,6.6961382999358765,-0.9986523809523806,1.542551596095841,0.019140476190476183,0.029967989128491294,-1.1225261904761905,0.0326645477559031,-0.07078571428571429,0.016845444814222357,3.905995238095239,2.5929543518106657,-13.307845238095236,4.942592557937483,56.62489523809525,9.766206013743597,100.0,0.0
59.0,20.0,0.0,0.7266666666666668,0.414174082892895,5.433532142857142,1.5394470345408422,-0.0001652380952380941,0.004455556113531764,-0.0675098809523809,0.05975150078744682,-0.060047499999999844,0.6097923633050781,32.205714285714286,1.1239334382544073,25.909578571428565,0.013125426209720775,18.583809523809524,0.46830090615515413,1493.6092857142855,256.0271655798173,34.14071428571429,6.721399195320654,-1.0230773809523808,1.5369243497251526,0.019676190476190476,0.029717518153874915,-1.1157011904761904,0.03441392859555163,-0.06970714285714286,0.017196710968434288,3.6559095238095245,2.655502902993763,-13.988234523809524,5.113834308484702,56.119552380952385,10.08895938105826,100.0,0.0
60.0,20.0,0.0,0.7380952380952381,0.3332967012838427,5.595357142857142,1.6381626484074658,-0.0008166666666666667,0.00435593219634389,-0.0699595238095238,0.055158339566083965,-0.16377857142857147,0.571763184138559,32.18571428571429,1.1326328367379883,25.90728571428571,0.01910871155109325,18.680952380952384,0.3699651833270761,1493.5,256.1290990586883,34.142857142857146,6.7237483005233925,-1.1208095238095237,1.4423561192032899,0.021690476190476194,0.027579400303910182,-1.1044761904761904,0.03759016835584477,-0.06799999999999999,0.01729384061094941,3.273738095238096,2.8877330539865858,-14.903452380952386,5.378891668645883,54.61138095238095,10.884251894999366,100.0,0.0
61.0,20.0,0.0,0.7855952380952381,0.34603962469047067,5.822385714285714,1.8017164426679961,-0.005374523809523797,0.016942058137777494,-0.30600845238095264,0.9057978410475228,-0.11623035714285725,0.5785560770589013,32.142857142857146,1.167320591199077,25.907853571428568,0.02319761645817679,18.785595238095237,0.3548200501800435,1493.5,256.1290990586883,34.14785714285714,6.715646688112802,-1.2846202380952374,1.4081696104830463,0.024411904761904756,0.02769931147017659,-1.089779761904762,0.047772555051810474,-0.06619285714285715,0.015915665446138486,2.93107380952381,3.041947772923283,-14.79112023809524,5.658520928910098,51.608295238095245,14.247260254026328,100.0,0.0
62.0,20.0,0.0,0.6207142857142858,0.41406919313479074,6.026719047619047,1.8475509454000436,-0.008211666666666664,0.02507766168947905,-0.2606838095238096,0.7707265099279634,-0.13865857142857146,0.6534487376734557,32.142857142857146,1.167320591199077,25.902528571428565,0.03345395063646154,18.642142857142858,0.5349360647840012,1493.9971428571428,255.65569416783887,34.24238095238095,6.630465612374008,-1.4066809523809523,1.4183364981563586,0.026297619047619052,0.026491683791981028,-1.0760071428571427,0.050964066742177266,-0.0639,0.015297410540047922,2.6661666666666664,3.097655240151429,-14.509783333333333,6.707170822626249,48.65604761904762,16.645717161617473,100.0,0.0
63.0,20.0,0.0,0.5489285714285715,0.42539655061451204,6.2123535714285705,1.9100002923454658,-0.010390833333333321,0.03181396322176892,-0.24951333333333345,0.6729160369284987,-0.15188583333333353,0.7533358189205499,32.16571428571429,1.1461622538226914,25.89520714285714,0.045818210425478734,18.616785714285715,0.5264233713790311,1497.1457142857143,252.9547153669479,34.348571428571425,6.688379860072627,-1.5272095238095234,1.3965484495240879,0.02832380952380952,0.025668375496133395,-1.0643833333333332,0.05277502727875659,-0.06371428571428571,0.015148234583244713,2.489091666666667,3.1428669958529576,-14.100280952380956,7.749452682465493,45.77510833333334,18.43241175834737,100.0,0.0
64.0,20.0,0.0,0.6033333333333335,0.44550365236831063,6.401471428571428,1.9676993729220429,-0.014141428571428567,0.03816633431081996,-0.3644176190476192,0.7587945113120641,-0.08724000000000014,0.8525525400818411,32.21142857142858,1.1223523178016452,25.889076190476185,0.05707130257435512,18.72142857142857,0.42668412281140805,1497.642857142857,252.57583998683435,34.425714285714285,6.752113873317137,-1.630142857142857,1.376122388180916,0.029919047619047616,0.025263441761198924,-1.0533571428571429,0.05393079203637129,-0.06308571428571427,0.01552481176117058,2.354852380952381,3.169816540424881,-13.526795238095243,8.996104707141633,42.69828571428572,20.18620169974671,100.0,0.0
65.0,20.0,0.0,0.5809523809523809,0.4641809781367397,6.658535714285713,1.9637427339994855,-0.018198809523809527,0.04426075583426877,-0.4622244047619048,0.958048925916315,-0.006550595238095258,0.9992332988756346,32.19285714285714,1.128964321650795,25.881309523809524,0.07005772519561872,18.810714285714287,0.42161711185741646,1491.75,244.5317935911874,34.54642857142857,6.782185622591867,-1.821279761904762,1.4820725424039818,0.03289285714285715,0.026431240996413703,-1.0384702380952382,0.05393389439764399,-0.062392857142857146,0.015447402783227112,2.1581845238095236,3.1662357169950877,-12.631220238095239,10.184433698450164,38.47300595238095,21.076987804087622,100.0,0.0
66.0,20.0,0.0,0.5092857142857143,0.4554366338718567,6.948819047619048,1.9678739845136215,-0.02411999999999998,0.04723195528453167,-0.7451699999999988,1.0458995688070474,0.14406523809523747,1.012956403908887,32.17,1.1428641483301774,25.871171428571433,0.07721940199170209,18.834285714285716,0.4582527734728996,1476.0714285714287,236.66414511374043,34.70238095238095,6.741722931345375,-2.062140476190476,1.5379403897497737,0.036549999999999985,0.02737845166156434,-1.0221976190476192,0.049348816808417226,-0.061442857142857146,0.015887717282213974,2.0480261904761905,3.221533644385988,-11.78234285714286,10.738478589970402,33.30856666666667,20.751417003236725,100.0,0.0
67.0,20.0,0.0,0.418690476190476,0.4134357702734926,7.17609761904762,1.9304205096438765,-0.030229999999999996,0.05091507665484979,-1.0477126190476187,1.4716143786575582,0.3227411904761902,1.0938106264466136,32.14714285714286,1.1629037169710377,25.858285714285717,0.08173657156161575,18.83285714285714,0.5212769612496515,1474.2142857142858,236.1356124614148,34.83642857142857,6.779538907787003,-2.1960869047619047,1.6317761893545277,0.038601190476190476,0.02862917230764377,-1.0097154761904763,0.04534727560126028,-0.06052857142857143,0.015344727411741775,2.0161321428571433,3.245322045971882,-10.79765952380952,11.17030050969009,29.18564285714286,20.30356060242842,100.0,0.0
68.0,20.0,0.0,0.23523809523809566,0.31025138493795973,7.560090476190476,1.883624552316717,-0.043697142857142816,0.05861794729479138,-1.1977895238095246,1.4314104415944926,0.6710876190476183,1.2457346704253982,32.142857142857146,1.167320591199077,25.826619047619044,0.0896283510875953,18.924285714285713,0.17332558449853228,1474.2142857142858,236.1356124614148,34.92857142857143,6.742109755561975,-2.269133333333334,1.6935536246774472,0.03938095238095239,0.028456335464761243,-0.9913904761904764,0.04629698154967019,-0.061528571428571426,0.014249557540846315,2.007109523809524,3.145185328373648,-8.768804761904766,11.342264816494849,22.367600000000014,19.60721423668025,100.0,0.0
69.0,20.0,0.0,0.10714285714285714,0.2839739579454582,7.90732619047619,1.8509756159964477,-0.060447857142857116,0.06577623737146457,-1.4513192857142858,1.1949269073186306,1.1429394047619041,1.3529933552861777,32.142857142857146,1.167320591199077,25.79105595238095,0.1043492864036683,18.931785714285716,0.2552344860263658,1469.6835714285714,234.75929589547812,34.96035714285714,6.718401957507258,-2.157658333333334,1.884385260080358,0.03700714285714286,0.03224372244891457,-0.9735726190476189,0.03999094107203052,-0.06267500000000001,0.01332090245845575,2.026261904761905,3.016323868838974,-6.371178571428575,11.437281069392093,16.026457142857147,19.169772982834367,100.0,0.0
70.0,20.0,0.0,0.10714285714285714,0.27516228977511753,8.182404761904762,1.8516705967258322,-0.07639285714285714,0.07058721244276163,-1.7131428571428573,1.1221821516507542,1.6288654761904764,1.4735564275412212,32.142857142857146,1.167320591199077,25.753130952380957,0.12513186512279167,18.95357142857143,0.17371980724307548,1461.292857142857,235.0845362328713,35.025,6.675522163385136,-1.8707261904761907,2.1317127213877227,0.03135714285714286,0.036343673966216426,-0.962297619047619,0.03987684987919878,-0.06589285714285713,0.01133778327850421,2.027690476190476,2.9185614598832754,-4.4002857142857135,11.44700786855924,11.218071428571431,19.870205079907514,100.0,0.0
71.0,20.0,0.0,0.07535714285714275,0.19797498176939746,8.503054761904762,1.9168407188243626,-0.09630642857142853,0.07030916349153302,-1.7139907142857145,1.0382626555580123,2.1210501190476183,1.5101532554271178,32.142857142857146,1.167320591199077,25.702973809523815,0.1311136715204963,18.975357142857142,0.09220512845978707,1459.2450000000001,235.8292023005046,35.04678571428571,6.663092261781387,-1.558319047619049,2.3852107000038174,0.025475000000000008,0.040169768339654875,-0.9502904761904762,0.03903500550091742,-0.06913214285714285,0.009843654870463065,2.0896119047619046,2.9054695757660367,-1.76745714285715,10.899021507083475,5.531114285714297,19.966883142337966,100.0,0.0
72.0,20.0,0.0,0.06857142857142853,0.25657079223592727,8.926014285714286,1.93004695433403,-0.11924857142857141,0.07170157157993795,-1.591312857142857,0.8277529039553972,2.7117285714285715,1.5392065943548623,32.142857142857146,1.167320591199077,25.64452857142857,0.1452360117907366,18.997142857142858,0.010690449676496749,1457.197142857143,236.81957323695156,35.06857142857143,6.651638152356914,-0.8932428571428584,2.97148996780928,0.013957142857142875,0.04860757640035635,-0.9385857142857141,0.03757875539640524,-0.0722,0.010179617644323144,2.1858142857142853,2.8214157716833044,1.666742857142856,10.621241823216943,-1.4895428571428528,20.01612443474642,100.0,0.0
73.0,20.0,0.0,0.0335714285714289,0.12561278369884066,9.250399999999999,2.0002342663759696,-0.1352560714285714,0.07158445367800972,-1.5558564285714283,0.8436113812683496,3.20237107142857,1.5049948392758166,32.142857142857146,1.167320591199077,25.59209642857143,0.15969233455940446,19.0,0.0,1456.9285714285713,236.9675291893594,35.07142857142857,6.650208622688068,-0.04111785714285982,3.638404302163618,0.0006392857142857579,0.05894338280395537,-0.9295142857142856,0.03575784168204564,-0.07728214285714284,0.013197546496090978,2.2548250000000003,2.6878305526054334,4.145303571428567,9.961474795053503,-7.032007142857132,20.355966058040547,100.0,0.0
74.0,20.0,0.0,0.0,0.0,9.541714285714287,1.9040990148208568,-0.14996571428571426,0.06345479659560035,-1.6479685714285714,0.9258433267514056,3.7260942857142854,1.2386722089567357,32.142857142857146,1.167320591199077,25.5411,0.14266605978782979,19.0,0.0,1456.9285714285713,236.9675291893594,35.07142857142857,6.650208622688068,0.7373999999999984,3.9648571890082946,-0.011407142857142833,0.06433372682033432,-0.9195000000000001,0.030350972611459054,-0.08171428571428571,0.012900319444038645,2.268085714285715,2.5972771763039555,6.028857142857142,9.125434823166955,-11.995257142857136,18.193854616144613,100.0,0.0
75.0,20.0,0.0,0.0,0.0,9.788392857142856,1.8376789178050268,-0.1629107142857143,0.05532768269616461,-1.374839285714286,0.8478985837007621,4.104125000000001,1.1153067834250114,32.142857142857146,1.167320591199077,25.49125,0.13465322270415692,19.0,0.0,1456.9285714285713,236.9675291893594,35.07142857142857,6.650208622688068,1.5807142857142857,4.2710938551827935,-0.025446428571428568,0.06880086779496797,-0.9121428571428573,0.029590265142590253,-0.08517857142857144,0.012830788006943332,2.267857142857143,2.5144889481422803,7.588392857142857,8.293332838743169,-16.105357142857144,16.702542869999643,100.0,0.0
76.0,20.0,0.0,0.0,0.0,10.129285714285714,1.8588110752915081,-0.17844142857142856,0.04410630407708926,-1.0945085714285718,0.7015458120778403,4.58763857142857,0.8587843739922071,32.142857142857146,1.167320591199077,25.428500000000003,0.11073657584903508,19.0,0.0,1456.9285714285713,236.9675291893594,35.07142857142857,6.650208622688068,2.7827428571428547,4.211178217318993,-0.044671428571428536,0.06820284709341942,-0.904557142857143,0.02979377101356576,-0.09272857142857141,0.011445551945653776,2.328671428571429,2.3046780968044347,9.987857142857141,7.4065951128514005,-21.747014285714275,13.94360248792681,100.0,0.0
77.0,20.0,0.0,0.0,0.0,10.322153571428572,1.8200059482641895,-0.18650928571428574,0.0386769806741159,-0.9213239285714285,0.6277601779807152,4.906120357142858,0.7752964655324892,32.142857142857146,1.167320591199077,25.385807142857146,0.10249338601014253,19.0,0.0,1456.9285714285713,236.9675291893594,35.07142857142857,6.650208622688068,3.733992857142856,4.25411242039155,-0.059674999999999985,0.06953325366603098,-0.9008928571428572,0.031452533572541796,-0.09846071428571428,0.01148192858651951,2.2912749999999997,2.2407473491217504,10.972242857142858,7.311859391949312,-25.026553571428572,12.717933848559381,100.0,0.0
78.0,20.0,0.0,0.0,0.0,10.460421428571427,1.7946890144914418,-0.19198476190476188,0.0354200636250686,-0.8021269047619052,0.5422790774611131,5.126162619047618,0.6946304048500798,32.142857142857146,1.167320591199077,25.35088095238095,0.09499998354861326,19.0,0.0,1456.9285714285713,236.9675291893594,35.07142857142857,6.650208622688068,4.653864285714283,4.24840565309408,-0.07354761904761899,0.06935350879320511,-0.8982309523809524,0.03221519115112529,-0.10224047619047619,0.012213248926000363,2.2373547619047622,2.2881965044571158,11.548690476190476,7.37908989442382,-27.53315714285714,11.995085956258169,100.0,0.0
79.0,20.0,0.0,0.0,0.0,10.601017857142855,1.7977656987330712,-0.19772690476190474,0.03357636363929387,-0.6471114285714288,0.536335986135436,5.4142021428571425,0.694117544139796,32.142857142857146,1.167320591199077,25.304246428571428,0.10335494401370225,19.0,0.0,1456.9285714285713,236.9675291893594,35.07142857142857,6.650208622688068,6.073872619047617,4.557890792307182,-0.09555238095238094,0.0743222191464454,-0.896342857142857,0.03257493511960384,-0.10852261904761905,0.015372880448917279,2.0333178571428574,2.5846527078654593,11.886695238095237,8.00702367416575,-30.40807738095238,11.957218304673718,100.0,0.0
80.0,20.0,0.0,0.0,0.0,10.71314285714286,1.7819885977854524,-0.20149523809523812,0.031186392652743387,-0.5136833333333334,0.5126490985536435,5.660683333333334,0.7338266712079007,32.142857142857146,1.167320591199077,25.25845238095238,0.12014219546290573,19.0,0.0,1456.9285714285713,236.9675291893594,35.07142857142857,6.650208622688068,7.20397619047619,4.347286510909593,-0.11457142857142857,0.07117228748252023,-0.8947380952380952,0.03257868281362177,-0.11366666666666671,0.015596405459203194,1.8636190476190477,2.7121336819318307,12.139857142857142,8.22513024313193,-32.49673809523809,11.396828111873916,100.0,0.0
81.0,20.0,0.0,0.0,0.0,10.821328571428571,1.7377745389870485,-0.2051542857142857,0.026443581982837132,-0.36745666666666693,0.46223331365924974,5.951113095238094,0.7512260726163407,32.142857142857146,1.167320591199077,25.21346904761905,0.13247252413996916,19.0,0.0,1456.9285714285713,236.9675291893594,35.07142857142857,6.650208622688068,8.356004761904758,4.029128609209222,-0.13222619047619041,0.06679598762013303,-0.8908833333333334,0.035322915130738215,-0.11790714285714286,0.017298002347840194,1.5347238095238105,2.8160636063386524,11.95215476190476,8.617625600160883,-34.75879523809523,9.844774903304176,100.0,0.0
82.0,20.0,0.0,0.004285714285714042,0.016035674514744552,10.908714285714286,1.7161028742953712,-0.20783333333333331,0.024449328028100105,-0.25653535714285713,0.45225584407036995,6.206119285714285,0.8129630529931406,32.142857142857146,1.167320591199077,25.171917857142862,0.1498785115517542,19.004285714285714,0.01603567451474417,1456.9285714285713,236.9675291893594,35.07142857142857,6.650208622688068,9.55202261904762,3.8243721303326703,-0.15111666666666665,0.06392063020505945,-0.8886071428571428,0.037412165347586034,-0.12216190476190478,0.021292183298033795,1.1810750000000003,2.8370441049232755,11.774891666666667,8.864941413255892,-36.64890952380953,9.408786439948134,100.0,0.0
83.0,20.0,0.0,0.027857142857142695,0.10423188434584492,10.983842857142859,1.745508044497817,-0.20924523809523812,0.02306927203732516,-0.16763029761904782,0.4033979911192677,6.46003726190476,0.841856305481713,32.142857142857146,1.167320591199077,25.128847023809527,0.1670513182962669,19.02785714285714,0.10423188434584471,1456.9285714285713,236.9675291893594,35.07142857142857,6.650208622688068,10.7849494047619,3.642024924768246,-0.17076785714285708,0.06239056143835703,-0.8892773809523808,0.03704087463151546,-0.12685238095238094,0.02540146275580029,0.6817708333333349,2.6464980522137664,11.337662500000004,9.002466857023293,-38.30624523809524,9.271152517901387,100.0,0.0
84.0,20.0,0.0,0.051428571428571344,0.19242809417694523,11.076442857142856,1.6985935868849242,-0.21149142857142858,0.020191406724012706,-0.04080285714285724,0.2179066322084751,6.743767142857142,0.6393635863458716,32.142857142857146,1.167320591199077,25.077257142857146,0.14770428728888216,19.051428571428573,0.19242809417694526,1456.9285714285713,236.9675291893594,35.07142857142857,6.650208622688068,12.269499999999997,2.772742487696417,-0.1942,0.04991975098557219,-0.8899428571428569,0.03906274468055239,-0.1325285714285714,0.028195974305438833,0.03451428571428582,2.387981298360329,10.61834285714286,8.961821343876503,-40.28045714285714,7.3607216249196945,100.0,0.0
85.0,20.0,0.0,0.05,0.16052797503622468,11.013535714285714,1.7205149577321959,-0.2102089285714286,0.020281176397621233,0.027359821428571404,0.24042052311935622,6.940769642857143,0.6731074299312915,32.142857142857146,1.167320591199077,25.031312500000002,0.16665148708918986,19.05,0.16052797503622507,1456.9285714285713,236.9675291893594,35.07142857142857,6.650208622688068,13.313169642857144,2.3253465000316567,-0.21194642857142856,0.04393528660815426,-0.8956071428571428,0.045384226576840804,-0.13255357142857144,0.034892166104936874,-0.5294374999999996,2.107435580928733,9.798919642857141,8.376424523167678,-40.49046428571428,7.773853786928941,100.0,0.0
86.0,20.0,0.0,0.11285714285714295,0.28711907396995195,10.94057142857143,1.6862405870997228,-0.20888071428571428,0.020309162943128636,0.18794035714285742,0.3714385951139806,7.204257857142857,0.7316786046974302,32.142857142857146,1.167320591199077,24.980175000000003,0.16717516694266465,19.11285714285714,0.28711907396995207,1456.9285714285713,236.9675291893594,35.07142857142857,6.650208622688068,14.218267857142857,2.1689960931630545,-0.22773571428571432,0.04190541744200876,-0.8989357142857142,0.04730564459965653,-0.13132142857142856,0.038447690309170605,-1.1037321428571436,2.0572630810045394,9.187375,8.215585843822188,-40.38815714285714,7.831856816059187,100.0,0.0
87.0,20.0,0.0,0.031428571428571674,0.11759494644146763,10.8452,1.6707411575060385,-0.20586428571428575,0.020038961939292037,0.2877505357142852,0.3811602107081685,7.468341785714285,0.8500903862839145,32.142857142857146,1.167320591199077,24.922726785714286,0.18829165094043257,19.03142857142857,0.11759494644146802,1456.9285714285713,236.9675291893594,35.07142857142857,6.650208622688068,14.975983928571425,2.1397338700356183,-0.24205357142857137,0.04231691998518991,-0.9031178571428571,0.04993936171899974,-0.1290607142857143,0.042121281751314556,-1.6402910714285706,1.9754396605957192,8.562112500000001,8.112595547361654,-39.96466785714286,8.089428200854,100.0,0.0
88.0,20.0,0.0,0.06857142857142873,0.23983510819077158,10.759128571428572,1.703795915202094,-0.2025357142857143,0.021868630400745152,0.39079999999999926,0.34486213280984224,7.728139999999999,0.8624113947441865,32.142857142857146,1.167320591199077,24.850942857142858,0.21692453744345047,19.06857142857143,0.2398351081907712,1456.9285714285713,236.9675291893594,35.07142857142857,6.650208622688068,15.908471428571426,2.1648784149297082,-0.26131428571428567,0.04192430646447799,-0.9138857142857143,0.0480141462670976,-0.12541428571428573,0.04250563504982616,-2.315857142857143,1.8328936138140808,8.243014285714285,8.174442291572053,-39.15495714285714,8.163851494966584,100.0,0.0
89.0,20.0,0.0,0.06964285714285715,0.18032517941116916,10.639489285714287,1.7112517955464617,-0.19583464285714286,0.02587410522156241,0.4834442857142854,0.43969795241846293,8.141048214285712,1.08097731801367,32.142857142857146,1.167320591199077,24.73818214285714,0.30929084619692343,19.06964285714286,0.18032517941116874,1456.9285714285713,236.9675291893594,35.07142857142857,6.650208622688068,16.84581785714286,1.9576173954980556,-0.28105714285714284,0.035440718960534065,-0.9275142857142857,0.04196398377258685,-0.11678214285714286,0.04418431068195541,-2.6452821428571434,1.7383979800829834,8.036235714285713,7.965824930201917,-37.75543571428572,8.025550358972001,100.0,0.0
90.0,20.0,0.0,0.08928571428571429,0.2704544405174453,10.479107142857144,1.7989663290406461,-0.1902392857142857,0.031045495019229624,0.5725214285714285,0.48994327996454606,8.21484642857143,1.1607103740754035,32.142857142857146,1.167320591199077,24.717964285714285,0.3513775344316949,19.089285714285715,0.2704544405174454,1456.9285714285713,236.9675291893594,35.07142857142857,6.650208622688068,17.09932142857143,2.172712825789835,-0.28807142857142853,0.03811967851530086,-0.9376428571428572,0.046417183726018385,-0.11003571428571432,0.04686784377608789,-2.775035714285714,1.8546772626595642,8.133214285714285,8.054104874855108,-35.88585714285715,8.931868601182579,100.0,0.0
91.0,20.0,0.0,0.054285714285714444,0.18653579923329566,10.27569285714286,1.9272254019561528,-0.18224142857142853,0.032472093724906656,0.7554325000000004,0.4864555194495019,8.44685142857143,1.048426214790216,32.142857142857146,1.167320591199077,24.67854642857143,0.3595221895710423,19.054285714285715,0.1865357992332955,1456.9285714285713,236.9675291893594,35.07142857142857,6.650208622688068,17.292996428571424,2.3247913173894443,-0.2948607142857143,0.038688669473172586,-0.9479392857142858,0.04499655191307368,-0.10245714285714289,0.04580422325650626,-3.0113071428571425,2.216613121482789,8.478264285714287,8.069996356005005,-33.59586785714285,9.904201924078784,100.0,0.0
92.0,20.0,0.0,0.08714285714285665,0.2116029871618629,10.066242857142859,1.938625251489902,-0.17309428571428578,0.03728484157119362,0.9171599999999993,0.5805390901567256,8.622027142857146,1.0600089257565317,32.142857142857146,1.167320591199077,24.654314285714285,0.36001453572608133,19.087142857142858,0.2116029871618624,1456.9285714285713,236.9675291893594,35.07142857142857,6.650208622688068,17.443928571428575,2.5402848509047673,-0.30222857142857146,0.04268430496224445,-0.9634714285714285,0.03973726072730593,-0.0892285714285715,0.04387891430834541,-2.96267142857143,2.317497888947199,9.113357142857138,7.89002961101144,-30.725900000000017,9.617298209676465,100.0,0.0
93.0,20.0,0.0,0.09357142857142874,0.23263067933321524,9.851778571428571,2.0040594188099514,-0.16226250000000003,0.042107994067909174,0.9889017857142858,0.6856467961029066,8.583451428571427,1.2294686450211354,32.142857142857146,1.167320591199077,24.68942857142857,0.37331025749589086,19.09357142857143,0.2326306793332151,1456.9285714285713,236.9675291893594,35.07142857142857,6.650208622688068,17.350332142857145,2.847984313348595,-0.3052821428571429,0.04811904951081406,-0.9768357142857143,0.03568870985324369,-0.07771428571428575,0.038739779935494593,-2.839160714285715,2.295238708063229,10.004460714285713,7.905276535769746,-27.98145357142858,9.705587397760283,100.0,0.0
94.0,20.0,0.0,0.12714285714285722,0.234239475469298,9.657078571428574,2.0054688506790517,-0.1536464285714286,0.04580435276715065,1.0179692857142857,0.7047040952655702,8.400380714285715,1.4185602423284083,32.142857142857146,1.167320591199077,24.753235714285715,0.3678608089756502,19.127142857142854,0.23423947546929774,1456.9285714285713,236.9675291893594,35.07142857142857,6.650208622688068,17.235650000000003,2.9916583429853487,-0.3072071428571429,0.05288138343770625,-0.9885571428571429,0.03264580817208839,-0.06647142857142858,0.034188041736873405,-2.6717857142857153,2.344132904757074,10.779021428571427,8.288500018902795,-25.1623,8.921209416458494,100.0,0.0
95.0,20.0,0.0,0.19642857142857142,0.3681890639510995,9.481017857142856,2.0107028106922775,-0.14593035714285713,0.04995164024658425,1.0165875,0.7579631046144204,8.112673214285712,1.6453833468591945,32.142857142857146,1.167320591199077,24.836517857142855,0.354172117874445,19.196428571428573,0.3681890639510996,1456.9285714285713,236.9675291893594,35.07142857142857,6.650208622688068,17.090196428571428,3.116605846384338,-0.30719642857142854,0.057412155186744314,-0.9986785714285714,0.030988587938426362,-0.05714285714285715,0.03163154983643617,-2.507,2.3984831805346674,11.356874999999999,8.637409136085578,-22.702714285714283,8.463426109907097,100.0,0.0
96.0,20.0,0.0,0.11428571428571428,0.22400941895424636,9.236728571428573,2.0670222485604643,-0.1336685714285715,0.054482814066193604,1.0693728571428573,0.7296769621860458,7.692378571428574,1.8987816721493016,32.174285714285716,1.139782126857276,24.94734285714286,0.3605079956742358,19.114285714285717,0.2240094189542465,1456.9285714285713,236.9675291893594,35.07142857142857,6.650208622688068,16.757742857142862,3.4604197890550097,-0.30495714285714287,0.06377905026532812,-1.012342857142857,0.025480904291576522,-0.04608571428571432,0.026116981129079658,-2.2555285714285724,2.3315284080582015,12.355914285714286,9.112537983616695,-19.420185714285733,7.789523171528558,100.0,0.0
97.0,20.0,0.0,0.05714285714285715,0.21380899352993957,8.961814285714286,1.986809495767656,-0.12278285714285721,0.054150958714230805,1.0794757142857143,0.7799561345896743,7.102100000000003,1.9656966575667854,32.214285714285715,1.1217137594956024,25.09737857142857,0.3317914206443359,19.057142857142857,0.21380899352993965,1456.9285714285713,236.9675291893594,35.07142857142857,6.650208622688068,16.556289285714286,3.5733089685449912,-0.3058678571428572,0.06793449222240851,-1.0267750000000002,0.022471013379634076,-0.03366785714285717,0.02239199382285188,-1.985635714285715,2.378241221787855,13.057735714285712,9.571762656867103,-15.318485714285728,5.454321325314477,100.0,0.0
98.0,20.0,0.0,0.014285714285714282,0.05345224838248488,8.759900000000002,1.9722124429178522,-0.11443857142857146,0.055192538216005914,1.0278528571428576,0.7459698579126948,6.503292857142859,2.034534707261773,32.214285714285715,1.1217137594956024,25.21944285714286,0.3113700240359245,19.014285714285712,0.05345224838248468,1456.9285714285713,236.9675291893594,35.07142857142857,6.650208622688068,16.33419285714286,3.6525094607289232,-0.30379285714285714,0.06982459853403784,-1.03535,0.01997716966169902,-0.026492857142857155,0.02073653276728756,-1.8134,2.2900328761496316,13.350514285714285,9.770263194223357,-12.73672857142858,4.704403028657727,100.0,0.0
99.0,20.0,0.0,0.027857142857142695,0.1042318843458449,8.36747142857143,1.9739162828785792,-0.0991207142857143,0.05569082184626194,0.8606017857142865,0.759946666837188,5.20345642857143,1.780184366872008,32.214285714285715,1.1217137594956024,25.463846428571426,0.2148357140345275,19.02785714285714,0.10423188434584471,1456.9285714285713,236.9675291893594,35.07142857142857,6.650208622688068,15.884275,3.675085045836982,-0.2988,0.0712960674285001,-1.0474285714285716,0.01593102578045691,-0.016624999999999994,0.01729998610492994,-1.5599571428571426,2.1284530518174942,13.119235714285713,9.8321926706733,-8.259792857142859,3.157822943705239,100.0,0.0
100.0,20.0,0.0,0.07142857142857142,0.2672612419124244,8.064285714285715,1.9532486323507867,-0.09071428571428573,0.05557452179306154,0.7402857142857142,0.8889820824162559,4.229571428571428,1.658868924867215,32.214285714285715,1.1217137594956024,25.635714285714283,0.14184033741739788,19.071428571428573,0.2672612419124244,1456.9285714285713,236.9675291893594,35.07142857142857,6.650208622688068,15.529285714285717,3.7479214019459954,-0.2942857142857143,0.07303468993612511,-1.0542857142857145,0.013985864135061369,-0.010714285714285713,0.018171950369175575,-1.3942857142857144,2.054378866585355,12.695714285714287,10.050897942499935,-4.857857142857143,1.5247656998898027,100.0,0.0
