t_ms,segment_id,packet_type,source_mode,frame_fid,note,walk_fid,walk_dt_ms,walk_exec_ms,walk_out,walk_state,walk_tilt_forward_deg,walk_pos_rad,walk_vel_rad_s,walk_tq_nm,walk_temp_c,walk_vbus_v,walk_err_code,walk_fb_age_ms,walk_typical_stride_ms,walk_effective_step_count,walk_tilt_accel_deg,walk_acc_x,walk_acc_y,walk_acc_z,walk_gyr_x,walk_gyr_y,walk_gyr_z,cfg_fid,cfg_robot_id,cfg_ble_target,cfg_gait_model,cfg_gait_mode,cfg_side_is_left,cfg_assist_pct
20,1,walk,walk,19234,,19234.0,20.0,2.0,6.0,2.0,3.94,0.002,0.036,-0.343,34.0,25.86,0.0,19.0,1641.0,133.0,3.39,-0.06,-1.02,0.01,0.57,0.75,1.03,557.0,,,0.0,1.0,1.0,100.0
40,1,walk,walk,19235,,19235.0,20.0,2.0,6.0,2.0,3.94,0.002,-0.026,-0.365,34.0,25.86,0.0,19.0,1641.0,133.0,3.4,-0.06,-1.02,0.01,0.6,0.76,1.01,557.0,,,0.0,1.0,1.0,100.0
60,1,walk,walk,19236,,19236.0,20.0,2.0,6.0,2.0,3.95,0.002,0.032,-0.344,34.0,25.86,0.0,19.0,1641.0,133.0,3.41,-0.06,-1.02,0.01,0.62,0.77,0.99,557.0,,,0.0,1.0,1.0,100.0
80,1,walk,walk,19237,,19237.0,20.0,2.0,6.0,2.0,3.95,0.002,-0.048,-0.299,34.0,25.86,0.0,19.0,1641.0,133.0,3.41,-0.06,-1.02,0.01,0.63,0.77,0.97,557.0,,,0.0,1.0,1.0,100.0
100,1,walk,walk,19238,,19238.0,20.0,2.0,6.0,2.0,3.95,0.002,0.097,-0.334,34.0,25.86,0.0,19.0,1641.0,133.0,3.41,-0.06,-1.02,0.01,0.61,0.77,0.95,557.0,,,0.0,1.0,1.0,100.0
140,1,walk,walk,19239,,19239.0,20.0,2.0,6.0,2.0,3.95,0.002,-0.021,-0.242,34.0,25.86,0.0,19.0,1641.0,133.0,3.42,-0.06,-1.02,0.01,0.58,0.78,0.94,557.0,,,0.0,1.0,1.0,100.0
140,1,walk,walk,19240,,19240.0,20.0,2.0,6.0,2.0,3.96,0.002,0.054,-0.337,34.0,25.86,0.0,19.0,1641.0,133.0,3.42,-0.06,-1.02,0.01,0.54,0.79,0.91,557.0,,,0.0,1.0,1.0,100.0
160,1,walk,walk,19241,,19241.0,20.0,2.0,6.0,2.0,3.96,0.002,-0.075,-0.344,34.0,25.86,0.0,19.0,1641.0,133.0,3.43,-0.06,-1.02,0.01,0.5,0.8,0.87,557.0,,,0.0,1.0,1.0,100.0
180,1,walk,walk,19242,,19242.0,20.0,2.0,6.0,2.0,3.97,0.002,-0.061,-0.285,34.0,25.86,0.0,19.0,1641.0,133.0,3.44,-0.06,-1.02,0.01,0.46,0.83,0.81,557.0,,,0.0,1.0,1.0,100.0
200,1,walk,walk,19243,,19243.0,20.0,2.0,6.0,2.0,3.98,0.002,0.04,-0.386,34.0,25.86,0.0,19.0,1641.0,133.0,3.45,-0.06,-1.02,0.01,0.43,0.87,0.72,557.0,,,0.0,1.0,1.0,100.0
220,1,walk,walk,19244,,19244.0,20.0,2.0,6.0,2.0,3.98,0.003,-0.017,-0.456,34.0,25.86,0.0,19.0,1641.0,133.0,3.46,-0.06,-1.02,0.01,0.42,0.92,0.6,557.0,,,0.0,1.0,1.0,100.0
240,1,walk,walk,19245,,19245.0,20.0,2.0,6.0,2.0,3.99,0.003,0.076,-0.484,34.0,25.86,0.0,19.0,1641.0,133.0,3.47,-0.06,-1.02,0.01,0.44,1.0,0.46,557.0,,,0.0,1.0,1.0,100.0
260,1,walk,walk,19246,,19246.0,20.0,2.0,6.0,2.0,3.99,0.004,0.023,-0.583,34.0,25.86,0.0,19.0,1641.0,133.0,3.47,-0.06,-1.02,0.01,0.48,1.09,0.29,557.0,,,0.0,1.0,1.0,100.0
280,1,walk,walk,19247,,19247.0,20.0,2.0,6.0,2.0,4.0,0.004,-0.034,-0.627,34.0,25.86,0.0,19.0,1641.0,133.0,3.47,-0.06,-1.02,0.01,0.56,1.18,0.11,557.0,,,0.0,1.0,1.0,100.0
320,1,walk,walk,19248,,19248.0,20.0,2.0,6.0,2.0,4.0,0.005,-0.057,-0.665,34.0,25.86,0.0,19.0,1641.0,133.0,3.47,-0.06,-1.02,0.01,0.68,1.28,-0.09,557.0,,,0.0,1.0,1.0,100.0
320,1,walk,walk,19249,,19249.0,20.0,2.0,6.0,2.0,4.0,0.006,0.116,-0.78,34.0,25.86,0.0,19.0,1641.0,133.0,3.46,-0.06,-1.02,0.01,0.83,1.38,-0.29,557.0,,,0.0,1.0,1.0,100.0
340,1,walk,walk,19250,,19250.0,20.0,2.0,6.0,2.0,4.01,0.006,0.007,-0.868,34.0,25.86,0.0,19.0,1641.0,133.0,3.44,-0.06,-1.02,0.01,1.02,1.46,-0.5,557.0,,,0.0,1.0,1.0,100.0
380,1,walk,walk,19251,,19251.0,20.0,2.0,6.0,2.0,4.01,0.007,0.041,-0.933,34.0,25.86,0.0,19.0,1641.0,133.0,3.42,-0.06,-1.02,0.01,1.24,1.52,-0.72,557.0,,,0.0,1.0,1.0,100.0
380,1,walk,walk,19252,,19252.0,20.0,2.0,6.0,2.0,4.01,0.007,-0.005,-1.005,34.0,25.86,0.0,19.0,1641.0,133.0,3.39,-0.06,-1.02,0.01,1.48,1.57,-0.92,557.0,,,0.0,1.0,1.0,100.0
400,1,walk,walk,19253,,19253.0,20.0,2.0,6.0,2.0,4.01,0.008,0.077,-1.045,34.0,25.86,0.0,19.0,1641.0,133.0,3.35,-0.06,-1.02,0.01,1.75,1.61,-1.11,557.0,,,0.0,1.0,1.0,100.0
420,1,walk,walk,19254,,19254.0,20.0,2.0,6.0,2.0,4.0,0.009,0.109,-1.115,34.0,25.83,0.0,19.0,1641.0,133.0,3.31,-0.06,-1.02,0.01,2.04,1.63,-1.29,557.0,,,0.0,1.0,1.0,100.0
480,1,walk,walk,19255,,19255.0,20.0,2.0,6.0,2.0,3.99,0.009,-0.001,-1.215,34.0,25.83,0.0,19.0,1641.0,133.0,3.27,-0.06,-1.02,0.01,2.34,1.64,-1.45,557.0,,,0.0,1.0,1.0,100.0
480,1,walk,walk,19256,,19256.0,20.0,2.0,6.0,2.0,3.98,0.01,0.022,-1.289,34.0,25.83,0.0,19.0,1641.0,133.0,3.22,-0.06,-1.02,0.01,2.64,1.65,-1.59,557.0,,,0.0,1.0,1.0,100.0
480,1,walk,walk,19257,,19257.0,20.0,2.0,6.0,2.0,3.97,0.01,-0.05,-1.375,34.0,25.83,0.0,19.0,1641.0,133.0,3.17,-0.06,-1.02,0.01,2.93,1.66,-1.7,557.0,,,0.0,1.0,1.0,100.0
500,1,walk,walk,19258,,19258.0,20.0,2.0,6.0,2.0,3.96,0.011,0.065,-1.417,34.0,25.83,0.0,19.0,1641.0,133.0,3.11,-0.06,-1.02,0.01,3.23,1.69,-1.79,557.0,,,0.0,1.0,1.0,100.0
520,1,walk,walk,19259,,19259.0,20.0,2.0,6.0,2.0,3.94,0.012,0.083,-1.529,34.0,25.83,0.0,19.0,1641.0,133.0,3.05,-0.05,-1.02,0.01,3.52,1.73,-1.85,557.0,,,0.0,1.0,1.0,100.0
540,1,walk,walk,19260,,19260.0,20.0,2.0,6.0,2.0,3.92,0.012,0.048,-1.609,34.0,25.83,0.0,19.0,1641.0,133.0,2.99,-0.05,-1.02,0.01,3.82,1.79,-1.89,557.0,,,0.0,1.0,1.0,100.0
560,1,walk,walk,19261,,19261.0,20.0,2.0,6.0,2.0,3.89,0.013,0.028,-1.716,34.0,25.83,0.0,19.0,1641.0,133.0,2.93,-0.05,-1.02,0.01,4.13,1.86,-1.91,557.0,,,0.0,1.0,1.0,100.0
580,1,walk,walk,19262,,19262.0,20.0,2.0,6.0,2.0,3.87,0.014,0.054,-1.786,34.0,25.83,0.0,19.0,1641.0,133.0,2.87,-0.05,-1.02,0.01,4.45,1.95,-1.9,557.0,,,0.0,1.0,1.0,100.0
620,1,walk,walk,19263,,19263.0,20.0,2.0,6.0,2.0,3.84,0.015,-0.03,-1.882,34.0,25.79,0.0,19.0,1641.0,133.0,2.8,-0.05,-1.03,0.01,4.78,2.05,-1.88,557.0,,,0.0,1.0,1.0,100.0
620,1,walk,walk,19264,,19264.0,20.0,2.0,6.0,2.0,3.81,0.016,0.186,-2.015,34.0,25.79,0.0,19.0,1641.0,133.0,2.74,-0.05,-1.03,0.01,5.15,2.16,-1.83,557.0,,,0.0,1.0,1.0,100.0
640,1,walk,walk,19265,,19265.0,20.0,2.0,6.0,2.0,3.77,0.017,-0.011,-2.113,34.0,25.79,0.0,19.0,1641.0,133.0,2.67,-0.05,-1.03,0.01,5.56,2.27,-1.76,557.0,,,0.0,1.0,1.0,100.0
700,1,walk,walk,19266,,19266.0,20.0,2.0,6.0,2.0,3.74,0.018,0.046,-2.219,34.0,25.76,0.0,19.0,1641.0,133.0,2.61,-0.05,-1.03,0.02,6.0,2.36,-1.67,557.0,,,0.0,1.0,1.0,100.0
700,1,walk,walk,19267,,19267.0,20.0,2.0,6.0,2.0,3.7,0.019,-0.073,-2.319,34.0,25.76,0.0,19.0,1641.0,133.0,2.57,-0.05,-1.03,0.02,6.47,2.39,-1.57,557.0,,,0.0,1.0,1.0,100.0
700,1,walk,walk,19268,,19268.0,20.0,2.0,6.0,2.0,3.66,0.019,-0.042,-2.355,34.0,25.76,0.0,19.0,1641.0,133.0,2.56,-0.05,-1.03,0.02,6.94,2.29,-1.46,557.0,,,0.0,1.0,1.0,100.0
720,1,walk,walk,19269,,19269.0,20.0,2.0,6.0,2.0,3.62,0.019,-0.042,-2.302,34.0,25.76,0.0,19.0,1641.0,133.0,2.6,-0.05,-1.03,0.01,7.31,1.9,-1.3,557.0,,,0.0,1.0,1.0,100.0
740,1,walk,walk,19270,,19270.0,20.0,2.0,6.0,2.0,3.57,0.019,0.092,-2.311,34.0,25.76,0.0,19.0,1641.0,133.0,2.77,-0.05,-1.04,0.01,7.4,0.81,-1.08,557.0,,,0.0,1.0,1.0,100.0
780,1,walk,walk,19271,,19271.0,20.0,2.0,6.0,2.0,3.53,0.019,-0.013,-2.358,34.0,25.76,0.0,19.0,1641.0,133.0,3.19,-0.06,-1.04,0.0,6.96,-1.83,-0.78,557.0,,,0.0,1.0,1.0,100.0
780,1,walk,walk,19272,,19272.0,20.0,2.0,6.0,2.0,3.49,0.019,-0.152,-2.21,34.0,25.76,0.0,19.0,1641.0,133.0,3.88,-0.07,-1.04,-0.02,5.81,-6.9,-0.47,557.0,,,0.0,1.0,1.0,100.0
800,1,walk,walk,19273,,19273.0,20.0,2.0,6.0,2.0,3.45,0.017,-0.099,-1.974,34.0,25.79,0.0,19.0,1641.0,133.0,4.78,-0.09,-1.05,-0.04,3.92,-14.99,-0.18,557.0,,,0.0,1.0,1.0,100.0
820,1,walk,walk,19274,,19274.0,20.0,2.0,6.0,2.0,3.41,0.014,-0.246,-1.638,34.0,25.83,0.0,19.0,1641.0,133.0,5.78,-0.11,-1.06,-0.06,1.36,-26.2,0.14,557.0,,,0.0,1.0,1.0,100.0
840,1,walk,walk,19275,,19275.0,20.0,2.0,6.0,2.0,3.37,0.01,-0.198,-1.158,34.0,25.83,0.0,19.0,1641.0,133.0,6.68,-0.12,-1.06,-0.08,-1.72,-39.92,0.6,557.0,,,0.0,1.0,1.0,100.0
880,1,walk,walk,19276,,19276.0,20.0,2.0,6.0,2.0,3.35,0.006,-0.265,-0.654,34.0,25.86,0.0,19.0,1641.0,133.0,7.3,-0.14,-1.07,-0.11,-5.11,-54.92,1.35,557.0,,,0.0,1.0,1.0,100.0
880,1,walk,walk,19277,,19277.0,20.0,2.0,6.0,2.0,3.32,0.004,-0.041,-0.282,34.0,25.86,0.0,19.0,1641.0,133.0,7.52,-0.14,-1.07,-0.12,-8.57,-69.49,2.45,557.0,,,0.0,1.0,1.0,100.0
900,1,walk,walk,19278,,19278.0,20.0,2.0,6.0,2.0,3.31,0.002,-0.045,-0.123,34.0,25.86,0.0,19.0,1641.0,133.0,7.26,-0.14,-1.08,-0.12,-11.89,-81.91,3.92,557.0,,,0.0,1.0,1.0,100.0
920,1,walk,walk,19279,,19279.0,20.0,2.0,6.0,2.0,3.31,0.001,0.028,-0.17,34.0,25.86,0.0,19.0,1641.0,133.0,6.57,-0.12,-1.07,-0.12,-14.9,-90.85,5.71,557.0,,,0.0,1.0,1.0,100.0
960,1,walk,walk,19280,,19280.0,20.0,2.0,6.0,2.0,3.32,0.001,0.03,-0.203,34.0,25.86,0.0,19.0,1641.0,133.0,5.55,-0.1,-1.07,-0.11,-17.5,-95.68,7.65,557.0,,,0.0,1.0,1.0,100.0
960,1,walk,walk,19281,,19281.0,20.0,2.0,6.0,2.0,3.34,0.001,0.044,-0.252,34.0,25.86,0.0,19.0,1641.0,133.0,4.32,-0.08,-1.06,-0.09,-19.58,-96.44,9.45,557.0,,,0.0,1.0,1.0,100.0
1000,1,walk,walk,19282,,19282.0,20.0,2.0,6.0,2.0,3.37,0.002,0.01,-0.215,34.0,25.86,0.0,19.0,1641.0,133.0,3.03,-0.06,-1.05,-0.07,-21.05,-93.81,10.74,557.0,,,0.0,1.0,1.0,100.0
1000,1,walk,walk,19283,,19283.0,20.0,2.0,6.0,2.0,3.43,0.001,0.002,-0.235,34.0,25.86,0.0,19.0,1641.0,133.0,1.82,-0.03,-1.03,-0.04,-21.82,-88.85,11.2,557.0,,,0.0,1.0,1.0,100.0
1020,1,walk,walk,19284,,19284.0,20.0,2.0,6.0,2.0,3.49,0.001,-0.07,-0.193,34.0,25.86,0.0,19.0,1641.0,133.0,0.78,-0.01,-1.02,-0.02,-21.85,-82.72,10.57,557.0,,,0.0,1.0,1.0,100.0
1040,1,walk,walk,19285,,19285.0,20.0,0.0,6.0,2.0,3.57,0.001,-0.073,-0.031,34.0,25.86,0.0,17.0,1641.0,133.0,-0.01,0.0,-1.0,0.0,-21.12,-76.46,8.72,557.0,,,0.0,1.0,1.0,100.0
1060,1,walk,walk,19286,,19286.0,20.0,1.0,6.0,2.0,3.66,0.0,-0.009,0.077,34.0,25.86,0.0,18.0,1641.0,133.0,-0.56,0.01,-0.99,0.02,-19.72,-70.8,5.7,557.0,,,0.0,1.0,1.0,100.0
1100,1,walk,walk,19287,,19287.0,20.0,1.0,6.0,2.0,3.75,-0.001,-0.087,0.135,34.0,25.86,0.0,18.0,1641.0,133.0,-0.87,0.01,-0.98,0.04,-17.75,-66.1,1.65,557.0,,,0.0,1.0,1.0,100.0
1100,1,walk,walk,19288,,19288.0,20.0,1.0,6.0,2.0,3.85,-0.001,-0.068,0.149,34.0,25.86,0.0,18.0,1641.0,133.0,-0.97,0.02,-0.97,0.05,-15.38,-62.34,-3.1,557.0,,,0.0,1.0,1.0,100.0
1120,1,walk,walk,19289,,19289.0,20.0,1.0,6.0,2.0,3.94,-0.001,0.088,0.115,34.0,25.86,0.0,18.0,1641.0,133.0,-0.88,0.01,-0.97,0.05,-12.77,-59.31,-8.13,557.0,,,0.0,1.0,1.0,100.0
1140,1,walk,walk,19290,,19290.0,20.0,1.0,1.0,5.0,4.02,-0.001,0.057,0.041,34.0,25.86,0.0,18.0,1641.0,134.0,-0.62,0.01,-0.96,0.05,-10.08,-56.74,-12.99,557.0,,,0.0,1.0,1.0,100.0
1160,1,walk,walk,19291,,19291.0,20.0,0.0,1.0,6.0,4.08,-0.001,0.109,-0.088,34.0,25.79,0.0,19.0,1641.0,134.0,-0.14,0.0,-0.96,0.05,-7.42,-54.35,-16.97,557.0,,,0.0,1.0,1.0,100.0
1180,1,walk,walk,19292,,19292.0,20.0,0.0,1.0,6.0,4.12,-0.036,-3.053,-2.046,34.0,25.69,0.0,19.0,1641.0,134.0,0.62,-0.01,-0.97,0.05,-4.9,-52.05,-19.43,557.0,,,0.0,1.0,1.0,100.0
1200,1,walk,walk,19293,,19293.0,20.0,0.0,1.0,6.0,4.13,-0.079,-2.713,-2.805,34.0,25.58,0.0,19.0,1641.0,134.0,1.65,-0.03,-0.97,0.03,-2.6,-50.0,-20.04,557.0,,,0.0,1.0,1.0,100.0
1220,1,walk,walk,19294,,19294.0,20.0,0.0,3.0,7.0,4.11,-0.113,-2.004,-3.613,34.0,25.47,0.0,19.0,1641.0,134.0,2.92,-0.05,-0.98,0.02,-0.58,-48.52,-18.76,557.0,,,0.0,1.0,1.0,100.0
1240,1,walk,walk,19295,,19295.0,20.0,0.0,3.0,7.0,4.05,-0.139,-1.533,-4.138,34.0,25.4,0.0,19.0,1641.0,134.0,4.35,-0.07,-0.98,0.0,1.07,-47.92,-15.78,557.0,,,0.0,1.0,1.0,100.0
1280,1,walk,walk,19296,,19296.0,20.0,0.0,3.0,7.0,3.96,-0.161,-1.298,-4.708,34.0,25.37,0.0,19.0,1641.0,134.0,5.7,-0.1,-0.98,-0.02,2.31,-48.5,-11.57,557.0,,,0.0,1.0,1.0,100.0
1280,1,walk,walk,19297,,19297.0,20.0,0.0,3.0,7.0,3.84,-0.171,-0.578,-5.213,34.0,25.37,0.0,19.0,1641.0,134.0,6.54,-0.11,-0.99,-0.04,3.18,-50.22,-6.99,557.0,,,0.0,1.0,1.0,100.0
1300,1,walk,walk,19298,,19298.0,20.0,0.0,0.0,1.0,3.7,-0.172,0.332,-5.176,34.0,25.44,0.0,19.0,1641.0,134.0,6.55,-0.11,-1.0,-0.06,3.76,-52.8,-2.91,557.0,,,0.0,1.0,1.0,100.0
1320,1,walk,walk,19299,,19299.0,20.0,0.0,0.0,1.0,3.55,-0.146,2.402,-4.843,34.0,25.44,0.0,19.0,1641.0,134.0,5.57,-0.1,-1.01,-0.07,3.99,-55.42,-1.08,557.0,,,0.0,1.0,1.0,100.0
1340,1,walk,walk,19300,,19300.0,20.0,0.0,0.0,1.0,3.38,-0.146,2.402,-4.843,34.0,25.44,0.0,39.0,1641.0,134.0,3.87,-0.07,-1.01,-0.08,3.64,-57.64,-2.52,557.0,,,0.0,1.0,1.0,100.0
1360,1,walk,walk,19301,,19301.0,20.0,0.0,0.0,1.0,3.22,-0.146,2.402,-4.843,34.0,25.44,0.0,59.0,1641.0,134.0,1.98,-0.04,-1.02,-0.08,2.88,-58.91,-6.03,557.0,,,0.0,1.0,1.0,100.0
1380,1,walk,walk,19302,,19302.0,20.0,0.0,0.0,1.0,3.05,0.105,32.767,0.0,34.0,25.97,0.0,3.0,1641.0,134.0,0.2,0.0,-1.03,-0.08,1.96,-58.76,-10.14,557.0,,,0.0,1.0,1.0,100.0
1440,1,walk,walk,19303,,19303.0,20.0,0.0,0.0,1.0,2.89,0.108,-0.076,0.0,34.0,25.9,0.0,3.0,1641.0,134.0,-1.27,0.02,-1.04,-0.08,1.06,-57.16,-13.91,557.0,,,0.0,1.0,1.0,100.0
1440,1,walk,walk,19304,,19304.0,20.0,1.0,0.0,1.0,2.73,0.106,0.006,0.0,34.0,25.9,0.0,4.0,1641.0,134.0,-2.39,0.04,-1.04,-0.08,0.34,-54.36,-16.81,557.0,,,0.0,1.0,1.0,100.0
1440,1,walk,walk,19305,,19305.0,20.0,1.0,0.0,1.0,2.57,0.102,-0.561,0.0,34.0,25.9,0.0,4.0,1641.0,134.0,-3.18,0.06,-1.05,-0.09,-0.13,-50.65,-18.53,557.0,,,0.0,1.0,1.0,100.0
1460,1,walk,walk,19306,,19306.0,20.0,1.0,0.0,1.0,2.4,0.094,-0.43,0.0,34.0,25.9,0.0,4.0,1641.0,134.0,-3.68,0.07,-1.06,-0.08,-0.38,-46.31,-19.0,557.0,,,0.0,1.0,1.0,100.0
1480,1,walk,walk,19307,,19307.0,20.0,0.0,0.0,1.0,2.22,0.088,-0.55,0.0,34.0,25.86,0.0,3.0,1641.0,134.0,-3.93,0.07,-1.06,-0.08,-0.5,-41.61,-18.35,557.0,,,0.0,1.0,1.0,100.0
1500,1,walk,walk,19308,,19308.0,20.0,1.0,0.0,1.0,2.02,0.08,-0.381,0.0,34.0,25.9,0.0,4.0,1641.0,134.0,-4.0,0.07,-1.06,-0.08,-0.58,-36.8,-16.8,557.0,,,0.0,1.0,1.0,100.0
1520,1,walk,walk,19309,,19309.0,20.0,0.0,0.0,1.0,1.81,0.077,-0.113,0.0,34.0,25.9,0.0,3.0,1641.0,134.0,-3.91,0.07,-1.07,-0.08,-0.7,-32.09,-14.64,557.0,,,0.0,1.0,1.0,100.0
1540,1,walk,walk,19310,,19310.0,20.0,0.0,0.0,1.0,1.58,0.074,-0.277,0.0,34.0,25.86,0.0,3.0,1641.0,134.0,-3.71,0.07,-1.06,-0.07,-0.89,-27.65,-12.17,557.0,,,0.0,1.0,1.0,100.0
1580,1,walk,walk,19311,,19311.0,20.0,0.0,0.0,1.0,1.33,0.07,-0.226,0.0,34.0,25.86,0.0,3.0,1641.0,134.0,-3.44,0.06,-1.06,-0.07,-1.15,-23.57,-9.6,557.0,,,0.0,1.0,1.0,100.0
1600,1,walk,walk,19312,,19312.0,20.0,0.0,0.0,1.0,1.07,0.066,-0.338,0.0,34.0,25.9,0.0,3.0,1641.0,134.0,-3.11,0.06,-1.06,-0.06,-1.48,-19.92,-7.07,557.0,,,0.0,1.0,1.0,100.0
1600,1,walk,walk,19313,,19313.0,20.0,0.0,0.0,1.0,0.8,0.059,-0.528,0.0,34.0,25.86,0.0,3.0,1641.0,134.0,-2.75,0.05,-1.05,-0.06,-1.85,-16.69,-4.67,557.0,,,0.0,1.0,1.0,100.0
1640,1,walk,walk,19314,,19314.0,20.0,0.0,0.0,1.0,0.53,0.05,-0.557,0.0,34.0,25.86,0.0,3.0,1641.0,134.0,-2.41,0.04,-1.05,-0.06,-2.23,-13.85,-2.37,557.0,,,0.0,1.0,1.0,100.0
1640,1,walk,walk,19315,,19315.0,20.0,0.0,0.0,1.0,0.26,0.043,-0.557,0.0,34.0,25.9,0.0,3.0,1641.0,134.0,-2.08,0.04,-1.05,-0.05,-2.58,-11.39,-0.16,557.0,,,0.0,1.0,1.0,100.0
1660,1,walk,walk,19316,,19316.0,20.0,0.0,0.0,1.0,-0.01,0.035,-0.596,0.0,34.0,25.86,0.0,3.0,1641.0,134.0,-1.77,0.03,-1.04,-0.05,-2.89,-9.26,1.96,557.0,,,0.0,1.0,1.0,100.0
1680,1,walk,walk,19317,,19317.0,20.0,0.0,0.0,1.0,-0.26,0.025,-0.589,0.0,34.0,25.86,0.0,3.0,1641.0,134.0,-1.48,0.03,-1.04,-0.05,-3.15,-7.44,4.02,557.0,,,0.0,1.0,1.0,100.0
1700,1,walk,walk,19318,,19318.0,20.0,0.0,0.0,1.0,-0.49,0.018,-0.424,0.0,34.0,25.9,0.0,3.0,1641.0,134.0,-1.2,0.02,-1.04,-0.05,-3.33,-5.89,5.95,557.0,,,0.0,1.0,1.0,100.0
1740,1,walk,walk,19319,,19319.0,20.0,0.0,0.0,1.0,-0.7,0.014,-0.275,0.0,34.0,25.86,0.0,3.0,1641.0,134.0,-0.91,0.02,-1.03,-0.05,-3.43,-4.61,7.66,557.0,,,0.0,1.0,1.0,100.0
1740,1,walk,walk,19320,,19320.0,20.0,0.0,0.0,1.0,-0.88,0.01,-0.256,0.0,34.0,25.86,0.0,3.0,1641.0,134.0,-0.6,0.01,-1.03,-0.05,-3.43,-3.56,9.07,557.0,,,0.0,1.0,1.0,100.0
1760,1,walk,walk,19321,,19321.0,20.0,0.0,0.0,1.0,-1.04,0.007,-0.162,0.0,34.0,25.9,0.0,3.0,1641.0,134.0,-0.26,0.0,-1.03,-0.06,-3.34,-2.71,10.09,557.0,,,0.0,1.0,1.0,100.0
1780,1,walk,walk,19322,,19322.0,20.0,0.0,0.0,1.0,-1.16,0.007,0.015,0.0,34.0,25.86,0.0,3.0,1641.0,134.0,0.09,0.0,-1.03,-0.06,-3.16,-2.03,10.63,557.0,,,0.0,1.0,1.0,100.0
1800,1,walk,walk,19323,,19323.0,20.0,0.0,0.0,1.0,-1.25,0.009,0.305,0.0,34.0,25.86,0.0,3.0,1641.0,134.0,0.47,-0.01,-1.03,-0.06,-2.92,-1.5,10.59,557.0,,,0.0,1.0,1.0,100.0
1820,1,walk,walk,19324,,19324.0,20.0,0.0,0.0,1.0,-1.31,0.015,0.518,0.0,34.0,25.9,0.0,3.0,1641.0,134.0,0.85,-0.02,-1.02,-0.06,-2.63,-1.11,9.91,557.0,,,0.0,1.0,1.0,100.0
1840,1,walk,walk,19325,,19325.0,20.0,0.0,0.0,1.0,-1.33,0.02,0.311,0.0,34.0,25.86,0.0,3.0,1641.0,134.0,1.22,-0.02,-1.02,-0.06,-2.3,-0.82,8.63,557.0,,,0.0,1.0,1.0,100.0
1860,1,walk,walk,19326,,19326.0,20.0,0.0,0.0,1.0,-1.33,0.027,0.467,0.0,34.0,25.86,0.0,3.0,1641.0,134.0,1.54,-0.03,-1.02,-0.06,-1.95,-0.61,6.82,557.0,,,0.0,1.0,1.0,100.0
1880,1,walk,walk,19327,,19327.0,20.0,0.0,0.0,1.0,-1.29,0.033,0.616,0.0,34.0,25.9,0.0,3.0,1641.0,134.0,1.8,-0.03,-1.02,-0.06,-1.59,-0.45,4.6,557.0,,,0.0,1.0,1.0,100.0
1920,1,walk,walk,19328,,19328.0,20.0,0.0,0.0,1.0,-1.24,0.044,0.669,0.0,34.0,25.86,0.0,3.0,1641.0,134.0,1.98,-0.04,-1.02,-0.07,-1.22,-0.33,2.07,557.0,,,0.0,1.0,1.0,100.0
1920,1,walk,walk,19329,,19329.0,20.0,0.0,0.0,1.0,-1.16,0.052,0.657,0.0,34.0,25.86,0.0,3.0,1641.0,134.0,2.07,-0.04,-1.02,-0.07,-0.85,-0.21,-0.64,557.0,,,0.0,1.0,1.0,100.0
1940,1,walk,walk,19330,,19330.0,20.0,1.0,0.0,1.0,-1.07,0.062,0.655,0.0,34.0,25.9,0.0,4.0,1641.0,134.0,2.07,-0.04,-1.02,-0.07,-0.47,-0.12,-3.42,557.0,,,0.0,1.0,1.0,100.0
1960,1,walk,walk,19331,,19331.0,20.0,1.0,0.0,1.0,-0.97,0.073,0.734,0.0,34.0,25.86,0.0,4.0,1641.0,134.0,2.01,-0.04,-1.02,-0.07,-0.08,-0.06,-6.18,557.0,,,0.0,1.0,1.0,100.0
1980,1,walk,walk,19332,,19332.0,20.0,1.0,0.0,1.0,-0.87,0.083,0.778,0.0,34.0,25.86,0.0,4.0,1641.0,134.0,1.88,-0.03,-1.02,-0.07,0.33,-0.02,-8.87,557.0,,,0.0,1.0,1.0,100.0
2000,1,walk,walk,19333,,19333.0,20.0,1.0,0.0,1.0,-0.78,0.096,1.002,0.0,34.0,25.9,0.0,4.0,1641.0,134.0,1.69,-0.03,-1.02,-0.07,0.75,-0.01,-11.48,557.0,,,0.0,1.0,1.0,100.0
2020,1,walk,walk,19334,,19334.0,20.0,1.0,6.0,2.0,-0.69,0.109,1.01,0.0,34.0,25.86,0.0,4.0,1641.0,134.0,1.46,-0.03,-1.02,-0.07,1.16,-0.04,-14.02,557.0,,,0.0,1.0,1.0,100.0
2060,1,walk,walk,19335,,19335.0,20.0,0.0,6.0,2.0,-0.62,0.112,1.138,-0.188,34.0,25.86,0.0,17.0,1641.0,134.0,1.13,-0.02,-1.02,-0.07,1.58,0.12,-16.0,557.0,,,0.0,1.0,1.0,100.0
2060,1,walk,walk,19336,,19336.0,20.0,0.0,6.0,2.0,-0.57,0.085,-1.777,-4.036,34.0,25.44,0.0,17.0,1641.0,134.0,0.72,-0.01,-1.02,-0.07,2.02,0.61,-17.04,557.0,,,0.0,1.0,1.0,100.0
2080,1,walk,walk,19337,,19337.0,20.0,0.0,6.0,2.0,-0.54,0.065,-0.844,-5.415,34.0,25.26,0.0,17.0,1641.0,134.0,0.24,0.0,-1.02,-0.06,2.48,1.37,-17.14,557.0,,,0.0,1.0,1.0,100.0
2100,1,walk,walk,19338,,19338.0,20.0,0.0,6.0,2.0,-0.54,0.06,-0.207,-6.484,34.0,25.12,0.0,17.0,1641.0,134.0,-0.28,0.0,-1.02,-0.06,2.97,2.25,-16.37,557.0,,,0.0,1.0,1.0,100.0
2120,1,walk,walk,19339,,19339.0,20.0,0.0,6.0,2.0,-0.57,0.057,-0.284,-6.553,34.0,25.09,0.0,17.0,1641.0,134.0,-0.82,0.01,-1.02,-0.06,3.48,3.1,-14.87,557.0,,,0.0,1.0,1.0,100.0
2140,1,walk,walk,19340,,19340.0,20.0,0.0,6.0,2.0,-0.62,0.054,-0.249,-6.192,34.0,25.16,0.0,17.0,1641.0,134.0,-1.36,0.02,-1.03,-0.06,4.03,3.79,-12.72,557.0,,,0.0,1.0,1.0,100.0
2160,1,walk,walk,19341,,19341.0,20.0,1.0,6.0,2.0,-0.7,0.049,-0.299,-5.607,34.0,25.26,0.0,18.0,1641.0,134.0,-1.89,0.03,-1.03,-0.06,4.62,4.22,-9.99,557.0,,,0.0,1.0,1.0,100.0
2180,1,walk,walk,19342,,19342.0,20.0,1.0,6.0,2.0,-0.81,0.043,-0.448,-4.841,34.0,25.37,0.0,18.0,1641.0,134.0,-2.36,0.04,-1.03,-0.06,5.26,4.38,-6.77,557.0,,,0.0,1.0,1.0,100.0
2200,1,walk,walk,19343,,19343.0,20.0,1.0,6.0,2.0,-0.93,0.037,-0.394,-4.102,34.0,25.51,0.0,18.0,1641.0,134.0,-2.76,0.05,-1.03,-0.06,5.93,4.22,-3.15,557.0,,,0.0,1.0,1.0,100.0
2220,1,walk,walk,19344,,19344.0,20.0,1.0,6.0,2.0,-1.07,0.031,-0.461,-3.308,34.0,25.62,0.0,18.0,1641.0,134.0,-3.05,0.06,-1.04,-0.06,6.58,3.7,0.71,557.0,,,0.0,1.0,1.0,100.0
2240,1,walk,walk,19345,,19345.0,20.0,1.0,6.0,2.0,-1.21,0.025,-0.3,-2.847,34.0,25.69,0.0,18.0,1641.0,134.0,-3.19,0.06,-1.04,-0.07,7.09,2.75,4.61,557.0,,,0.0,1.0,1.0,100.0
2260,1,walk,walk,19346,,19346.0,20.0,1.0,6.0,2.0,-1.36,0.021,-0.226,-2.507,34.0,25.72,0.0,18.0,1641.0,134.0,-3.1,0.06,-1.04,-0.07,7.23,1.01,8.3,557.0,,,0.0,1.0,1.0,100.0
2280,1,walk,walk,19347,,19347.0,20.0,1.0,6.0,2.0,-1.5,0.019,-0.013,-2.217,34.0,25.76,0.0,18.0,1641.0,134.0,-2.75,0.05,-1.04,-0.07,6.82,-2.01,11.51,557.0,,,0.0,1.0,1.0,100.0
2300,1,walk,walk,19348,,19348.0,20.0,1.0,6.0,2.0,-1.63,0.018,0.057,-2.257,34.0,25.76,0.0,18.0,1641.0,134.0,-2.11,0.04,-1.04,-0.08,5.82,-6.8,14.15,557.0,,,0.0,1.0,1.0,100.0
2320,1,walk,walk,19349,,19349.0,20.0,1.0,6.0,2.0,-1.74,0.018,-0.139,-2.183,34.0,25.79,0.0,18.0,1641.0,134.0,-1.16,0.02,-1.04,-0.09,4.32,-13.7,16.27,557.0,,,0.0,1.0,1.0,100.0
2340,1,walk,walk,19350,,19350.0,20.0,1.0,6.0,2.0,-1.82,0.016,-0.218,-1.804,34.0,25.79,0.0,18.0,1641.0,134.0,0.05,0.0,-1.05,-0.1,2.45,-22.64,17.98,557.0,,,0.0,1.0,1.0,100.0
2360,1,walk,walk,19351,,19351.0,20.0,1.0,6.0,2.0,-1.87,0.012,-0.246,-1.298,34.0,25.83,0.0,18.0,1641.0,134.0,1.39,-0.03,-1.06,-0.11,0.35,-32.99,19.51,557.0,,,0.0,1.0,1.0,100.0
2400,1,walk,walk,19352,,19352.0,20.0,1.0,6.0,2.0,-1.89,0.008,-0.276,-0.897,34.0,25.83,0.0,18.0,1641.0,134.0,2.7,-0.05,-1.07,-0.11,-1.86,-43.99,21.04,557.0,,,0.0,1.0,1.0,100.0
2400,1,walk,walk,19353,,19353.0,20.0,1.0,6.0,2.0,-1.87,0.005,-0.092,-0.635,34.0,25.86,0.0,18.0,1641.0,134.0,3.81,-0.07,-1.08,-0.12,-4.05,-54.67,22.72,557.0,,,0.0,1.0,1.0,100.0
2420,1,walk,walk,19354,,19354.0,20.0,1.0,6.0,2.0,-1.81,0.005,0.042,-0.728,34.0,25.86,0.0,18.0,1641.0,134.0,4.66,-0.09,-1.08,-0.11,-6.15,-63.97,24.64,557.0,,,0.0,1.0,1.0,100.0
2440,1,walk,walk,19355,,19355.0,20.0,1.0,6.0,2.0,-1.7,0.006,0.077,-0.76,34.0,25.86,0.0,18.0,1641.0,134.0,5.23,-0.1,-1.09,-0.11,-8.06,-71.02,26.8,557.0,,,0.0,1.0,1.0,100.0
2480,1,walk,walk,19356,,19356.0,20.0,1.0,6.0,2.0,-1.55,0.006,0.093,-0.82,34.0,25.86,0.0,18.0,1641.0,134.0,5.58,-0.11,-1.09,-0.09,-9.71,-75.39,29.02,557.0,,,0.0,1.0,1.0,100.0
2480,1,walk,walk,19357,,19357.0,20.0,1.0,6.0,2.0,-1.35,0.006,0.065,-0.771,34.0,25.86,0.0,18.0,1641.0,134.0,5.77,-0.11,-1.08,-0.08,-11.01,-77.19,31.01,557.0,,,0.0,1.0,1.0,100.0
2500,1,walk,walk,19358,,19358.0,20.0,1.0,6.0,2.0,-1.11,0.006,-0.068,-0.702,34.0,25.86,0.0,18.0,1641.0,134.0,5.86,-0.11,-1.07,-0.06,-11.87,-76.95,32.42,557.0,,,0.0,1.0,1.0,100.0
2540,1,walk,walk,19359,,19359.0,20.0,1.0,6.0,2.0,-0.82,0.006,-0.036,-0.694,34.0,25.86,0.0,18.0,1641.0,134.0,5.89,-0.11,-1.05,-0.04,-12.23,-75.46,32.86,557.0,,,0.0,1.0,1.0,100.0
2560,1,walk,walk,19360,,19360.0,20.0,1.0,6.0,2.0,-0.48,0.005,0.006,-0.682,34.0,25.86,0.0,18.0,1641.0,134.0,5.87,-0.11,-1.03,-0.03,-12.07,-73.47,31.97,557.0,,,0.0,1.0,1.0,100.0
2560,1,walk,walk,19361,,19361.0,20.0,1.0,6.0,2.0,-0.11,0.005,0.002,-0.676,34.0,25.86,0.0,18.0,1641.0,134.0,5.82,-0.1,-1.0,-0.02,-11.44,-71.55,29.48,557.0,,,0.0,1.0,1.0,100.0
2600,1,walk,walk,19362,,19362.0,20.0,0.0,6.0,2.0,0.31,0.006,0.026,-0.76,34.0,25.86,0.0,17.0,1641.0,134.0,5.74,-0.1,-0.96,-0.01,-10.42,-69.92,25.28,557.0,,,0.0,1.0,1.0,100.0
2600,1,walk,walk,19363,,19363.0,20.0,1.0,6.0,2.0,0.76,0.006,0.092,-0.868,34.0,25.83,0.0,18.0,1641.0,134.0,5.69,-0.09,-0.93,0.0,-9.09,-68.53,19.49,557.0,,,0.0,1.0,1.0,100.0
2620,1,walk,walk,19364,,19364.0,20.0,1.0,1.0,5.0,1.22,0.009,0.276,-1.316,34.0,25.83,0.0,18.0,1641.0,135.0,5.73,-0.09,-0.91,0.0,-7.56,-67.15,12.47,557.0,,,0.0,1.0,1.0,100.0
2640,1,walk,walk,19365,,19365.0,20.0,0.0,1.0,5.0,1.71,0.013,0.195,-1.882,34.0,25.65,0.0,19.0,1641.0,135.0,6.05,-0.09,-0.89,0.0,-5.88,-65.54,4.79,557.0,,,0.0,1.0,1.0,100.0
2660,1,walk,walk,19366,,19366.0,20.0,0.0,1.0,6.0,2.19,-0.014,-2.39,-3.725,34.0,25.4,0.0,19.0,1641.0,135.0,6.8,-0.1,-0.87,0.0,-4.17,-63.64,-2.6,557.0,,,0.0,1.0,1.0,100.0
2680,1,walk,walk,19367,,19367.0,20.0,0.0,1.0,6.0,2.67,-0.05,-2.185,-4.587,34.0,25.26,0.0,19.0,1641.0,135.0,7.58,-0.12,-0.87,-0.01,-2.53,-61.64,-8.92,557.0,,,0.0,1.0,1.0,100.0
2700,1,walk,walk,19368,,19368.0,20.0,0.0,1.0,6.0,3.12,-0.067,-0.732,-7.206,34.0,24.77,0.0,19.0,1641.0,135.0,7.91,-0.12,-0.88,-0.03,-0.86,-59.63,-13.92,557.0,,,0.0,1.0,1.0,100.0
2720,1,walk,walk,19369,,19369.0,20.0,0.0,1.0,6.0,3.55,-0.073,-0.046,-9.206,34.0,24.28,0.0,19.0,1641.0,135.0,7.51,-0.12,-0.89,-0.04,0.86,-57.51,-17.49,557.0,,,0.0,1.0,1.0,100.0
2740,1,walk,walk,19370,,19370.0,20.0,0.0,1.0,6.0,3.93,-0.073,0.03,-9.978,34.0,24.0,0.0,19.0,1641.0,135.0,6.53,-0.11,-0.92,-0.06,2.58,-54.86,-19.59,557.0,,,0.0,1.0,1.0,100.0
2760,1,walk,walk,19371,,19371.0,20.0,0.0,1.0,6.0,4.25,-0.075,-0.346,-9.791,34.0,24.0,0.0,19.0,1641.0,135.0,5.24,-0.09,-0.95,-0.07,4.2,-51.57,-20.22,557.0,,,0.0,1.0,1.0,100.0
2780,1,walk,walk,19372,,19372.0,20.0,0.0,3.0,7.0,4.52,-0.079,-0.163,-9.801,34.0,24.04,0.0,19.0,1641.0,135.0,3.9,-0.07,-0.97,-0.08,5.58,-47.82,-19.51,557.0,,,0.0,1.0,1.0,100.0
2800,1,walk,walk,19373,,19373.0,20.0,0.0,3.0,7.0,4.74,-0.084,-0.399,-9.43,34.0,24.14,0.0,19.0,1641.0,135.0,2.69,-0.05,-1.0,-0.08,6.6,-43.77,-17.76,557.0,,,0.0,1.0,1.0,100.0
2820,1,walk,walk,19374,,19374.0,20.0,1.0,3.0,7.0,4.88,-0.089,-0.545,-9.03,35.0,24.28,0.0,20.0,1641.0,135.0,1.73,-0.03,-1.01,-0.08,7.19,-39.51,-15.16,557.0,,,0.0,1.0,1.0,100.0
2860,1,walk,walk,19375,,19375.0,20.0,0.0,3.0,7.0,4.97,-0.094,-0.077,-8.802,35.0,24.46,0.0,19.0,1641.0,135.0,1.07,-0.02,-1.03,-0.07,7.29,-35.17,-12.11,557.0,,,0.0,1.0,1.0,100.0
2880,1,walk,walk,19376,,19376.0,20.0,0.0,3.0,7.0,5.01,-0.092,0.087,-8.134,35.0,24.7,0.0,19.0,1641.0,135.0,0.69,-0.01,-1.04,-0.07,7.05,-30.92,-8.97,557.0,,,0.0,1.0,1.0,100.0
2880,1,walk,walk,19377,,19377.0,20.0,0.0,3.0,7.0,4.99,-0.083,0.759,-7.519,35.0,25.02,0.0,19.0,1641.0,135.0,0.57,-0.01,-1.05,-0.06,6.58,-26.89,-6.17,557.0,,,0.0,1.0,1.0,100.0
2920,1,walk,walk,19378,,19378.0,20.0,0.0,3.0,7.0,4.93,-0.065,1.335,-6.152,35.0,25.37,0.0,19.0,1641.0,135.0,0.66,-0.01,-1.05,-0.06,5.94,-23.31,-4.05,557.0,,,0.0,1.0,1.0,100.0
2920,1,walk,walk,19379,,19379.0,20.0,0.0,0.0,1.0,4.83,-0.036,2.061,-4.574,35.0,25.65,0.0,19.0,1641.0,135.0,0.93,-0.02,-1.05,-0.05,5.17,-20.4,-2.94,557.0,,,0.0,1.0,1.0,100.0
2940,1,walk,walk,19380,,19380.0,20.0,0.0,0.0,1.0,4.71,-0.003,2.415,-2.596,35.0,25.65,0.0,19.0,1641.0,135.0,1.36,-0.03,-1.05,-0.05,4.28,-18.56,-3.2,557.0,,,0.0,1.0,1.0,100.0
2960,1,walk,walk,19381,,19381.0,20.0,0.0,0.0,1.0,4.57,-0.003,2.415,-2.596,35.0,25.65,0.0,39.0,1641.0,135.0,1.86,-0.03,-1.05,-0.04,3.26,-17.96,-5.05,557.0,,,0.0,1.0,1.0,100.0
2980,1,walk,walk,19382,,19382.0,20.0,0.0,0.0,1.0,4.41,-0.003,2.415,-2.596,35.0,25.65,0.0,59.0,1641.0,135.0,2.29,-0.04,-1.05,-0.04,2.19,-18.13,-7.93,557.0,,,0.0,1.0,1.0,100.0
3020,1,walk,walk,19383,,19383.0,20.0,0.0,0.0,1.0,4.25,0.078,23.504,0.0,35.0,25.86,0.0,7.0,1641.0,135.0,2.61,-0.05,-1.04,-0.04,1.16,-18.47,-11.02,557.0,,,0.0,1.0,1.0,100.0
3040,1,walk,walk,19384,,19384.0,20.0,0.0,0.0,1.0,4.08,0.08,0.175,0.0,35.0,25.86,0.0,7.0,1641.0,135.0,2.8,-0.05,-1.04,-0.03,0.2,-18.63,-13.81,557.0,,,0.0,1.0,1.0,100.0
3040,1,walk,walk,19385,,19385.0,20.0,0.0,0.0,1.0,3.91,0.08,-0.155,0.0,35.0,25.86,0.0,7.0,1641.0,135.0,2.84,-0.05,-1.04,-0.03,-0.68,-18.45,-15.99,557.0,,,0.0,1.0,1.0,100.0
3080,1,walk,walk,19386,,19386.0,20.0,1.0,0.0,1.0,3.72,0.079,-0.193,0.0,35.0,25.86,0.0,8.0,1641.0,135.0,2.76,-0.05,-1.04,-0.03,-1.46,-17.9,-17.34,557.0,,,0.0,1.0,1.0,100.0
3080,1,walk,walk,19387,,19387.0,20.0,1.0,0.0,1.0,3.54,0.075,-0.422,0.0,35.0,25.86,0.0,8.0,1641.0,135.0,2.57,-0.05,-1.04,-0.03,-2.13,-17.05,-17.81,557.0,,,0.0,1.0,1.0,100.0
3100,1,walk,walk,19388,,19388.0,20.0,1.0,0.0,1.0,3.34,0.069,-0.406,0.0,35.0,25.86,0.0,8.0,1641.0,135.0,2.31,-0.04,-1.04,-0.03,-2.7,-15.96,-17.39,557.0,,,0.0,1.0,1.0,100.0
3120,1,walk,walk,19389,,19389.0,20.0,0.0,0.0,1.0,3.14,0.062,-0.577,0.0,35.0,25.86,0.0,7.0,1641.0,135.0,2.02,-0.04,-1.03,-0.03,-3.16,-14.71,-16.17,557.0,,,0.0,1.0,1.0,100.0
3140,1,walk,walk,19390,,19390.0,20.0,1.0,0.0,1.0,2.93,0.054,-0.398,0.0,35.0,25.86,0.0,8.0,1641.0,135.0,1.73,-0.03,-1.03,-0.03,-3.54,-13.36,-14.26,557.0,,,0.0,1.0,1.0,100.0
3160,1,walk,walk,19391,,19391.0,20.0,1.0,0.0,1.0,2.71,0.047,-0.426,0.0,35.0,25.86,0.0,8.0,1641.0,135.0,1.46,-0.03,-1.03,-0.03,-3.83,-11.96,-11.85,557.0,,,0.0,1.0,1.0,100.0
3180,1,walk,walk,19392,,19392.0,20.0,1.0,0.0,1.0,2.48,0.042,-0.25,0.0,35.0,25.86,0.0,8.0,1641.0,135.0,1.24,-0.02,-1.03,-0.03,-4.03,-10.57,-9.13,557.0,,,0.0,1.0,1.0,100.0
3200,1,walk,walk,19393,,19393.0,20.0,0.0,0.0,1.0,2.25,0.038,-0.381,0.0,35.0,25.86,0.0,7.0,1641.0,135.0,1.07,-0.02,-1.03,-0.03,-4.16,-9.23,-6.3,557.0,,,0.0,1.0,1.0,100.0
3240,1,walk,walk,19394,,19394.0,20.0,0.0,0.0,1.0,2.02,0.031,-0.433,0.0,35.0,25.86,0.0,7.0,1641.0,135.0,0.97,-0.02,-1.03,-0.03,-4.22,-7.95,-3.49,557.0,,,0.0,1.0,1.0,100.0
3240,1,walk,walk,19395,,19395.0,20.0,0.0,0.0,1.0,1.79,0.025,-0.273,0.0,35.0,25.86,0.0,7.0,1641.0,135.0,0.93,-0.02,-1.03,-0.03,-4.21,-6.74,-0.82,557.0,,,0.0,1.0,1.0,100.0
3260,1,walk,walk,19396,,19396.0,20.0,0.0,0.0,1.0,1.57,0.021,-0.32,0.0,35.0,25.86,0.0,7.0,1641.0,135.0,0.94,-0.02,-1.03,-0.04,-4.16,-5.61,1.62,557.0,,,0.0,1.0,1.0,100.0
3280,1,walk,walk,19397,,19397.0,20.0,0.0,0.0,1.0,1.35,0.017,-0.211,0.0,35.0,25.86,0.0,7.0,1641.0,135.0,1.01,-0.02,-1.03,-0.04,-4.08,-4.57,3.77,557.0,,,0.0,1.0,1.0,100.0
3300,1,walk,walk,19398,,19398.0,20.0,0.0,0.0,1.0,1.16,0.014,-0.23,0.0,35.0,25.86,0.0,7.0,1641.0,135.0,1.12,-0.02,-1.03,-0.04,-3.97,-3.65,5.6,557.0,,,0.0,1.0,1.0,100.0
3320,1,walk,walk,19399,,19399.0,20.0,0.0,0.0,1.0,0.99,0.009,-0.434,0.0,35.0,25.86,0.0,7.0,1641.0,135.0,1.27,-0.02,-1.02,-0.04,-3.84,-2.85,7.11,557.0,,,0.0,1.0,1.0,100.0
3340,1,walk,walk,19400,,19400.0,20.0,0.0,0.0,1.0,0.83,0.001,-0.387,0.0,35.0,25.9,0.0,7.0,1641.0,135.0,1.44,-0.03,-1.02,-0.04,-3.69,-2.15,8.37,557.0,,,0.0,1.0,1.0,100.0
3380,1,walk,walk,19401,,19401.0,20.0,0.0,0.0,1.0,0.71,-0.004,-0.425,0.0,35.0,25.86,0.0,7.0,1641.0,135.0,1.64,-0.03,-1.02,-0.05,-3.54,-1.55,9.41,557.0,,,0.0,1.0,1.0,100.0
3400,1,walk,walk,19402,,19402.0,20.0,0.0,0.0,1.0,0.61,-0.009,-0.386,0.0,35.0,25.86,0.0,7.0,1641.0,135.0,1.84,-0.03,-1.02,-0.05,-3.38,-1.05,10.28,557.0,,,0.0,1.0,1.0,100.0
3400,1,walk,walk,19403,,19403.0,20.0,0.0,0.0,1.0,0.54,-0.016,-0.655,0.0,35.0,25.86,0.0,7.0,1641.0,135.0,2.05,-0.04,-1.02,-0.05,-3.22,-0.65,11.02,557.0,,,0.0,1.0,1.0,100.0
3420,1,walk,walk,19404,,19404.0,20.0,0.0,0.0,1.0,0.51,-0.027,-0.567,0.0,35.0,25.86,0.0,7.0,1641.0,135.0,2.26,-0.04,-1.02,-0.05,-3.07,-0.32,11.73,557.0,,,0.0,1.0,1.0,100.0
3440,1,walk,walk,19405,,19405.0,20.0,0.0,0.0,1.0,0.5,-0.033,-0.51,0.0,35.0,25.86,0.0,7.0,1641.0,135.0,2.48,-0.04,-1.02,-0.05,-2.91,-0.06,12.41,557.0,,,0.0,1.0,1.0,100.0
3460,1,walk,walk,19406,,19406.0,20.0,0.0,0.0,1.0,0.52,-0.038,-0.31,0.0,35.0,25.86,0.0,7.0,1641.0,135.0,2.72,-0.05,-1.02,-0.05,-2.76,0.14,13.02,557.0,,,0.0,1.0,1.0,100.0
3480,1,walk,walk,19407,,19407.0,20.0,0.0,0.0,1.0,0.57,-0.046,-0.426,0.0,35.0,25.86,0.0,7.0,1641.0,135.0,2.99,-0.05,-1.02,-0.05,-2.6,0.31,13.52,557.0,,,0.0,1.0,1.0,100.0
3500,1,walk,walk,19408,,19408.0,20.0,0.0,0.0,1.0,0.64,-0.049,0.01,0.0,35.0,25.86,0.0,7.0,1641.0,135.0,3.29,-0.06,-1.02,-0.06,-2.4,0.47,13.8,557.0,,,0.0,1.0,1.0,100.0
3540,1,walk,walk,19409,,19409.0,20.0,0.0,0.0,1.0,0.74,-0.047,0.222,0.0,35.0,25.86,0.0,7.0,1641.0,135.0,3.63,-0.06,-1.01,-0.06,-2.16,0.64,13.7,557.0,,,0.0,1.0,1.0,100.0
3560,1,walk,walk,19410,,19410.0,20.0,0.0,0.0,1.0,0.87,-0.041,0.569,0.0,35.0,25.86,0.0,7.0,1641.0,135.0,4.0,-0.07,-1.01,-0.06,-1.89,0.8,13.06,557.0,,,0.0,1.0,1.0,100.0
3560,1,walk,walk,19411,,19411.0,20.0,0.0,0.0,1.0,1.02,-0.03,0.684,0.0,35.0,25.86,0.0,7.0,1641.0,135.0,4.39,-0.08,-1.01,-0.06,-1.62,0.94,11.7,557.0,,,0.0,1.0,1.0,100.0
3580,1,walk,walk,19412,,19412.0,20.0,0.0,0.0,1.0,1.18,-0.019,0.847,0.0,35.0,25.86,0.0,7.0,1641.0,135.0,4.75,-0.08,-1.01,-0.06,-1.38,1.07,9.6,557.0,,,0.0,1.0,1.0,100.0
3600,1,walk,walk,19413,,19413.0,20.0,0.0,0.0,1.0,1.37,-0.003,0.949,0.0,35.0,25.86,0.0,7.0,1641.0,135.0,5.06,-0.09,-1.01,-0.06,-1.18,1.17,6.75,557.0,,,0.0,1.0,1.0,100.0
3620,1,walk,walk,19414,,19414.0,20.0,0.0,0.0,1.0,1.56,0.013,1.361,0.0,35.0,25.86,0.0,7.0,1641.0,135.0,5.28,-0.09,-1.01,-0.06,-1.02,1.25,3.28,557.0,,,0.0,1.0,1.0,100.0
3640,1,walk,walk,19415,,19415.0,20.0,0.0,6.0,2.0,1.76,0.03,0.98,0.0,35.0,25.86,0.0,7.0,1641.0,135.0,5.39,-0.1,-1.01,-0.06,-0.85,1.29,-0.66,557.0,,,0.0,1.0,1.0,100.0
3660,1,walk,walk,19416,,19416.0,20.0,0.0,6.0,2.0,1.96,0.037,1.588,-0.207,35.0,25.83,0.0,18.0,1641.0,135.0,5.34,-0.09,-1.01,-0.06,-0.63,1.5,-4.69,557.0,,,0.0,1.0,1.0,100.0
3700,1,walk,walk,19417,,19417.0,20.0,0.0,6.0,2.0,2.16,0.032,-0.335,-2.019,35.0,25.76,0.0,18.0,1641.0,135.0,5.12,-0.09,-1.01,-0.07,-0.35,1.94,-8.32,557.0,,,0.0,1.0,1.0,100.0
3700,1,walk,walk,19418,,19418.0,20.0,0.0,6.0,2.0,2.35,0.027,-0.361,-2.443,35.0,25.76,0.0,18.0,1641.0,135.0,4.77,-0.08,-1.01,-0.07,-0.03,2.55,-11.26,557.0,,,0.0,1.0,1.0,100.0
3720,1,walk,walk,19419,,19419.0,20.0,0.0,6.0,2.0,2.52,0.025,-0.088,-2.731,35.0,25.69,0.0,18.0,1641.0,135.0,4.31,-0.08,-1.02,-0.07,0.3,3.2,-13.31,557.0,,,0.0,1.0,1.0,100.0
3740,1,walk,walk,19420,,19420.0,20.0,1.0,6.0,2.0,2.67,0.022,-0.359,-2.374,35.0,25.76,0.0,19.0,1641.0,135.0,3.74,-0.07,-1.02,-0.07,0.62,3.79,-14.3,557.0,,,0.0,1.0,1.0,100.0
3760,1,walk,walk,19421,,19421.0,20.0,1.0,6.0,2.0,2.79,0.016,-0.485,-1.602,35.0,25.83,0.0,19.0,1641.0,135.0,3.08,-0.06,-1.02,-0.07,0.91,4.18,-14.08,557.0,,,0.0,1.0,1.0,100.0
3780,1,walk,walk,19422,,19422.0,20.0,1.0,6.0,2.0,2.88,0.008,-0.644,-0.627,35.0,25.86,0.0,19.0,1641.0,135.0,2.37,-0.04,-1.03,-0.07,1.2,4.26,-12.56,557.0,,,0.0,1.0,1.0,100.0
3800,1,walk,walk,19423,,19423.0,20.0,1.0,6.0,2.0,2.94,0.001,-0.493,0.524,35.0,25.86,0.0,19.0,1641.0,135.0,1.64,-0.03,-1.03,-0.07,1.52,3.9,-9.67,557.0,,,0.0,1.0,1.0,100.0
3820,1,walk,walk,19424,,19424.0,20.0,1.0,6.0,2.0,2.97,-0.007,-0.579,1.633,35.0,25.83,0.0,19.0,1641.0,135.0,0.94,-0.02,-1.04,-0.07,1.82,3.07,-5.46,557.0,,,0.0,1.0,1.0,100.0
3840,1,walk,walk,19425,,19425.0,20.0,1.0,6.0,2.0,2.97,-0.015,-0.402,2.074,35.0,25.79,0.0,19.0,1641.0,135.0,0.3,-0.01,-1.05,-0.07,1.98,1.72,-0.11,557.0,,,0.0,1.0,1.0,100.0
3900,1,walk,walk,19426,,19426.0,20.0,1.0,6.0,2.0,2.94,-0.015,0.237,1.71,35.0,25.79,0.0,19.0,1641.0,135.0,-0.27,0.0,-1.06,-0.07,1.9,-0.12,6.09,557.0,,,0.0,1.0,1.0,100.0
3900,1,walk,walk,19427,,19427.0,20.0,1.0,6.0,2.0,2.9,-0.012,0.281,1.17,35.0,25.83,0.0,19.0,1641.0,135.0,-0.72,0.01,-1.07,-0.07,1.52,-2.35,12.84,557.0,,,0.0,1.0,1.0,100.0
3900,1,walk,walk,19428,,19428.0,20.0,1.0,6.0,2.0,2.84,-0.008,0.292,0.855,35.0,25.83,0.0,19.0,1641.0,135.0,-0.98,0.02,-1.08,-0.08,0.83,-4.91,19.78,557.0,,,0.0,1.0,1.0,100.0
3920,1,walk,walk,19429,,19429.0,20.0,1.0,6.0,2.0,2.79,-0.006,0.123,0.537,35.0,25.86,0.0,19.0,1641.0,135.0,-1.06,0.02,-1.1,-0.08,-0.15,-7.75,26.58,557.0,,,0.0,1.0,1.0,100.0
3940,1,walk,walk,19430,,19430.0,20.0,1.0,6.0,2.0,2.75,-0.005,-0.021,0.412,35.0,25.86,0.0,19.0,1641.0,135.0,-0.95,0.02,-1.11,-0.08,-1.25,-10.85,32.88,557.0,,,0.0,1.0,1.0,100.0
3960,1,walk,walk,19431,,19431.0,20.0,1.0,6.0,2.0,2.73,-0.005,-0.017,0.632,35.0,25.86,0.0,19.0,1641.0,135.0,-0.75,0.01,-1.11,-0.08,-2.33,-14.19,38.24,557.0,,,0.0,1.0,1.0,100.0
3980,1,walk,walk,19432,,19432.0,20.0,1.0,6.0,2.0,2.74,-0.006,-0.075,0.811,35.0,25.83,0.0,19.0,1641.0,135.0,-0.54,0.01,-1.12,-0.08,-3.22,-17.74,42.26,557.0,,,0.0,1.0,1.0,100.0
4000,1,walk,walk,19433,,19433.0,20.0,1.0,6.0,2.0,2.79,-0.008,-0.135,1.075,35.0,25.86,0.0,19.0,1641.0,135.0,-0.42,0.01,-1.12,-0.08,-3.83,-21.36,44.6,557.0,,,0.0,1.0,1.0,100.0
4040,1,walk,walk,19434,,19434.0,20.0,1.0,6.0,2.0,2.9,-0.01,-0.1,1.331,35.0,25.83,0.0,19.0,1641.0,135.0,-0.48,0.01,-1.11,-0.08,-4.1,-24.79,45.02,557.0,,,0.0,1.0,1.0,100.0
4040,1,walk,walk,19435,,19435.0,20.0,0.0,6.0,2.0,3.05,-0.013,-0.065,1.569,35.0,25.83,0.0,18.0,1641.0,135.0,-0.78,0.01,-1.1,-0.07,-4.06,-27.7,43.43,557.0,,,0.0,1.0,1.0,100.0
4060,1,walk,walk,19436,,19436.0,20.0,1.0,6.0,2.0,3.27,-0.014,-0.139,1.705,35.0,25.83,0.0,19.0,1641.0,135.0,-1.31,0.02,-1.09,-0.07,-3.76,-29.74,39.94,557.0,,,0.0,1.0,1.0,100.0
4080,1,walk,walk,19437,,19437.0,20.0,1.0,6.0,2.0,3.53,-0.015,-0.046,1.775,35.0,25.79,0.0,19.0,1641.0,135.0,-2.05,0.04,-1.07,-0.06,-3.26,-30.56,34.73,557.0,,,0.0,1.0,1.0,100.0
4100,1,walk,walk,19438,,19438.0,20.0,1.0,6.0,2.0,3.85,-0.015,-0.096,1.793,35.0,25.79,0.0,19.0,1641.0,135.0,-2.93,0.05,-1.05,-0.05,-2.6,-29.86,28.08,557.0,,,0.0,1.0,1.0,100.0
4120,1,walk,walk,19439,,19439.0,20.0,1.0,1.0,5.0,4.2,-0.015,0.084,1.801,35.0,25.79,0.0,19.0,1641.0,136.0,-3.86,0.07,-1.03,-0.05,-1.8,-27.52,20.27,557.0,,,0.0,1.0,1.0,100.0
4140,1,walk,walk,19440,,19440.0,20.0,0.0,1.0,5.0,4.59,-0.015,0.04,1.765,35.0,25.83,0.0,19.0,1641.0,136.0,-4.66,0.08,-1.01,-0.04,-0.81,-23.54,11.94,557.0,,,0.0,1.0,1.0,100.0
4160,1,walk,walk,19441,,19441.0,20.0,0.0,1.0,5.0,4.98,-0.058,-3.672,0.028,35.0,25.83,0.0,19.0,1641.0,136.0,-5.18,0.09,-1.0,-0.04,0.43,-18.19,3.74,557.0,,,0.0,1.0,1.0,100.0
4180,1,walk,walk,19442,,19442.0,20.0,0.0,1.0,6.0,5.38,-0.107,-2.974,-0.929,35.0,25.76,0.0,19.0,1641.0,136.0,-5.28,0.09,-0.98,-0.04,1.92,-12.06,-3.98,557.0,,,0.0,1.0,1.0,100.0
4200,1,walk,walk,19443,,19443.0,20.0,0.0,1.0,6.0,5.75,-0.144,-2.239,-1.984,35.0,25.69,0.0,19.0,1641.0,136.0,-4.86,0.08,-0.97,-0.05,3.53,-5.9,-11.03,557.0,,,0.0,1.0,1.0,100.0
4220,1,walk,walk,19444,,19444.0,20.0,0.0,1.0,6.0,6.09,-0.173,-1.56,-3.148,35.0,25.58,0.0,19.0,1641.0,136.0,-3.91,0.07,-0.96,-0.06,5.09,-0.6,-17.3,557.0,,,0.0,1.0,1.0,100.0
4240,1,walk,walk,19445,,19445.0,20.0,0.0,1.0,6.0,6.38,-0.193,-1.119,-3.927,35.0,25.47,0.0,19.0,1641.0,136.0,-2.42,0.04,-0.95,-0.07,6.35,3.29,-22.76,557.0,,,0.0,1.0,1.0,100.0
4260,1,walk,walk,19446,,19446.0,20.0,0.0,1.0,6.0,6.62,-0.207,-0.706,-4.813,35.0,25.37,0.0,19.0,1641.0,136.0,-0.48,0.01,-0.94,-0.09,7.03,5.51,-27.36,557.0,,,0.0,1.0,1.0,100.0
4300,1,walk,walk,19447,,19447.0,20.0,0.0,1.0,6.0,6.78,-0.215,-0.287,-5.436,35.0,25.26,0.0,19.0,1641.0,136.0,1.84,-0.03,-0.93,-0.1,6.97,6.13,-31.05,557.0,,,0.0,1.0,1.0,100.0
4320,1,walk,walk,19448,,19448.0,20.0,0.0,1.0,6.0,6.88,-0.22,-0.068,-5.971,35.0,25.19,0.0,19.0,1641.0,136.0,4.43,-0.07,-0.92,-0.12,6.18,5.44,-33.67,557.0,,,0.0,1.0,1.0,100.0
4340,1,walk,walk,19449,,19449.0,20.0,0.0,1.0,6.0,6.89,-0.221,-0.138,-6.353,35.0,25.09,0.0,19.0,1641.0,136.0,7.19,-0.11,-0.91,-0.14,4.71,3.87,-35.19,557.0,,,0.0,1.0,1.0,100.0
4340,1,walk,walk,19450,,19450.0,20.0,0.0,1.0,6.0,6.83,-0.221,-0.079,-6.611,35.0,25.02,0.0,19.0,1641.0,136.0,9.78,-0.16,-0.91,-0.15,2.93,2.16,-35.41,557.0,,,0.0,1.0,1.0,100.0
4380,1,walk,walk,19451,,19451.0,20.0,0.0,3.0,7.0,6.7,-0.216,0.618,-7.886,35.0,24.81,0.0,19.0,1641.0,136.0,11.87,-0.19,-0.92,-0.15,1.3,1.13,-34.15,557.0,,,0.0,1.0,1.0,100.0
4380,1,walk,walk,19452,,19452.0,20.0,0.0,3.0,7.0,6.51,-0.208,0.518,-8.321,35.0,24.7,0.0,19.0,1641.0,136.0,13.25,-0.22,-0.93,-0.14,0.04,1.29,-31.47,557.0,,,0.0,1.0,1.0,100.0
4400,1,walk,walk,19453,,19453.0,20.0,0.0,3.0,7.0,6.26,-0.197,0.911,-9.058,35.0,24.46,0.0,19.0,1641.0,136.0,13.98,-0.24,-0.95,-0.12,-0.81,2.57,-27.58,557.0,,,0.0,1.0,1.0,100.0
4420,1,walk,walk,19454,,19454.0,20.0,0.0,3.0,7.0,5.96,-0.182,1.032,-9.36,35.0,24.39,0.0,19.0,1641.0,136.0,14.2,-0.25,-0.97,-0.1,-1.35,4.59,-22.87,557.0,,,0.0,1.0,1.0,100.0
4440,1,walk,walk,19455,,19455.0,20.0,0.0,3.0,7.0,5.64,-0.162,1.552,-9.688,35.0,24.46,0.0,19.0,1641.0,136.0,14.09,-0.25,-0.99,-0.08,-1.74,6.79,-17.79,557.0,,,0.0,1.0,1.0,100.0
4460,1,walk,walk,19456,,19456.0,20.0,1.0,3.0,7.0,5.29,-0.137,1.625,-8.822,35.0,24.74,0.0,20.0,1641.0,136.0,13.77,-0.25,-1.01,-0.06,-2.09,8.56,-12.72,557.0,,,0.0,1.0,1.0,100.0
4480,1,walk,walk,19457,,19457.0,20.0,0.0,3.0,7.0,4.93,-0.11,1.878,-7.642,35.0,25.09,0.0,19.0,1641.0,136.0,13.33,-0.24,-1.02,-0.04,-2.53,9.62,-8.0,557.0,,,0.0,1.0,1.0,100.0
4520,1,walk,walk,19458,,19458.0,20.0,0.0,3.0,7.0,4.59,-0.08,1.635,-5.728,35.0,25.47,0.0,19.0,1641.0,136.0,12.84,-0.24,-1.04,-0.03,-3.05,9.84,-3.86,557.0,,,0.0,1.0,1.0,100.0
4520,1,walk,walk,19459,,19459.0,20.0,0.0,0.0,1.0,4.25,-0.056,1.475,-3.416,35.0,25.72,0.0,19.0,1641.0,136.0,12.41,-0.23,-1.05,-0.02,-3.65,9.19,-0.47,557.0,,,0.0,1.0,1.0,100.0
4540,1,walk,walk,19460,,19460.0,20.0,0.0,0.0,1.0,3.94,-0.037,1.02,-1.491,36.0,25.72,0.0,19.0,1641.0,136.0,12.1,-0.23,-1.06,-0.02,-4.24,8.04,1.89,557.0,,,0.0,1.0,1.0,100.0
4580,1,walk,walk,19461,,19461.0,20.0,0.0,0.0,1.0,3.67,-0.037,1.02,-1.491,36.0,25.72,0.0,39.0,1641.0,136.0,11.84,-0.22,-1.06,-0.02,-4.75,6.63,3.49,557.0,,,0.0,1.0,1.0,100.0
4580,1,walk,walk,19462,,19462.0,20.0,0.0,0.0,1.0,3.43,-0.037,1.02,-1.491,36.0,25.72,0.0,59.0,1641.0,136.0,11.59,-0.22,-1.07,-0.02,-5.1,5.23,4.92,557.0,,,0.0,1.0,1.0,100.0
4600,1,walk,walk,19463,,19463.0,20.0,0.0,0.0,1.0,3.24,-0.047,-0.365,0.0,36.0,25.9,0.0,5.0,1641.0,136.0,11.36,-0.21,-1.07,-0.03,-5.29,3.96,6.39,557.0,,,0.0,1.0,1.0,100.0
4620,1,walk,walk,19464,,19464.0,20.0,0.0,0.0,1.0,3.09,-0.051,-0.017,0.0,36.0,25.86,0.0,5.0,1641.0,136.0,11.14,-0.21,-1.07,-0.03,-5.35,2.87,7.82,557.0,,,0.0,1.0,1.0,100.0
4640,1,walk,walk,19465,,19465.0,20.0,0.0,0.0,1.0,2.99,-0.053,-0.075,0.0,36.0,25.86,0.0,5.0,1641.0,136.0,10.93,-0.21,-1.06,-0.04,-5.32,1.97,9.08,557.0,,,0.0,1.0,1.0,100.0
4660,1,walk,walk,19466,,19466.0,20.0,0.0,0.0,1.0,2.94,-0.053,-0.005,0.0,36.0,25.86,0.0,5.0,1641.0,136.0,10.74,-0.2,-1.06,-0.04,-5.27,1.27,9.98,557.0,,,0.0,1.0,1.0,100.0
4680,1,walk,walk,19467,,19467.0,20.0,0.0,0.0,1.0,2.93,-0.052,0.08,0.0,36.0,25.86,0.0,5.0,1641.0,136.0,10.57,-0.2,-1.05,-0.04,-5.22,0.78,10.36,557.0,,,0.0,1.0,1.0,100.0
4700,1,walk,walk,19468,,19468.0,20.0,0.0,0.0,1.0,2.96,-0.05,0.268,0.0,36.0,25.86,0.0,5.0,1641.0,136.0,10.4,-0.19,-1.05,-0.05,-5.2,0.44,10.13,557.0,,,0.0,1.0,1.0,100.0
4720,1,walk,walk,19469,,19469.0,20.0,0.0,0.0,1.0,3.03,-0.047,0.163,0.0,36.0,25.86,0.0,5.0,1641.0,136.0,10.22,-0.19,-1.04,-0.05,-5.21,0.21,9.31,557.0,,,0.0,1.0,1.0,100.0
4740,1,walk,walk,19470,,19470.0,20.0,0.0,0.0,1.0,3.13,-0.042,0.32,0.0,36.0,25.86,0.0,5.0,1641.0,136.0,10.01,-0.18,-1.03,-0.06,-5.23,0.04,7.94,557.0,,,0.0,1.0,1.0,100.0
4760,1,walk,walk,19471,,19471.0,20.0,0.0,0.0,1.0,3.27,-0.035,0.397,0.0,36.0,25.9,0.0,5.0,1641.0,136.0,9.74,-0.18,-1.03,-0.06,-5.23,-0.08,6.14,557.0,,,0.0,1.0,1.0,100.0
4780,1,walk,walk,19472,,19472.0,20.0,0.0,0.0,1.0,3.43,-0.031,0.312,0.0,36.0,25.86,0.0,5.0,1641.0,136.0,9.4,-0.17,-1.03,-0.07,-5.17,-0.17,4.09,557.0,,,0.0,1.0,1.0,100.0
4800,1,walk,walk,19473,,19473.0,20.0,0.0,0.0,1.0,3.6,-0.026,0.386,0.0,36.0,25.86,0.0,5.0,1641.0,136.0,9.0,-0.16,-1.02,-0.07,-5.0,-0.22,1.92,557.0,,,0.0,1.0,1.0,100.0
4860,1,walk,walk,19474,,19474.0,20.0,0.0,0.0,1.0,3.8,-0.02,0.315,0.0,36.0,25.9,0.0,5.0,1641.0,136.0,8.55,-0.15,-1.02,-0.08,-4.71,-0.23,-0.24,557.0,,,0.0,1.0,1.0,100.0
4860,1,walk,walk,19475,,19475.0,20.0,1.0,0.0,1.0,3.99,-0.014,0.554,0.0,36.0,25.86,0.0,6.0,1641.0,136.0,8.06,-0.14,-1.02,-0.08,-4.28,-0.22,-2.33,557.0,,,0.0,1.0,1.0,100.0
4860,1,walk,walk,19476,,19476.0,20.0,1.0,6.0,2.0,4.19,-0.007,0.144,0.0,36.0,25.86,0.0,6.0,1641.0,136.0,7.57,-0.14,-1.02,-0.09,-3.74,-0.19,-4.28,557.0,,,0.0,1.0,1.0,100.0
4880,1,walk,walk,19477,,19477.0,20.0,0.0,6.0,2.0,4.39,-0.005,0.43,-0.002,36.0,25.86,0.0,18.0,1641.0,136.0,7.07,-0.13,-1.02,-0.09,-3.11,-0.11,-6.0,557.0,,,0.0,1.0,1.0,100.0
4900,1,walk,walk,19478,,19478.0,20.0,0.0,6.0,2.0,4.57,-0.003,0.194,-0.009,36.0,25.86,0.0,18.0,1641.0,136.0,6.57,-0.12,-1.02,-0.09,-2.41,-0.01,-7.42,557.0,,,0.0,1.0,1.0,100.0
4920,1,walk,walk,19479,,19479.0,20.0,0.0,6.0,2.0,4.73,-0.001,0.019,-0.088,36.0,25.86,0.0,18.0,1641.0,136.0,6.07,-0.11,-1.02,-0.1,-1.67,0.11,-8.46,557.0,,,0.0,1.0,1.0,100.0
4940,1,walk,walk,19480,,19480.0,20.0,0.0,6.0,2.0,4.88,-0.001,0.03,0.03,36.0,25.86,0.0,18.0,1641.0,136.0,5.58,-0.1,-1.02,-0.1,-0.92,0.22,-9.06,557.0,,,0.0,1.0,1.0,100.0
4960,1,walk,walk,19481,,19481.0,20.0,1.0,6.0,2.0,5.0,-0.001,0.04,0.096,36.0,25.86,0.0,19.0,1641.0,136.0,5.08,-0.09,-1.02,-0.1,-0.16,0.27,-9.14,557.0,,,0.0,1.0,1.0,100.0
5000,1,walk,walk,19482,,19482.0,20.0,0.0,6.0,2.0,5.09,-0.002,-0.163,0.367,36.0,25.86,0.0,18.0,1641.0,136.0,4.55,-0.08,-1.02,-0.1,0.59,0.23,-8.57,557.0,,,0.0,1.0,1.0,100.0
5000,1,walk,walk,19483,,19483.0,20.0,1.0,6.0,2.0,5.16,-0.004,-0.206,0.844,36.0,25.86,0.0,19.0,1641.0,136.0,4.0,-0.07,-1.03,-0.11,1.36,0.03,-7.22,557.0,,,0.0,1.0,1.0,100.0
5020,1,walk,walk,19484,,19484.0,20.0,1.0,6.0,2.0,5.21,-0.01,-0.455,1.645,36.0,25.83,0.0,19.0,1641.0,136.0,3.42,-0.06,-1.03,-0.11,2.17,-0.37,-4.96,557.0,,,0.0,1.0,1.0,100.0
5040,1,walk,walk,19485,,19485.0,20.0,1.0,6.0,2.0,5.22,-0.018,-0.463,2.502,36.0,25.76,0.0,19.0,1641.0,136.0,2.83,-0.05,-1.03,-0.11,3.0,-0.99,-1.71,557.0,,,0.0,1.0,1.0,100.0
5060,1,walk,walk,19486,,19486.0,20.0,1.0,6.0,2.0,5.22,-0.026,-0.472,3.34,36.0,25.65,0.0,19.0,1641.0,136.0,2.24,-0.04,-1.04,-0.11,3.75,-1.84,2.5,557.0,,,0.0,1.0,1.0,100.0
5080,1,walk,walk,19487,,19487.0,20.0,1.0,6.0,2.0,5.2,-0.028,-0.036,3.356,36.0,25.65,0.0,19.0,1641.0,136.0,1.66,-0.03,-1.05,-0.11,4.32,-2.85,7.57,557.0,,,0.0,1.0,1.0,100.0
5100,1,walk,walk,19488,,19488.0,20.0,1.0,6.0,2.0,5.17,-0.027,0.244,2.926,36.0,25.69,0.0,19.0,1641.0,136.0,1.12,-0.02,-1.06,-0.1,4.64,-3.93,13.36,557.0,,,0.0,1.0,1.0,100.0
5120,1,walk,walk,19489,,19489.0,20.0,1.0,6.0,2.0,5.13,-0.022,0.267,2.327,36.0,25.76,0.0,19.0,1641.0,136.0,0.68,-0.01,-1.07,-0.1,4.64,-5.01,19.67,557.0,,,0.0,1.0,1.0,100.0
5140,1,walk,walk,19490,,19490.0,20.0,1.0,6.0,2.0,5.1,-0.017,0.311,1.72,36.0,25.79,0.0,19.0,1641.0,136.0,0.4,-0.01,-1.09,-0.1,4.28,-6.09,26.31,557.0,,,0.0,1.0,1.0,100.0
5180,1,walk,walk,19491,,19491.0,20.0,1.0,6.0,2.0,5.08,-0.012,0.28,1.268,36.0,25.83,0.0,19.0,1641.0,136.0,0.28,-0.01,-1.1,-0.1,3.55,-7.19,33.09,557.0,,,0.0,1.0,1.0,100.0
5180,1,walk,walk,19492,,19492.0,20.0,1.0,6.0,2.0,5.09,-0.009,0.312,0.901,36.0,25.83,0.0,19.0,1641.0,136.0,0.35,-0.01,-1.11,-0.09,2.51,-8.35,39.84,557.0,,,0.0,1.0,1.0,100.0
5200,1,walk,walk,19493,,19493.0,20.0,1.0,6.0,2.0,5.12,-0.006,0.159,0.631,36.0,25.83,0.0,19.0,1641.0,136.0,0.56,-0.01,-1.12,-0.09,1.24,-9.62,46.33,557.0,,,0.0,1.0,1.0,100.0
5240,1,walk,walk,19494,,19494.0,20.0,1.0,6.0,2.0,5.2,-0.004,0.115,0.305,36.0,25.86,0.0,19.0,1641.0,136.0,0.84,-0.02,-1.13,-0.09,-0.12,-11.18,52.05,557.0,,,0.0,1.0,1.0,100.0
5240,1,walk,walk,19495,,19495.0,20.0,1.0,6.0,2.0,5.32,-0.004,-0.072,0.542,36.0,25.86,0.0,19.0,1641.0,136.0,1.13,-0.02,-1.13,-0.09,-1.41,-13.3,56.31,557.0,,,0.0,1.0,1.0,100.0
5260,1,walk,walk,19496,,19496.0,20.0,1.0,6.0,2.0,5.51,-0.005,-0.087,0.684,36.0,25.83,0.0,19.0,1641.0,136.0,1.29,-0.03,-1.13,-0.09,-2.52,-16.13,58.46,557.0,,,0.0,1.0,1.0,100.0
5280,1,walk,walk,19497,,19497.0,20.0,1.0,6.0,2.0,5.75,-0.007,-0.113,1.025,36.0,25.83,0.0,19.0,1641.0,136.0,1.24,-0.02,-1.12,-0.09,-3.34,-19.62,58.02,557.0,,,0.0,1.0,1.0,100.0
5300,1,walk,walk,19498,,19498.0,20.0,1.0,6.0,2.0,6.07,-0.01,-0.143,1.295,36.0,25.83,0.0,19.0,1641.0,136.0,0.89,-0.02,-1.1,-0.09,-3.85,-23.43,54.78,557.0,,,0.0,1.0,1.0,100.0
5340,1,walk,walk,19499,,19499.0,20.0,0.0,6.0,2.0,6.45,-0.012,0.005,1.336,36.0,25.83,0.0,18.0,1641.0,136.0,0.21,0.0,-1.08,-0.09,-4.09,-27.05,48.82,557.0,,,0.0,1.0,1.0,100.0
5340,1,walk,walk,19500,,19500.0,20.0,1.0,6.0,2.0,6.88,-0.012,0.018,1.317,36.0,25.83,0.0,19.0,1641.0,136.0,-0.79,0.01,-1.06,-0.09,-4.15,-29.83,40.44,557.0,,,0.0,1.0,1.0,100.0
5360,1,walk,walk,19501,,19501.0,20.0,1.0,1.0,5.0,7.37,-0.011,0.042,1.215,36.0,25.83,0.0,19.0,1641.0,137.0,-2.02,0.04,-1.03,-0.09,-4.09,-31.16,30.08,557.0,,,0.0,1.0,1.0,100.0
5380,1,walk,walk,19502,,19502.0,20.0,0.0,1.0,5.0,7.89,-0.01,0.025,1.092,36.0,25.83,0.0,19.0,1641.0,137.0,-3.33,0.06,-1.0,-0.08,-3.87,-30.53,18.57,557.0,,,0.0,1.0,1.0,100.0
5400,1,walk,walk,19503,,19503.0,20.0,0.0,1.0,5.0,8.44,-0.051,-3.513,-0.581,36.0,25.79,0.0,19.0,1641.0,137.0,-4.5,0.08,-0.98,-0.08,-3.48,-27.74,6.72,557.0,,,0.0,1.0,1.0,100.0
5440,1,walk,walk,19504,,19504.0,20.0,0.0,1.0,6.0,8.98,-0.097,-2.767,-1.738,36.0,25.69,0.0,19.0,1641.0,137.0,-5.3,0.09,-0.95,-0.08,-2.92,-23.0,-4.92,557.0,,,0.0,1.0,1.0,100.0
5460,1,walk,walk,19505,,19505.0,20.0,0.0,1.0,6.0,9.5,-0.132,-2.075,-2.797,36.0,25.58,0.0,19.0,1641.0,137.0,-5.52,0.09,-0.94,-0.08,-2.15,-16.95,-15.97,557.0,,,0.0,1.0,1.0,100.0
5480,1,walk,walk,19506,,19506.0,20.0,0.0,1.0,6.0,9.97,-0.159,-1.556,-3.694,36.0,25.47,0.0,19.0,1641.0,137.0,-5.02,0.08,-0.93,-0.09,-1.21,-10.47,-26.04,557.0,,,0.0,1.0,1.0,100.0
5480,1,walk,walk,19507,,19507.0,20.0,0.0,1.0,6.0,10.38,-0.178,-1.064,-4.505,36.0,25.4,0.0,19.0,1641.0,137.0,-3.72,0.06,-0.93,-0.1,-0.21,-4.39,-34.72,557.0,,,0.0,1.0,1.0,100.0
5500,1,walk,walk,19508,,19508.0,20.0,0.0,1.0,6.0,10.71,-0.19,-0.645,-5.293,36.0,25.23,0.0,19.0,1641.0,137.0,-1.64,0.03,-0.93,-0.11,0.65,0.68,-41.75,557.0,,,0.0,1.0,1.0,100.0
5520,1,walk,walk,19509,,19509.0,20.0,0.0,1.0,6.0,10.94,-0.198,-0.441,-5.951,36.0,25.16,0.0,19.0,1641.0,137.0,1.07,-0.02,-0.93,-0.13,1.24,4.53,-46.81,557.0,,,0.0,1.0,1.0,100.0
5540,1,walk,walk,19510,,19510.0,20.0,0.0,1.0,6.0,11.06,-0.204,-0.308,-6.291,36.0,25.09,0.0,19.0,1641.0,137.0,4.26,-0.07,-0.93,-0.14,1.35,7.28,-49.65,557.0,,,0.0,1.0,1.0,100.0
5580,1,walk,walk,19511,,19511.0,20.0,0.0,1.0,6.0,11.07,-0.206,-0.089,-6.751,36.0,25.02,0.0,19.0,1641.0,137.0,7.7,-0.13,-0.94,-0.16,0.83,9.12,-50.22,557.0,,,0.0,1.0,1.0,100.0
5580,1,walk,walk,19512,,19512.0,20.0,0.0,3.0,7.0,10.97,-0.206,-0.005,-7.05,36.0,24.98,0.0,19.0,1641.0,137.0,11.11,-0.19,-0.94,-0.17,-0.03,10.56,-48.48,557.0,,,0.0,1.0,1.0,100.0
5640,1,walk,walk,19513,,19513.0,20.0,1.0,3.0,7.0,10.76,-0.204,0.293,-7.58,36.0,24.84,0.0,20.0,1641.0,137.0,14.06,-0.24,-0.95,-0.17,-0.8,12.24,-44.54,557.0,,,0.0,1.0,1.0,100.0
5640,1,walk,walk,19514,,19514.0,20.0,0.0,3.0,7.0,10.46,-0.196,0.743,-8.538,36.0,24.56,0.0,19.0,1641.0,137.0,16.26,-0.28,-0.97,-0.17,-1.26,14.47,-38.82,557.0,,,0.0,1.0,1.0,100.0
5640,1,walk,walk,19515,,19515.0,20.0,0.0,3.0,7.0,10.08,-0.179,1.306,-9.822,36.0,24.32,0.0,19.0,1641.0,137.0,17.71,-0.31,-0.98,-0.15,-1.41,17.25,-31.88,557.0,,,0.0,1.0,1.0,100.0
5660,1,walk,walk,19516,,19516.0,20.0,0.0,3.0,7.0,9.63,-0.152,1.714,-10.121,36.0,24.25,0.0,19.0,1641.0,137.0,18.66,-0.34,-1.0,-0.13,-1.35,20.15,-24.45,557.0,,,0.0,1.0,1.0,100.0
5680,1,walk,walk,19517,,19517.0,20.0,0.0,3.0,7.0,9.14,-0.133,0.796,-8.228,36.0,24.81,0.0,19.0,1641.0,137.0,19.32,-0.35,-1.01,-0.11,-1.19,22.47,-17.32,557.0,,,0.0,1.0,1.0,100.0
5700,1,walk,walk,19518,,19518.0,20.0,0.0,3.0,7.0,8.63,-0.115,1.274,-7.005,36.0,25.16,0.0,19.0,1641.0,137.0,19.79,-0.37,-1.03,-0.09,-1.02,23.68,-11.07,557.0,,,0.0,1.0,1.0,100.0
5720,1,walk,walk,19519,,19519.0,20.0,0.0,3.0,7.0,8.11,-0.097,0.829,-4.732,36.0,25.51,0.0,19.0,1641.0,137.0,20.08,-0.38,-1.04,-0.07,-0.93,23.59,-5.98,557.0,,,0.0,1.0,1.0,100.0
5740,1,walk,walk,19520,,19520.0,20.0,0.0,0.0,1.0,7.61,-0.086,0.727,-3.183,36.0,25.72,0.0,19.0,1641.0,137.0,20.2,-0.38,-1.05,-0.06,-0.99,22.27,-2.11,557.0,,,0.0,1.0,1.0,100.0
5760,1,walk,walk,19521,,19521.0,20.0,0.0,0.0,1.0,7.15,-0.075,0.685,-1.772,36.0,25.72,0.0,19.0,1641.0,137.0,20.2,-0.39,-1.05,-0.05,-1.25,20.0,0.59,557.0,,,0.0,1.0,1.0,100.0
5820,1,walk,walk,19522,,19522.0,20.0,0.0,0.0,1.0,6.72,-0.075,0.685,-1.772,36.0,25.72,0.0,39.0,1641.0,137.0,20.06,-0.38,-1.05,-0.04,-1.76,16.91,1.98,557.0,,,0.0,1.0,1.0,100.0
5820,1,walk,walk,19523,,19523.0,20.0,0.0,0.0,1.0,6.36,-0.075,0.685,-1.772,36.0,25.72,0.0,59.0,1641.0,137.0,19.74,-0.38,-1.05,-0.03,-2.44,13.4,2.34,557.0,,,0.0,1.0,1.0,100.0
5820,1,walk,walk,19524,,19524.0,20.0,0.0,0.0,1.0,6.05,-0.035,6.169,0.0,36.0,25.86,0.0,7.0,1641.0,137.0,19.26,-0.37,-1.05,-0.03,-3.16,9.91,1.96,557.0,,,0.0,1.0,1.0,100.0
5840,1,walk,walk,19525,,19525.0,20.0,0.0,0.0,1.0,5.8,-0.031,0.332,0.0,36.0,25.86,0.0,7.0,1641.0,137.0,18.62,-0.35,-1.05,-0.03,-3.85,6.75,1.04,557.0,,,0.0,1.0,1.0,100.0
5860,1,walk,walk,19526,,19526.0,20.0,0.0,0.0,1.0,5.62,-0.026,0.398,0.0,36.0,25.86,0.0,7.0,1641.0,137.0,17.86,-0.34,-1.05,-0.04,-4.45,4.09,-0.28,557.0,,,0.0,1.0,1.0,100.0
5880,1,walk,walk,19527,,19527.0,20.0,1.0,0.0,1.0,5.5,-0.019,0.724,0.0,36.0,25.86,0.0,8.0,1641.0,137.0,17.0,-0.32,-1.04,-0.04,-4.98,1.97,-1.95,557.0,,,0.0,1.0,1.0,100.0
5900,1,walk,walk,19528,,19528.0,20.0,1.0,0.0,1.0,5.43,-0.005,0.836,0.0,36.0,25.86,0.0,8.0,1641.0,137.0,16.06,-0.3,-1.04,-0.04,-5.44,0.36,-3.93,557.0,,,0.0,1.0,1.0,100.0
5920,1,walk,walk,19529,,19529.0,20.0,1.0,0.0,1.0,5.41,0.007,1.049,0.0,36.0,25.86,0.0,8.0,1641.0,137.0,15.05,-0.28,-1.04,-0.05,-5.82,-0.81,-6.23,557.0,,,0.0,1.0,1.0,100.0
5960,1,walk,walk,19530,,19530.0,20.0,1.0,0.0,1.0,5.42,0.025,1.127,0.0,36.0,25.9,0.0,8.0,1641.0,137.0,14.0,-0.26,-1.03,-0.05,-6.12,-1.62,-8.86,557.0,,,0.0,1.0,1.0,100.0
5960,1,walk,walk,19531,,19531.0,20.0,1.0,0.0,1.0,5.47,0.048,1.666,0.0,36.0,25.86,0.0,8.0,1641.0,137.0,12.93,-0.24,-1.03,-0.06,-6.34,-2.15,-11.87,557.0,,,0.0,1.0,1.0,100.0
5980,1,walk,walk,19532,,19532.0,20.0,1.0,0.0,1.0,5.53,0.069,1.561,0.0,36.0,25.86,0.0,8.0,1641.0,137.0,11.82,-0.21,-1.03,-0.07,-6.49,-2.48,-15.24,557.0,,,0.0,1.0,1.0,100.0
6000,1,walk,walk,19533,,19533.0,20.0,1.0,0.0,1.0,5.59,0.083,0.314,0.0,36.0,25.9,0.0,8.0,1641.0,137.0,10.64,-0.19,-1.02,-0.07,-6.6,-2.65,-18.8,557.0,,,0.0,1.0,1.0,100.0
6020,1,walk,walk,19534,,19534.0,20.0,1.0,0.0,1.0,5.66,0.083,-0.344,0.0,36.0,25.86,0.0,8.0,1641.0,137.0,9.37,-0.17,-1.02,-0.08,-6.65,-2.69,-22.11,557.0,,,0.0,1.0,1.0,100.0
6040,1,walk,walk,19535,,19535.0,20.0,1.0,0.0,1.0,5.72,0.076,-0.872,0.0,36.0,25.86,0.0,8.0,1641.0,137.0,8.03,-0.14,-1.02,-0.08,-6.61,-2.63,-24.57,557.0,,,0.0,1.0,1.0,100.0
6060,1,walk,walk,19536,,19536.0,20.0,1.0,6.0,2.0,5.75,0.064,-0.767,0.0,36.0,25.9,0.0,8.0,1641.0,137.0,6.68,-0.12,-1.02,-0.09,-6.45,-2.51,-25.79,557.0,,,0.0,1.0,1.0,100.0
6080,1,walk,walk,19537,,19537.0,20.0,0.0,6.0,2.0,5.76,0.058,-1.37,0.158,36.0,25.83,0.0,18.0,1641.0,137.0,5.36,-0.1,-1.02,-0.1,-6.14,-2.33,-25.55,557.0,,,0.0,1.0,1.0,100.0
6100,1,walk,walk,19538,,19538.0,20.0,0.0,6.0,2.0,5.73,0.038,-1.207,-0.638,36.0,25.83,0.0,18.0,1641.0,137.0,4.14,-0.07,-1.02,-0.1,-5.66,-2.08,-23.85,557.0,,,0.0,1.0,1.0,100.0
6140,1,walk,walk,19539,,19539.0,20.0,1.0,6.0,2.0,5.66,0.021,-0.88,-0.815,36.0,25.83,0.0,19.0,1641.0,137.0,3.04,-0.05,-1.03,-0.11,-5.01,-1.75,-20.85,557.0,,,0.0,1.0,1.0,100.0
6140,1,walk,walk,19540,,19540.0,20.0,0.0,6.0,2.0,5.56,0.011,-0.687,-0.565,36.0,25.83,0.0,18.0,1641.0,137.0,2.08,-0.04,-1.03,-0.11,-4.2,-1.41,-16.84,557.0,,,0.0,1.0,1.0,100.0
6160,1,walk,walk,19541,,19541.0,20.0,1.0,6.0,2.0,5.42,0.004,-0.484,0.206,36.0,25.86,0.0,19.0,1641.0,137.0,1.26,-0.02,-1.03,-0.12,-3.22,-1.2,-12.06,557.0,,,0.0,1.0,1.0,100.0
6180,1,walk,walk,19542,,19542.0,20.0,0.0,6.0,2.0,5.24,-0.002,-0.519,1.061,36.0,25.83,0.0,18.0,1641.0,137.0,0.59,-0.01,-1.03,-0.12,-2.07,-1.22,-6.76,557.0,,,0.0,1.0,1.0,100.0
6200,1,walk,walk,19543,,19543.0,20.0,1.0,6.0,2.0,5.04,-0.01,-0.523,1.887,36.0,25.79,0.0,19.0,1641.0,137.0,0.03,0.0,-1.04,-0.13,-0.78,-1.49,-1.1,557.0,,,0.0,1.0,1.0,100.0
6220,1,walk,walk,19544,,19544.0,20.0,1.0,6.0,2.0,4.83,-0.019,-0.586,2.834,36.0,25.72,0.0,19.0,1641.0,137.0,-0.43,0.01,-1.04,-0.13,0.62,-1.95,4.85,557.0,,,0.0,1.0,1.0,100.0
6240,1,walk,walk,19545,,19545.0,20.0,1.0,6.0,2.0,4.6,-0.026,-0.272,3.209,36.0,25.69,0.0,19.0,1641.0,137.0,-0.81,0.01,-1.05,-0.13,2.01,-2.53,11.03,557.0,,,0.0,1.0,1.0,100.0
6260,1,walk,walk,19546,,19546.0,20.0,1.0,6.0,2.0,4.37,-0.026,0.011,2.999,36.0,25.69,0.0,19.0,1641.0,137.0,-1.12,0.02,-1.05,-0.13,3.3,-3.14,17.38,557.0,,,0.0,1.0,1.0,100.0
6300,1,walk,walk,19547,,19547.0,20.0,1.0,6.0,2.0,4.16,-0.023,0.22,2.574,36.0,25.72,0.0,19.0,1641.0,137.0,-1.35,0.03,-1.07,-0.12,4.37,-3.74,23.84,557.0,,,0.0,1.0,1.0,100.0
6300,1,walk,walk,19548,,19548.0,20.0,1.0,6.0,2.0,3.97,-0.019,0.238,2.099,36.0,25.76,0.0,19.0,1641.0,137.0,-1.49,0.03,-1.08,-0.12,5.12,-4.31,30.4,557.0,,,0.0,1.0,1.0,100.0
6320,1,walk,walk,19549,,19549.0,20.0,1.0,6.0,2.0,3.81,-0.015,0.332,1.629,36.0,25.79,0.0,19.0,1641.0,137.0,-1.51,0.03,-1.09,-0.12,5.44,-4.88,37.05,557.0,,,0.0,1.0,1.0,100.0
6340,1,walk,walk,19550,,19550.0,20.0,1.0,6.0,2.0,3.69,-0.011,0.222,1.115,36.0,25.83,0.0,19.0,1641.0,137.0,-1.42,0.03,-1.11,-0.11,5.27,-5.49,43.76,557.0,,,0.0,1.0,1.0,100.0
6360,1,walk,walk,19551,,19551.0,20.0,1.0,6.0,2.0,3.63,-0.007,0.347,0.72,36.0,25.86,0.0,19.0,1641.0,137.0,-1.2,0.02,-1.13,-0.11,4.61,-6.18,50.45,557.0,,,0.0,1.0,1.0,100.0
6380,1,walk,walk,19552,,19552.0,20.0,1.0,6.0,2.0,3.64,-0.004,0.183,0.164,36.0,25.83,0.0,19.0,1641.0,137.0,-0.88,0.02,-1.14,-0.11,3.52,-7.01,56.91,557.0,,,0.0,1.0,1.0,100.0
6400,1,walk,walk,19553,,19553.0,20.0,1.0,6.0,2.0,3.71,-0.003,0.097,0.167,36.0,25.83,0.0,19.0,1641.0,137.0,-0.52,0.01,-1.15,-0.1,2.19,-8.05,62.65,557.0,,,0.0,1.0,1.0,100.0
6440,1,walk,walk,19554,,19554.0,20.0,1.0,6.0,2.0,3.86,-0.004,0.007,0.573,36.0,25.83,0.0,19.0,1641.0,137.0,-0.22,0.0,-1.15,-0.1,0.8,-9.48,66.91,557.0,,,0.0,1.0,1.0,100.0
6440,1,walk,walk,19555,,19555.0,20.0,1.0,6.0,2.0,4.09,-0.005,-0.135,0.64,36.0,25.83,0.0,19.0,1641.0,137.0,-0.08,0.0,-1.14,-0.1,-0.44,-11.48,68.96,557.0,,,0.0,1.0,1.0,100.0
6460,1,walk,walk,19556,,19556.0,20.0,0.0,6.0,2.0,4.41,-0.007,-0.195,1.062,36.0,25.83,0.0,18.0,1641.0,137.0,-0.17,0.0,-1.12,-0.1,-1.39,-14.17,68.32,557.0,,,0.0,1.0,1.0,100.0
6480,1,walk,walk,19557,,19557.0,20.0,0.0,6.0,2.0,4.81,-0.009,-0.101,1.14,36.0,25.83,0.0,18.0,1641.0,137.0,-0.55,0.01,-1.1,-0.09,-1.95,-17.42,64.74,557.0,,,0.0,1.0,1.0,100.0
6500,1,walk,walk,19558,,19558.0,20.0,1.0,6.0,2.0,5.29,-0.01,-0.032,1.206,36.0,25.83,0.0,19.0,1641.0,137.0,-1.25,0.02,-1.07,-0.09,-2.14,-20.93,58.21,557.0,,,0.0,1.0,1.0,100.0
6520,1,walk,walk,19559,,19559.0,20.0,1.0,1.0,5.0,5.85,-0.01,-0.007,1.219,36.0,25.83,0.0,19.0,1641.0,138.0,-2.23,0.04,-1.04,-0.09,-2.03,-24.19,48.98,557.0,,,0.0,1.0,1.0,100.0
6540,1,walk,walk,19560,,19560.0,20.0,0.0,1.0,5.0,6.46,-0.01,0.001,1.148,36.0,25.83,0.0,19.0,1641.0,138.0,-3.4,0.06,-1.01,-0.08,-1.81,-26.14,37.63,557.0,,,0.0,1.0,1.0,100.0
6560,1,walk,walk,19561,,19561.0,20.0,0.0,1.0,5.0,7.12,-0.053,-3.617,-0.373,36.0,25.79,0.0,19.0,1641.0,138.0,-4.58,0.08,-0.98,-0.08,-1.61,-26.25,25.05,557.0,,,0.0,1.0,1.0,100.0
6580,1,walk,walk,19562,,19562.0,20.0,0.0,1.0,5.0,7.8,-0.101,-2.944,-1.261,36.0,25.72,0.0,19.0,1641.0,138.0,-5.58,0.09,-0.95,-0.08,-1.4,-24.3,12.0,557.0,,,0.0,1.0,1.0,100.0
6600,1,walk,walk,19563,,19563.0,20.0,0.0,1.0,5.0,8.49,-0.138,-2.101,-2.422,36.0,25.62,0.0,19.0,1641.0,138.0,-6.19,0.1,-0.93,-0.08,-1.11,-20.44,-0.99,557.0,,,0.0,1.0,1.0,100.0
6620,1,walk,walk,19564,,19564.0,20.0,0.0,1.0,6.0,9.14,-0.165,-1.514,-3.497,36.0,25.54,0.0,19.0,1641.0,138.0,-6.2,0.1,-0.92,-0.09,-0.68,-15.18,-13.47,557.0,,,0.0,1.0,1.0,100.0
6640,1,walk,walk,19565,,19565.0,20.0,0.0,1.0,6.0,9.75,-0.184,-0.996,-4.329,36.0,25.4,0.0,19.0,1641.0,138.0,-5.45,0.09,-0.91,-0.09,-0.06,-9.36,-25.0,557.0,,,0.0,1.0,1.0,100.0
6660,1,walk,walk,19566,,19566.0,20.0,0.0,1.0,6.0,10.29,-0.195,-0.75,-5.263,36.0,25.26,0.0,19.0,1641.0,138.0,-3.91,0.06,-0.91,-0.11,0.7,-3.78,-35.24,557.0,,,0.0,1.0,1.0,100.0
6680,1,walk,walk,19567,,19567.0,20.0,0.0,1.0,6.0,10.74,-0.203,-0.563,-5.837,36.0,25.16,0.0,19.0,1641.0,138.0,-1.61,0.03,-0.92,-0.12,1.44,0.95,-43.93,557.0,,,0.0,1.0,1.0,100.0
6700,1,walk,walk,19568,,19568.0,20.0,0.0,1.0,6.0,11.08,-0.207,-0.147,-6.355,36.0,25.09,0.0,19.0,1641.0,138.0,1.28,-0.02,-0.92,-0.14,1.91,4.56,-50.72,557.0,,,0.0,1.0,1.0,100.0
6720,1,walk,walk,19569,,19569.0,20.0,0.0,1.0,6.0,11.3,-0.209,-0.046,-6.74,36.0,25.02,0.0,19.0,1641.0,138.0,4.59,-0.07,-0.93,-0.16,1.9,7.09,-55.37,557.0,,,0.0,1.0,1.0,100.0
6780,1,walk,walk,19570,,19570.0,20.0,0.0,1.0,6.0,11.39,-0.209,0.143,-7.041,36.0,24.95,0.0,19.0,1641.0,138.0,8.0,-0.13,-0.94,-0.17,1.46,8.92,-57.65,557.0,,,0.0,1.0,1.0,100.0
6780,1,walk,walk,19571,,19571.0,20.0,1.0,3.0,7.0,11.35,-0.204,0.624,-8.044,36.0,24.7,0.0,20.0,1641.0,138.0,11.15,-0.19,-0.95,-0.18,0.87,10.96,-57.17,557.0,,,0.0,1.0,1.0,100.0
6780,1,walk,walk,19572,,19572.0,20.0,0.0,3.0,7.0,11.19,-0.198,0.514,-8.268,36.0,24.6,0.0,19.0,1641.0,138.0,13.73,-0.24,-0.97,-0.17,0.4,13.87,-54.01,557.0,,,0.0,1.0,1.0,100.0
6800,1,walk,walk,19573,,19573.0,20.0,0.0,3.0,7.0,10.92,-0.186,0.853,-9.302,36.0,24.35,0.0,19.0,1641.0,138.0,15.65,-0.28,-0.99,-0.16,0.15,17.73,-48.51,557.0,,,0.0,1.0,1.0,100.0
6820,1,walk,walk,19574,,19574.0,20.0,0.0,3.0,7.0,10.54,-0.17,1.18,-10.135,36.0,24.14,0.0,19.0,1641.0,138.0,17.0,-0.31,-1.01,-0.13,0.08,22.09,-41.27,557.0,,,0.0,1.0,1.0,100.0
6860,1,walk,walk,19575,,19575.0,20.0,0.0,3.0,7.0,10.08,-0.149,1.305,-9.999,36.0,24.21,0.0,19.0,1641.0,138.0,17.99,-0.33,-1.02,-0.11,0.08,26.22,-33.07,557.0,,,0.0,1.0,1.0,100.0
6880,1,walk,walk,19576,,19576.0,20.0,0.0,3.0,7.0,9.56,-0.133,0.789,-8.662,36.0,24.63,0.0,19.0,1641.0,138.0,18.73,-0.35,-1.04,-0.09,0.09,29.28,-24.73,557.0,,,0.0,1.0,1.0,100.0
6880,1,walk,walk,19577,,19577.0,20.0,0.0,3.0,7.0,8.99,-0.119,0.816,-7.318,36.0,25.05,0.0,19.0,1641.0,138.0,19.27,-0.37,-1.05,-0.07,0.1,30.74,-16.9,557.0,,,0.0,1.0,1.0,100.0
6920,1,walk,walk,19578,,19578.0,20.0,0.0,3.0,7.0,8.41,-0.108,0.547,-5.389,36.0,25.4,0.0,19.0,1641.0,138.0,19.61,-0.38,-1.06,-0.06,0.08,30.5,-9.96,557.0,,,0.0,1.0,1.0,100.0
6920,1,walk,walk,19579,,19579.0,20.0,0.0,3.0,7.0,7.83,-0.102,0.234,-3.543,37.0,25.65,0.0,19.0,1641.0,138.0,19.74,-0.38,-1.06,-0.05,-0.04,28.79,-4.08,557.0,,,0.0,1.0,1.0,100.0
6940,1,walk,walk,19580,,19580.0,20.0,0.0,0.0,1.0,7.28,-0.098,0.198,-2.186,37.0,25.76,0.0,19.0,1641.0,138.0,19.68,-0.38,-1.07,-0.04,-0.29,25.96,0.7,557.0,,,0.0,1.0,1.0,100.0
6980,1,walk,walk,19581,,19581.0,20.0,0.0,0.0,1.0,6.76,-0.092,0.414,-1.15,37.0,25.76,0.0,19.0,1641.0,138.0,19.5,-0.38,-1.07,-0.04,-0.72,22.22,4.14,557.0,,,0.0,1.0,1.0,100.0
7000,1,walk,walk,19582,,19582.0,20.0,0.0,0.0,1.0,6.3,-0.092,0.414,-1.15,37.0,25.76,0.0,39.0,1641.0,138.0,19.19,-0.37,-1.07,-0.04,-1.28,17.98,6.24,557.0,,,0.0,1.0,1.0,100.0
7000,1,walk,walk,19583,,19583.0,20.0,0.0,0.0,1.0,5.9,-0.092,0.414,-1.15,37.0,25.76,0.0,59.0,1641.0,138.0,18.76,-0.36,-1.06,-0.04,-1.88,13.74,7.27,557.0,,,0.0,1.0,1.0,100.0
7020,1,walk,walk,19584,,19584.0,20.0,0.0,0.0,1.0,5.57,-0.064,7.722,0.0,37.0,25.93,0.0,7.0,1641.0,138.0,18.23,-0.35,-1.06,-0.04,-2.45,9.81,7.41,557.0,,,0.0,1.0,1.0,100.0
7040,1,walk,walk,19585,,19585.0,20.0,0.0,0.0,1.0,5.32,-0.059,0.377,0.0,37.0,25.86,0.0,7.0,1641.0,138.0,17.63,-0.33,-1.05,-0.04,-2.95,6.43,6.77,557.0,,,0.0,1.0,1.0,100.0
7060,1,walk,walk,19586,,19586.0,20.0,0.0,0.0,1.0,5.14,-0.053,0.417,0.0,37.0,25.86,0.0,7.0,1641.0,138.0,16.96,-0.32,-1.05,-0.04,-3.38,3.68,5.47,557.0,,,0.0,1.0,1.0,100.0
7100,1,walk,walk,19587,,19587.0,20.0,0.0,0.0,1.0,5.03,-0.045,0.669,0.0,37.0,25.86,0.0,7.0,1641.0,138.0,16.21,-0.3,-1.04,-0.04,-3.75,1.56,3.58,557.0,,,0.0,1.0,1.0,100.0
7100,1,walk,walk,19588,,19588.0,20.0,0.0,0.0,1.0,4.98,-0.029,1.071,0.0,37.0,25.86,0.0,7.0,1641.0,138.0,15.41,-0.29,-1.03,-0.05,-4.06,0.04,1.12,557.0,,,0.0,1.0,1.0,100.0
7120,1,walk,walk,19589,,19589.0,20.0,1.0,0.0,1.0,4.99,-0.011,1.662,0.0,37.0,25.86,0.0,8.0,1641.0,138.0,14.56,-0.27,-1.03,-0.05,-4.32,-1.0,-1.93,557.0,,,0.0,1.0,1.0,100.0
7140,1,walk,walk,19590,,19590.0,20.0,1.0,0.0,1.0,5.04,0.012,1.718,0.0,37.0,25.86,0.0,8.0,1641.0,138.0,13.67,-0.25,-1.03,-0.05,-4.53,-1.68,-5.55,557.0,,,0.0,1.0,1.0,100.0
7160,1,walk,walk,19591,,19591.0,20.0,1.0,0.0,1.0,5.13,0.041,1.839,0.0,37.0,25.86,0.0,8.0,1641.0,138.0,12.72,-0.23,-1.02,-0.06,-4.68,-2.14,-9.75,557.0,,,0.0,1.0,1.0,100.0
7180,1,walk,walk,19592,,19592.0,20.0,1.0,0.0,1.0,5.24,0.064,1.1,0.0,37.0,25.86,0.0,8.0,1641.0,138.0,11.69,-0.21,-1.02,-0.06,-4.82,-2.48,-14.34,557.0,,,0.0,1.0,1.0,100.0
7200,1,walk,walk,19593,,19593.0,20.0,1.0,0.0,1.0,5.36,0.072,-0.191,0.0,37.0,25.86,0.0,8.0,1641.0,138.0,10.53,-0.19,-1.02,-0.06,-4.92,-2.71,-18.75,557.0,,,0.0,1.0,1.0,100.0
7220,1,walk,walk,19594,,19594.0,20.0,1.0,0.0,1.0,5.48,0.064,-0.955,0.0,37.0,25.86,0.0,8.0,1641.0,138.0,9.24,-0.17,-1.02,-0.07,-4.93,-2.83,-22.26,557.0,,,0.0,1.0,1.0,100.0
7260,1,walk,walk,19595,,19595.0,20.0,1.0,0.0,1.0,5.59,0.045,-1.098,0.0,37.0,25.86,0.0,8.0,1641.0,138.0,7.86,-0.14,-1.02,-0.07,-4.81,-2.82,-24.25,557.0,,,0.0,1.0,1.0,100.0
7260,1,walk,walk,19596,,19596.0,20.0,1.0,6.0,2.0,5.67,0.028,-1.327,0.0,37.0,25.86,0.0,8.0,1641.0,138.0,6.46,-0.12,-1.02,-0.08,-4.52,-2.7,-24.45,557.0,,,0.0,1.0,1.0,100.0
7280,1,walk,walk,19597,,19597.0,20.0,0.0,6.0,2.0,5.73,0.019,-1.565,0.175,37.0,25.83,0.0,18.0,1641.0,138.0,5.12,-0.09,-1.02,-0.08,-4.02,-2.37,-22.88,557.0,,,0.0,1.0,1.0,100.0
7300,1,walk,walk,19598,,19598.0,20.0,0.0,6.0,2.0,5.75,0.009,-0.805,0.574,37.0,25.86,0.0,18.0,1641.0,138.0,3.89,-0.07,-1.03,-0.09,-3.31,-1.94,-19.76,557.0,,,0.0,1.0,1.0,100.0
7320,1,walk,walk,19599,,19599.0,20.0,0.0,6.0,2.0,5.72,-0.002,-0.737,1.581,37.0,25.83,0.0,18.0,1641.0,138.0,2.79,-0.05,-1.03,-0.09,-2.38,-1.56,-15.35,557.0,,,0.0,1.0,1.0,100.0
7340,1,walk,walk,19600,,19600.0,20.0,0.0,6.0,2.0,5.66,-0.013,-0.724,2.392,37.0,25.76,0.0,18.0,1641.0,138.0,1.81,-0.03,-1.03,-0.1,-1.22,-1.36,-9.94,557.0,,,0.0,1.0,1.0,100.0
7360,1,walk,walk,19601,,19601.0,20.0,1.0,6.0,2.0,5.56,-0.023,-0.692,3.344,37.0,25.65,0.0,19.0,1641.0,138.0,0.92,-0.02,-1.04,-0.1,0.1,-1.42,-3.7,557.0,,,0.0,1.0,1.0,100.0
7400,1,walk,walk,19602,,19602.0,20.0,1.0,6.0,2.0,5.44,-0.029,-0.26,3.631,37.0,25.62,0.0,19.0,1641.0,138.0,0.13,0.0,-1.05,-0.1,1.43,-1.75,3.22,557.0,,,0.0,1.0,1.0,100.0
7400,1,walk,walk,19603,,19603.0,20.0,1.0,6.0,2.0,5.29,-0.029,0.124,3.415,37.0,25.62,0.0,19.0,1641.0,138.0,-0.56,0.01,-1.06,-0.1,2.65,-2.27,10.62,557.0,,,0.0,1.0,1.0,100.0
7420,1,walk,walk,19604,,19604.0,20.0,1.0,6.0,2.0,5.12,-0.024,0.389,2.525,37.0,25.69,0.0,19.0,1641.0,138.0,-1.12,0.02,-1.08,-0.1,3.63,-2.87,18.36,557.0,,,0.0,1.0,1.0,100.0
7440,1,walk,walk,19605,,19605.0,20.0,1.0,6.0,2.0,4.96,-0.018,0.51,1.808,37.0,25.76,0.0,19.0,1641.0,138.0,-1.52,0.03,-1.09,-0.1,4.29,-3.52,26.28,557.0,,,0.0,1.0,1.0,100.0
7460,1,walk,walk,19606,,19606.0,20.0,1.0,6.0,2.0,4.82,-0.012,0.464,1.179,37.0,25.83,0.0,19.0,1641.0,138.0,-1.71,0.03,-1.11,-0.1,4.54,-4.21,34.21,557.0,,,0.0,1.0,1.0,100.0
7480,1,walk,walk,19607,,19607.0,20.0,1.0,6.0,2.0,4.69,-0.007,0.234,0.742,37.0,25.86,0.0,19.0,1641.0,138.0,-1.69,0.03,-1.12,-0.09,4.4,-4.94,41.98,557.0,,,0.0,1.0,1.0,100.0
7500,1,walk,walk,19608,,19608.0,20.0,1.0,6.0,2.0,4.61,-0.004,0.105,0.318,37.0,25.83,0.0,19.0,1641.0,138.0,-1.46,0.03,-1.14,-0.09,3.92,-5.74,49.39,557.0,,,0.0,1.0,1.0,100.0
7520,1,walk,walk,19609,,19609.0,20.0,1.0,6.0,2.0,4.57,-0.003,0.166,0.102,37.0,25.83,0.0,19.0,1641.0,138.0,-1.1,0.02,-1.14,-0.09,3.21,-6.65,56.05,557.0,,,0.0,1.0,1.0,100.0
7540,1,walk,walk,19610,,19610.0,20.0,1.0,6.0,2.0,4.6,-0.002,0.026,0.148,37.0,25.83,0.0,19.0,1641.0,138.0,-0.69,0.01,-1.15,-0.09,2.43,-7.93,61.34,557.0,,,0.0,1.0,1.0,100.0
7580,1,walk,walk,19611,,19611.0,20.0,1.0,6.0,2.0,4.7,-0.003,-0.079,0.399,37.0,25.83,0.0,19.0,1641.0,138.0,-0.34,0.01,-1.14,-0.08,1.71,-9.79,64.57,557.0,,,0.0,1.0,1.0,100.0
7580,1,walk,walk,19612,,19612.0,20.0,1.0,6.0,2.0,4.87,-0.004,-0.04,0.748,37.0,25.83,0.0,19.0,1641.0,138.0,-0.13,0.0,-1.13,-0.08,1.17,-12.41,65.18,557.0,,,0.0,1.0,1.0,100.0
7600,1,walk,walk,19613,,19613.0,20.0,0.0,6.0,2.0,5.13,-0.006,-0.202,0.974,37.0,25.83,0.0,18.0,1641.0,138.0,-0.17,0.0,-1.11,-0.08,0.89,-15.72,62.85,557.0,,,0.0,1.0,1.0,100.0
7620,1,walk,walk,19614,,19614.0,20.0,1.0,6.0,2.0,5.47,-0.009,-0.178,1.143,37.0,25.83,0.0,19.0,1641.0,138.0,-0.48,0.01,-1.08,-0.08,0.89,-19.42,57.54,557.0,,,0.0,1.0,1.0,100.0
7640,1,walk,walk,19615,,19615.0,20.0,1.0,6.0,2.0,5.89,-0.01,-0.036,1.269,37.0,25.83,0.0,19.0,1641.0,138.0,-1.1,0.02,-1.05,-0.08,1.12,-23.01,49.46,557.0,,,0.0,1.0,1.0,100.0
7660,1,walk,walk,19616,,19616.0,20.0,1.0,1.0,5.0,6.38,-0.011,0.036,1.321,37.0,25.83,0.0,19.0,1641.0,139.0,-1.99,0.04,-1.02,-0.08,1.48,-25.86,39.03,557.0,,,0.0,1.0,1.0,100.0
7680,1,walk,walk,19617,,19617.0,20.0,0.0,1.0,5.0,6.92,-0.011,-0.007,1.296,37.0,25.83,0.0,19.0,1641.0,139.0,-3.03,0.05,-0.99,-0.08,1.92,-27.38,27.1,557.0,,,0.0,1.0,1.0,100.0
7740,1,walk,walk,19618,,19618.0,20.0,0.0,1.0,5.0,7.5,-0.056,-3.664,-0.093,37.0,25.79,0.0,19.0,1641.0,139.0,-4.06,0.07,-0.97,-0.08,2.33,-27.09,14.64,557.0,,,0.0,1.0,1.0,100.0
7740,1,walk,walk,19619,,19619.0,20.0,0.0,1.0,5.0,8.09,-0.105,-2.976,-1.052,37.0,25.76,0.0,19.0,1641.0,139.0,-4.89,0.08,-0.95,-0.08,2.76,-24.74,2.4,557.0,,,0.0,1.0,1.0,100.0
7740,1,walk,walk,19620,,19620.0,20.0,0.0,1.0,6.0,8.68,-0.142,-2.118,-2.071,37.0,25.65,0.0,19.0,1641.0,139.0,-5.35,0.09,-0.94,-0.08,3.3,-20.46,-9.13,557.0,,,0.0,1.0,1.0,100.0
7760,1,walk,walk,19621,,19621.0,20.0,0.0,1.0,6.0,9.23,-0.172,-1.719,-2.866,37.0,25.62,0.0,19.0,1641.0,139.0,-5.29,0.09,-0.93,-0.08,3.98,-14.79,-19.66,557.0,,,0.0,1.0,1.0,100.0
7780,1,walk,walk,19622,,19622.0,20.0,0.0,1.0,6.0,9.73,-0.195,-1.216,-3.549,37.0,25.51,0.0,19.0,1641.0,139.0,-4.62,0.08,-0.93,-0.09,4.73,-8.44,-28.96,557.0,,,0.0,1.0,1.0,100.0
7800,1,walk,walk,19623,,19623.0,20.0,0.0,1.0,6.0,10.16,-0.213,-1.123,-3.991,37.0,25.47,0.0,19.0,1641.0,139.0,-3.33,0.05,-0.94,-0.1,5.49,-2.26,-36.89,557.0,,,0.0,1.0,1.0,100.0
7820,1,walk,walk,19624,,19624.0,20.0,0.0,1.0,6.0,10.5,-0.226,-0.925,-4.204,37.0,25.44,0.0,19.0,1641.0,139.0,-1.51,0.02,-0.94,-0.11,6.14,3.09,-43.37,557.0,,,0.0,1.0,1.0,100.0
7840,1,walk,walk,19625,,19625.0,20.0,0.0,1.0,6.0,10.73,-0.236,-0.498,-4.703,37.0,25.37,0.0,19.0,1641.0,139.0,0.71,-0.01,-0.95,-0.13,6.39,7.21,-48.22,557.0,,,0.0,1.0,1.0,100.0
7880,1,walk,walk,19626,,19626.0,20.0,0.0,1.0,6.0,10.84,-0.243,-0.283,-5.186,37.0,25.3,0.0,19.0,1641.0,139.0,3.19,-0.05,-0.96,-0.14,6.06,9.91,-51.41,557.0,,,0.0,1.0,1.0,100.0
7880,1,walk,walk,19627,,19627.0,20.0,0.0,1.0,6.0,10.84,-0.247,-0.211,-5.449,37.0,25.26,0.0,19.0,1641.0,139.0,5.76,-0.1,-0.97,-0.16,5.17,11.18,-52.96,557.0,,,0.0,1.0,1.0,100.0
7900,1,walk,walk,19628,,19628.0,20.0,0.0,3.0,7.0,10.72,-0.25,-0.217,-5.704,37.0,25.23,0.0,19.0,1641.0,139.0,8.29,-0.14,-0.98,-0.17,3.75,11.21,-52.9,557.0,,,0.0,1.0,1.0,100.0
7920,1,walk,walk,19629,,19629.0,20.0,0.0,3.0,7.0,10.49,-0.251,-0.066,-5.857,37.0,25.23,0.0,19.0,1641.0,139.0,10.67,-0.18,-0.98,-0.17,1.83,10.25,-51.39,557.0,,,0.0,1.0,1.0,100.0
7940,1,walk,walk,19630,,19630.0,20.0,0.0,3.0,7.0,10.15,-0.251,-0.099,-5.984,37.0,25.19,0.0,19.0,1641.0,139.0,12.83,-0.22,-0.98,-0.18,-0.49,8.58,-48.63,557.0,,,0.0,1.0,1.0,100.0
7960,1,walk,walk,19631,,19631.0,20.0,0.0,3.0,7.0,9.73,-0.251,0.018,-5.917,37.0,25.23,0.0,19.0,1641.0,139.0,14.71,-0.26,-0.98,-0.18,-3.08,6.47,-44.89,557.0,,,0.0,1.0,1.0,100.0
7980,1,walk,walk,19632,,19632.0,20.0,0.0,3.0,7.0,9.23,-0.25,0.209,-6.047,37.0,25.23,0.0,19.0,1641.0,139.0,16.09,-0.28,-0.98,-0.17,-5.43,4.64,-40.24,557.0,,,0.0,1.0,1.0,100.0
8000,1,walk,walk,19633,,19633.0,20.0,0.0,3.0,7.0,8.66,-0.237,0.829,-6.823,37.0,25.09,0.0,19.0,1641.0,139.0,16.85,-0.3,-0.99,-0.15,-7.14,3.72,-34.83,557.0,,,0.0,1.0,1.0,100.0
8020,1,walk,walk,19634,,19634.0,20.0,0.0,3.0,7.0,8.06,-0.221,1.339,-7.41,37.0,24.98,0.0,19.0,1641.0,139.0,16.99,-0.31,-1.0,-0.12,-8.1,4.01,-28.94,557.0,,,0.0,1.0,1.0,100.0
8060,1,walk,walk,19635,,19635.0,20.0,0.0,3.0,7.0,7.44,-0.196,1.897,-7.694,37.0,25.02,0.0,19.0,1641.0,139.0,16.65,-0.3,-1.01,-0.09,-8.46,5.38,-22.9,557.0,,,0.0,1.0,1.0,100.0
8060,1,walk,walk,19636,,19636.0,20.0,0.0,3.0,7.0,6.8,-0.164,2.418,-7.804,37.0,25.12,0.0,19.0,1641.0,139.0,16.01,-0.29,-1.02,-0.06,-8.43,7.36,-17.1,557.0,,,0.0,1.0,1.0,100.0
8080,1,walk,walk,19637,,19637.0,20.0,0.0,3.0,7.0,6.18,-0.126,2.462,-6.912,37.0,25.3,0.0,19.0,1641.0,139.0,15.24,-0.28,-1.03,-0.03,-8.24,9.24,-11.96,557.0,,,0.0,1.0,1.0,100.0
8100,1,walk,walk,19638,,19638.0,20.0,0.0,3.0,7.0,5.59,-0.083,2.9,-5.951,37.0,25.54,0.0,19.0,1641.0,139.0,14.42,-0.27,-1.04,-0.01,-8.08,10.37,-7.83,557.0,,,0.0,1.0,1.0,100.0
8140,1,walk,walk,19639,,19639.0,20.0,0.0,3.0,7.0,5.03,-0.036,2.999,-4.409,37.0,25.72,0.0,19.0,1641.0,139.0,13.66,-0.26,-1.05,0.0,-7.99,10.53,-4.86,557.0,,,0.0,1.0,1.0,100.0
8140,1,walk,walk,19640,,19640.0,20.0,0.0,0.0,1.0,4.51,0.0,1.603,-2.051,37.0,25.83,0.0,19.0,1641.0,139.0,13.01,-0.25,-1.06,0.01,-7.9,9.65,-2.96,557.0,,,0.0,1.0,1.0,100.0
8160,1,walk,walk,19641,,19641.0,20.0,0.0,0.0,1.0,4.05,0.018,0.628,-0.535,37.0,25.83,0.0,19.0,1641.0,139.0,12.43,-0.24,-1.07,0.01,-7.72,7.94,-1.66,557.0,,,0.0,1.0,1.0,100.0
8180,1,walk,walk,19642,,19642.0,20.0,0.0,0.0,1.0,3.65,0.018,0.628,-0.535,37.0,25.83,0.0,39.0,1641.0,139.0,11.88,-0.23,-1.07,0.01,-7.37,5.85,-0.23,557.0,,,0.0,1.0,1.0,100.0
8220,1,walk,walk,19643,,19643.0,20.0,0.0,0.0,1.0,3.31,0.018,0.628,-0.535,37.0,25.83,0.0,59.0,1641.0,139.0,11.33,-0.22,-1.08,0.0,-6.84,3.87,1.82,557.0,,,0.0,1.0,1.0,100.0
8220,1,walk,walk,19644,,19644.0,20.0,0.0,0.0,1.0,3.02,-0.042,-15.047,0.0,37.0,25.86,0.0,4.0,1641.0,139.0,10.83,-0.21,-1.08,-0.01,-6.17,2.21,4.51,557.0,,,0.0,1.0,1.0,100.0
8240,1,walk,walk,19645,,19645.0,20.0,0.0,0.0,1.0,2.8,-0.054,-0.567,0.0,37.0,25.86,0.0,4.0,1641.0,139.0,10.39,-0.2,-1.08,-0.02,-5.44,0.95,7.59,557.0,,,0.0,1.0,1.0,100.0
8260,1,walk,walk,19646,,19646.0,20.0,0.0,0.0,1.0,2.63,-0.06,-0.342,0.0,37.0,25.86,0.0,4.0,1641.0,139.0,10.05,-0.19,-1.08,-0.03,-4.71,0.04,10.68,557.0,,,0.0,1.0,1.0,100.0
8280,1,walk,walk,19647,,19647.0,20.0,0.0,0.0,1.0,2.52,-0.061,-0.057,0.0,37.0,25.86,0.0,4.0,1641.0,139.0,9.8,-0.19,-1.07,-0.03,-4.02,-0.55,13.35,557.0,,,0.0,1.0,1.0,100.0
8300,1,walk,walk,19648,,19648.0,20.0,0.0,0.0,1.0,2.46,-0.061,0.135,0.0,37.0,25.86,0.0,4.0,1641.0,139.0,9.64,-0.18,-1.06,-0.04,-3.41,-0.87,15.26,557.0,,,0.0,1.0,1.0,100.0
8320,1,walk,walk,19649,,19649.0,20.0,0.0,0.0,1.0,2.45,-0.059,0.088,0.0,37.0,25.86,0.0,4.0,1641.0,139.0,9.57,-0.18,-1.06,-0.05,-2.92,-0.9,16.18,557.0,,,0.0,1.0,1.0,100.0
8360,1,walk,walk,19650,,19650.0,20.0,0.0,0.0,1.0,2.5,-0.051,0.728,0.0,37.0,25.86,0.0,4.0,1641.0,139.0,9.55,-0.18,-1.05,-0.05,-2.57,-0.72,15.92,557.0,,,0.0,1.0,1.0,100.0
8380,1,walk,walk,19651,,19651.0,20.0,0.0,0.0,1.0,2.58,-0.036,1.428,0.0,37.0,25.86,0.0,4.0,1641.0,139.0,9.56,-0.18,-1.04,-0.06,-2.38,-0.45,14.35,557.0,,,0.0,1.0,1.0,100.0
8380,1,walk,walk,19652,,19652.0,20.0,0.0,0.0,1.0,2.71,-0.015,1.53,0.0,37.0,25.86,0.0,4.0,1641.0,139.0,9.55,-0.17,-1.03,-0.06,-2.38,-0.17,11.4,557.0,,,0.0,1.0,1.0,100.0
8420,1,walk,walk,19653,,19653.0,20.0,0.0,0.0,1.0,2.88,0.014,2.179,0.0,37.0,25.86,0.0,4.0,1641.0,139.0,9.48,-0.17,-1.02,-0.07,-2.58,0.02,7.08,557.0,,,0.0,1.0,1.0,100.0
8420,1,walk,walk,19654,,19654.0,20.0,0.0,0.0,1.0,3.07,0.05,2.559,0.0,37.0,25.9,0.0,4.0,1641.0,139.0,9.32,-0.17,-1.02,-0.07,-2.93,0.1,1.43,557.0,,,0.0,1.0,1.0,100.0
8440,1,walk,walk,19655,,19655.0,20.0,1.0,0.0,1.0,3.29,0.082,1.488,0.0,37.0,25.86,0.0,5.0,1641.0,139.0,9.02,-0.16,-1.01,-0.07,-3.42,0.1,-5.16,557.0,,,0.0,1.0,1.0,100.0
8460,1,walk,walk,19656,,19656.0,20.0,1.0,0.0,1.0,3.52,0.089,-0.12,0.0,37.0,25.86,0.0,5.0,1641.0,139.0,8.48,-0.15,-1.01,-0.08,-3.92,0.08,-11.71,557.0,,,0.0,1.0,1.0,100.0
8480,1,walk,walk,19657,,19657.0,20.0,1.0,0.0,1.0,3.74,0.081,-1.216,0.0,37.0,25.86,0.0,5.0,1641.0,139.0,7.66,-0.14,-1.01,-0.08,-4.3,0.02,-17.18,557.0,,,0.0,1.0,1.0,100.0
8500,1,walk,walk,19658,,19658.0,20.0,1.0,0.0,1.0,3.96,0.066,-0.826,0.0,37.0,25.86,0.0,5.0,1641.0,139.0,6.63,-0.12,-1.01,-0.09,-4.45,-0.09,-20.88,557.0,,,0.0,1.0,1.0,100.0
8520,1,walk,walk,19659,,19659.0,20.0,1.0,0.0,1.0,4.15,0.051,-0.75,0.0,37.0,25.86,0.0,5.0,1641.0,139.0,5.49,-0.1,-1.01,-0.09,-4.34,-0.22,-22.58,557.0,,,0.0,1.0,1.0,100.0
8540,1,walk,walk,19660,,19660.0,20.0,1.0,6.0,2.0,4.32,0.042,-0.512,0.0,37.0,25.86,0.0,5.0,1641.0,139.0,4.35,-0.08,-1.01,-0.1,-3.98,-0.34,-22.45,557.0,,,0.0,1.0,1.0,100.0
8580,1,walk,walk,19661,,19661.0,20.0,0.0,6.0,2.0,4.44,0.039,-0.532,0.133,37.0,25.83,0.0,17.0,1641.0,139.0,3.27,-0.06,-1.02,-0.11,-3.41,-0.38,-20.74,557.0,,,0.0,1.0,1.0,100.0
8580,1,walk,walk,19662,,19662.0,20.0,0.0,6.0,2.0,4.52,0.023,-0.861,-0.414,37.0,25.83,0.0,17.0,1641.0,139.0,2.31,-0.04,-1.02,-0.11,-2.66,-0.34,-17.79,557.0,,,0.0,1.0,1.0,100.0
8600,1,walk,walk,19663,,19663.0,20.0,0.0,6.0,2.0,4.55,0.012,-0.625,-0.311,37.0,25.86,0.0,17.0,1641.0,139.0,1.47,-0.03,-1.02,-0.12,-1.78,-0.35,-13.85,557.0,,,0.0,1.0,1.0,100.0
8620,1,walk,walk,19664,,19664.0,20.0,0.0,6.0,2.0,4.54,0.005,-0.516,0.362,37.0,25.86,0.0,17.0,1641.0,139.0,0.74,-0.01,-1.02,-0.12,-0.75,-0.48,-9.17,557.0,,,0.0,1.0,1.0,100.0
8640,1,walk,walk,19665,,19665.0,20.0,1.0,6.0,2.0,4.48,-0.003,-0.636,1.215,37.0,25.83,0.0,18.0,1641.0,139.0,0.11,0.0,-1.03,-0.12,0.44,-0.83,-3.91,557.0,,,0.0,1.0,1.0,100.0
8680,1,walk,walk,19666,,19666.0,20.0,0.0,6.0,2.0,4.39,-0.011,-0.51,1.989,37.0,25.79,0.0,17.0,1641.0,139.0,-0.42,0.01,-1.03,-0.13,1.77,-1.37,1.86,557.0,,,0.0,1.0,1.0,100.0
8680,1,walk,walk,19667,,19667.0,20.0,1.0,6.0,2.0,4.28,-0.02,-0.575,2.844,37.0,25.72,0.0,18.0,1641.0,139.0,-0.89,0.02,-1.04,-0.13,3.16,-2.09,8.09,557.0,,,0.0,1.0,1.0,100.0
8720,1,walk,walk,19668,,19668.0,20.0,1.0,6.0,2.0,4.14,-0.025,-0.236,3.212,37.0,25.65,0.0,18.0,1641.0,139.0,-1.3,0.02,-1.04,-0.13,4.49,-2.88,14.71,557.0,,,0.0,1.0,1.0,100.0
8720,1,walk,walk,19669,,19669.0,20.0,1.0,6.0,2.0,4.01,-0.026,0.19,2.908,37.0,25.69,0.0,18.0,1641.0,139.0,-1.66,0.03,-1.05,-0.13,5.62,-3.69,21.63,557.0,,,0.0,1.0,1.0,100.0
8740,1,walk,walk,19670,,19670.0,20.0,1.0,6.0,2.0,3.87,-0.022,0.326,2.333,37.0,25.72,0.0,18.0,1641.0,139.0,-1.93,0.04,-1.07,-0.12,6.43,-4.46,28.76,557.0,,,0.0,1.0,1.0,100.0
8760,1,walk,walk,19671,,19671.0,20.0,1.0,6.0,2.0,3.76,-0.016,0.398,1.652,37.0,25.79,0.0,18.0,1641.0,139.0,-2.09,0.04,-1.08,-0.12,6.8,-5.25,36.02,557.0,,,0.0,1.0,1.0,100.0
8780,1,walk,walk,19672,,19672.0,20.0,1.0,6.0,2.0,3.68,-0.011,0.319,1.134,37.0,25.83,0.0,18.0,1641.0,139.0,-2.1,0.04,-1.1,-0.12,6.66,-6.09,43.34,557.0,,,0.0,1.0,1.0,100.0
8800,1,walk,walk,19673,,19673.0,20.0,1.0,6.0,2.0,3.64,-0.007,0.229,0.731,37.0,25.83,0.0,18.0,1641.0,139.0,-1.94,0.04,-1.12,-0.12,6.01,-7.04,50.6,557.0,,,0.0,1.0,1.0,100.0
8820,1,walk,walk,19674,,19674.0,20.0,1.0,6.0,2.0,3.65,-0.004,0.209,0.23,37.0,25.83,0.0,18.0,1641.0,139.0,-1.62,0.03,-1.13,-0.11,4.9,-8.09,57.59,557.0,,,0.0,1.0,1.0,100.0
8840,1,walk,walk,19675,,19675.0,20.0,1.0,6.0,2.0,3.72,-0.002,0.179,-0.135,37.0,25.86,0.0,18.0,1641.0,139.0,-1.16,0.02,-1.14,-0.11,3.5,-9.32,63.9,557.0,,,0.0,1.0,1.0,100.0
8880,1,walk,walk,19676,,19676.0,20.0,1.0,6.0,2.0,3.87,0.0,-0.018,-0.112,37.0,25.83,0.0,18.0,1641.0,139.0,-0.61,0.01,-1.15,-0.11,2.0,-10.9,68.89,557.0,,,0.0,1.0,1.0,100.0
8900,1,walk,walk,19677,,19677.0,20.0,1.0,6.0,2.0,4.1,-0.001,-0.072,0.188,37.0,25.83,0.0,18.0,1641.0,139.0,-0.08,0.0,-1.15,-0.11,0.59,-13.0,71.85,557.0,,,0.0,1.0,1.0,100.0
8900,1,walk,walk,19678,,19678.0,20.0,1.0,6.0,2.0,4.41,-0.002,-0.05,0.308,37.0,25.83,0.0,18.0,1641.0,139.0,0.33,-0.01,-1.14,-0.11,-0.56,-15.75,72.22,557.0,,,0.0,1.0,1.0,100.0
8920,1,walk,walk,19679,,19679.0,20.0,1.0,6.0,2.0,4.8,-0.004,-0.14,0.574,37.0,25.83,0.0,18.0,1641.0,139.0,0.53,-0.01,-1.12,-0.11,-1.36,-19.03,69.67,557.0,,,0.0,1.0,1.0,100.0
8940,1,walk,walk,19680,,19680.0,20.0,1.0,6.0,2.0,5.28,-0.006,-0.104,0.942,37.0,25.86,0.0,18.0,1641.0,139.0,0.46,-0.01,-1.1,-0.11,-1.77,-22.55,64.12,557.0,,,0.0,1.0,1.0,100.0
8960,1,walk,walk,19681,,19681.0,20.0,0.0,6.0,2.0,5.84,-0.007,-0.156,1.037,37.0,25.83,0.0,17.0,1641.0,139.0,0.07,0.0,-1.07,-0.1,-1.84,-25.81,55.73,557.0,,,0.0,1.0,1.0,100.0
8980,1,walk,walk,19682,,19682.0,20.0,1.0,1.0,5.0,6.47,-0.009,-0.032,1.033,37.0,25.83,0.0,18.0,1641.0,140.0,-0.61,0.01,-1.03,-0.1,-1.69,-28.22,44.9,557.0,,,0.0,1.0,1.0,100.0
9000,1,walk,walk,19683,,19683.0,20.0,0.0,1.0,5.0,7.16,-0.008,0.048,1.009,37.0,25.79,0.0,19.0,1641.0,140.0,-1.49,0.03,-1.0,-0.1,-1.32,-29.15,32.56,557.0,,,0.0,1.0,1.0,100.0
9020,1,walk,walk,19684,,19684.0,20.0,0.0,1.0,5.0,7.88,-0.052,-3.648,-0.408,37.0,25.79,0.0,19.0,1641.0,140.0,-2.44,0.04,-0.96,-0.09,-0.76,-28.25,19.66,557.0,,,0.0,1.0,1.0,100.0
9060,1,walk,walk,19685,,19685.0,20.0,0.0,1.0,5.0,8.61,-0.1,-2.866,-1.334,37.0,25.72,0.0,19.0,1641.0,140.0,-3.28,0.05,-0.94,-0.09,0.03,-25.41,6.93,557.0,,,0.0,1.0,1.0,100.0
9060,1,walk,walk,19686,,19686.0,20.0,0.0,1.0,6.0,9.33,-0.136,-2.212,-2.468,37.0,25.65,0.0,19.0,1641.0,140.0,-3.82,0.06,-0.91,-0.09,1.01,-20.74,-5.26,557.0,,,0.0,1.0,1.0,100.0
9080,1,walk,walk,19687,,19687.0,20.0,0.0,1.0,6.0,10.02,-0.165,-1.519,-3.349,37.0,25.54,0.0,19.0,1641.0,140.0,-3.86,0.06,-0.9,-0.09,2.11,-14.61,-16.74,557.0,,,0.0,1.0,1.0,100.0
9100,1,walk,walk,19688,,19688.0,20.0,0.0,1.0,6.0,10.65,-0.185,-1.184,-4.164,37.0,25.44,0.0,19.0,1641.0,140.0,-3.26,0.05,-0.89,-0.1,3.3,-7.77,-27.38,557.0,,,0.0,1.0,1.0,100.0
9120,1,walk,walk,19689,,19689.0,20.0,0.0,1.0,6.0,11.2,-0.198,-0.659,-5.037,37.0,25.3,0.0,19.0,1641.0,140.0,-1.94,0.03,-0.88,-0.11,4.46,-1.07,-36.98,557.0,,,0.0,1.0,1.0,100.0
9140,1,walk,walk,19690,,19690.0,20.0,0.0,1.0,6.0,11.65,-0.207,-0.41,-5.639,37.0,25.23,0.0,19.0,1641.0,140.0,0.07,0.0,-0.89,-0.12,5.46,4.71,-45.45,557.0,,,0.0,1.0,1.0,100.0
9160,1,walk,walk,19691,,19691.0,20.0,0.0,1.0,6.0,11.98,-0.212,-0.068,-6.18,37.0,25.12,0.0,19.0,1641.0,140.0,2.66,-0.04,-0.89,-0.13,6.21,9.0,-52.66,557.0,,,0.0,1.0,1.0,100.0
9200,1,walk,walk,19692,,19692.0,20.0,0.0,1.0,6.0,12.19,-0.213,-0.065,-6.633,37.0,25.05,0.0,19.0,1641.0,140.0,5.67,-0.09,-0.9,-0.15,6.47,11.62,-58.3,557.0,,,0.0,1.0,1.0,100.0
9200,1,walk,walk,19693,,19693.0,20.0,0.0,1.0,6.0,12.27,-0.213,0.115,-6.969,37.0,24.98,0.0,19.0,1641.0,140.0,8.78,-0.14,-0.92,-0.16,6.07,12.84,-62.12,557.0,,,0.0,1.0,1.0,100.0
9220,1,walk,walk,19694,,19694.0,20.0,0.0,1.0,6.0,12.21,-0.207,0.586,-7.836,37.0,24.77,0.0,19.0,1641.0,140.0,11.65,-0.19,-0.94,-0.16,5.4,13.79,-63.52,557.0,,,0.0,1.0,1.0,100.0
9240,1,walk,walk,19695,,19695.0,20.0,0.0,3.0,7.0,12.03,-0.205,0.083,-7.532,37.0,24.84,0.0,19.0,1641.0,140.0,13.97,-0.24,-0.96,-0.16,4.83,15.39,-62.24,557.0,,,0.0,1.0,1.0,100.0
9260,1,walk,walk,19696,,19696.0,20.0,0.0,3.0,7.0,11.72,-0.2,0.399,-8.073,37.0,24.7,0.0,19.0,1641.0,140.0,15.66,-0.28,-0.99,-0.14,4.46,18.11,-58.41,557.0,,,0.0,1.0,1.0,100.0
9280,1,walk,walk,19697,,19697.0,20.0,0.0,3.0,7.0,11.31,-0.191,0.691,-8.805,37.0,24.46,0.0,19.0,1641.0,140.0,16.77,-0.3,-1.01,-0.12,4.28,21.75,-52.44,557.0,,,0.0,1.0,1.0,100.0
9320,1,walk,walk,19698,,19698.0,20.0,0.0,3.0,7.0,10.8,-0.179,0.645,-9.089,37.0,24.46,0.0,19.0,1641.0,140.0,17.44,-0.32,-1.03,-0.09,4.14,25.8,-44.88,557.0,,,0.0,1.0,1.0,100.0
9340,1,walk,walk,19699,,19699.0,20.0,0.0,3.0,7.0,10.21,-0.163,1.224,-9.458,37.0,24.46,0.0,19.0,1641.0,140.0,17.8,-0.33,-1.04,-0.07,3.91,29.52,-36.43,557.0,,,0.0,1.0,1.0,100.0
9340,1,walk,walk,19700,,19700.0,20.0,0.0,3.0,7.0,9.57,-0.143,1.49,-8.766,37.0,24.63,0.0,19.0,1641.0,140.0,17.9,-0.34,-1.05,-0.05,3.46,32.16,-27.75,557.0,,,0.0,1.0,1.0,100.0
9360,1,walk,walk,19701,,19701.0,20.0,0.0,3.0,7.0,8.9,-0.123,1.194,-7.891,37.0,24.95,0.0,19.0,1641.0,140.0,17.82,-0.34,-1.06,-0.03,2.76,33.5,-19.4,557.0,,,0.0,1.0,1.0,100.0
9380,1,walk,walk,19702,,19702.0,20.0,0.0,3.0,7.0,8.22,-0.104,1.041,-6.002,37.0,25.3,0.0,19.0,1641.0,140.0,17.61,-0.34,-1.07,-0.02,1.87,33.5,-11.81,557.0,,,0.0,1.0,1.0,100.0
9420,1,walk,walk,19703,,19703.0,20.0,0.0,3.0,7.0,7.55,-0.088,0.758,-4.407,37.0,25.58,0.0,19.0,1641.0,140.0,17.32,-0.33,-1.07,-0.01,0.93,32.19,-5.26,557.0,,,0.0,1.0,1.0,100.0
9420,1,walk,walk,19704,,19704.0,20.0,0.0,0.0,1.0,6.9,-0.075,0.565,-2.782,37.0,25.76,0.0,19.0,1641.0,140.0,16.99,-0.33,-1.07,-0.01,0.04,29.75,0.12,557.0,,,0.0,1.0,1.0,100.0
9440,1,walk,walk,19705,,19705.0,20.0,0.0,0.0,1.0,6.31,-0.065,0.761,-1.349,37.0,25.76,0.0,19.0,1641.0,140.0,16.65,-0.32,-1.07,-0.01,-0.72,26.41,4.28,557.0,,,0.0,1.0,1.0,100.0
9460,1,walk,walk,19706,,19706.0,20.0,0.0,0.0,1.0,5.77,-0.065,0.761,-1.349,37.0,25.76,0.0,39.0,1641.0,140.0,16.29,-0.31,-1.07,-0.02,-1.37,22.37,7.23,557.0,,,0.0,1.0,1.0,100.0
9480,1,walk,walk,19707,,19707.0,20.0,0.0,0.0,1.0,5.3,-0.065,0.761,-1.349,37.0,25.76,0.0,59.0,1641.0,140.0,15.88,-0.3,-1.07,-0.02,-1.93,18.11,9.29,557.0,,,0.0,1.0,1.0,100.0
9500,1,walk,walk,19708,,19708.0,20.0,0.0,0.0,1.0,4.91,-0.061,1.756,0.0,37.0,25.86,0.0,6.0,1641.0,140.0,15.44,-0.29,-1.07,-0.02,-2.38,14.05,10.76,557.0,,,0.0,1.0,1.0,100.0
9540,1,walk,walk,19709,,19709.0,20.0,0.0,0.0,1.0,4.59,-0.06,0.135,0.0,38.0,25.86,0.0,6.0,1641.0,140.0,14.99,-0.28,-1.06,-0.03,-2.77,10.39,11.7,557.0,,,0.0,1.0,1.0,100.0
9540,1,walk,walk,19710,,19710.0,20.0,0.0,0.0,1.0,4.36,-0.059,0.018,0.0,38.0,25.86,0.0,6.0,1641.0,140.0,14.54,-0.27,-1.05,-0.03,-3.09,7.27,12.09,557.0,,,0.0,1.0,1.0,100.0
9560,1,walk,walk,19711,,19711.0,20.0,0.0,0.0,1.0,4.21,-0.056,0.495,0.0,38.0,25.86,0.0,6.0,1641.0,140.0,14.09,-0.26,-1.05,-0.03,-3.38,4.76,11.88,557.0,,,0.0,1.0,1.0,100.0
9580,1,walk,walk,19712,,19712.0,20.0,0.0,0.0,1.0,4.13,-0.048,0.644,0.0,38.0,25.86,0.0,6.0,1641.0,140.0,13.66,-0.25,-1.04,-0.04,-3.64,2.84,10.98,557.0,,,0.0,1.0,1.0,100.0
9600,1,walk,walk,19713,,19713.0,20.0,0.0,0.0,1.0,4.11,-0.035,1.201,0.0,38.0,25.86,0.0,6.0,1641.0,140.0,13.24,-0.24,-1.03,-0.04,-3.88,1.41,9.31,557.0,,,0.0,1.0,1.0,100.0
9640,1,walk,walk,19714,,19714.0,20.0,0.0,0.0,1.0,4.16,-0.02,0.962,0.0,38.0,25.86,0.0,6.0,1641.0,140.0,12.8,-0.23,-1.03,-0.04,-4.1,0.41,6.83,557.0,,,0.0,1.0,1.0,100.0
9640,1,walk,walk,19715,,19715.0,20.0,0.0,0.0,1.0,4.26,0.001,1.323,0.0,38.0,25.86,0.0,6.0,1641.0,140.0,12.33,-0.22,-1.02,-0.05,-4.32,-0.26,3.52,557.0,,,0.0,1.0,1.0,100.0
9680,1,walk,walk,19716,,19716.0,20.0,0.0,0.0,1.0,4.4,0.026,1.945,0.0,38.0,25.86,0.0,6.0,1641.0,140.0,11.82,-0.21,-1.02,-0.05,-4.55,-0.7,-0.6,557.0,,,0.0,1.0,1.0,100.0
9680,1,walk,walk,19717,,19717.0,20.0,1.0,0.0,1.0,4.57,0.057,2.094,0.0,38.0,25.86,0.0,7.0,1641.0,140.0,11.26,-0.2,-1.01,-0.05,-4.79,-1.02,-5.51,557.0,,,0.0,1.0,1.0,100.0
9700,1,walk,walk,19718,,19718.0,20.0,1.0,0.0,1.0,4.76,0.082,1.075,0.0,38.0,25.86,0.0,7.0,1641.0,140.0,10.59,-0.19,-1.01,-0.06,-5.06,-1.29,-11.03,557.0,,,0.0,1.0,1.0,100.0
9720,1,walk,walk,19719,,19719.0,20.0,1.0,0.0,1.0,4.95,0.086,-0.191,0.0,38.0,25.86,0.0,7.0,1641.0,140.0,9.74,-0.17,-1.01,-0.06,-5.32,-1.53,-16.59,557.0,,,0.0,1.0,1.0,100.0
9740,1,walk,walk,19720,,19720.0,20.0,1.0,0.0,1.0,5.14,0.076,-1.368,0.0,38.0,25.86,0.0,7.0,1641.0,140.0,8.68,-0.15,-1.01,-0.07,-5.5,-1.83,-21.33,557.0,,,0.0,1.0,1.0,100.0
9760,1,walk,walk,19721,,19721.0,20.0,1.0,0.0,1.0,5.31,0.059,-1.233,0.0,38.0,25.86,0.0,7.0,1641.0,140.0,7.49,-0.13,-1.01,-0.07,-5.51,-2.15,-24.52,557.0,,,0.0,1.0,1.0,100.0
9780,1,walk,walk,19722,,19722.0,20.0,1.0,6.0,2.0,5.46,0.042,-0.844,0.0,38.0,25.86,0.0,7.0,1641.0,140.0,6.24,-0.11,-1.02,-0.08,-5.31,-2.43,-25.77,557.0,,,0.0,1.0,1.0,100.0
9820,1,walk,walk,19723,,19723.0,20.0,0.0,6.0,2.0,5.57,0.036,-1.232,0.231,38.0,25.86,0.0,18.0,1641.0,140.0,5.02,-0.09,-1.02,-0.08,-4.89,-2.66,-25.12,557.0,,,0.0,1.0,1.0,100.0
9860,1,walk,walk,19724,,19724.0,20.0,0.0,6.0,2.0,5.64,0.021,-0.996,-0.148,38.0,25.83,0.0,18.0,1641.0,140.0,3.89,-0.07,-1.02,-0.09,-4.25,-2.81,-22.83,557.0,,,0.0,1.0,1.0,100.0
9860,1,walk,walk,19725,,19725.0,20.0,0.0,6.0,2.0,5.65,0.011,-0.425,-0.236,38.0,25.83,0.0,18.0,1641.0,140.0,2.9,-0.05,-1.03,-0.09,-3.4,-2.91,-19.24,557.0,,,0.0,1.0,1.0,100.0
9880,1,walk,walk,19726,,19726.0,20.0,1.0,6.0,2.0,5.62,0.003,-0.459,0.461,38.0,25.83,0.0,19.0,1641.0,140.0,2.06,-0.04,-1.03,-0.1,-2.36,-3.01,-14.71,557.0,,,0.0,1.0,1.0,100.0
9880,1,walk,walk,19727,,19727.0,20.0,0.0,6.0,2.0,5.55,-0.003,-0.448,1.084,38.0,25.83,0.0,18.0,1641.0,140.0,1.36,-0.02,-1.03,-0.1,-1.14,-3.17,-9.54,557.0,,,0.0,1.0,1.0,100.0
9900,1,walk,walk,19728,,19728.0,20.0,1.0,6.0,2.0,5.44,-0.009,-0.366,1.608,38.0,25.79,0.0,19.0,1641.0,140.0,0.81,-0.01,-1.04,-0.1,0.25,-3.43,-3.97,557.0,,,0.0,1.0,1.0,100.0
9920,1,walk,walk,19729,,19729.0,20.0,1.0,6.0,2.0,5.29,-0.015,-0.516,2.263,38.0,25.76,0.0,19.0,1641.0,140.0,0.38,-0.01,-1.04,-0.11,1.74,-3.85,1.9,557.0,,,0.0,1.0,1.0,100.0
9940,1,walk,walk,19730,,19730.0,20.0,1.0,6.0,2.0,5.12,-0.021,-0.236,2.654,38.0,25.72,0.0,19.0,1641.0,140.0,0.02,0.0,-1.05,-0.11,3.21,-4.43,7.98,557.0,,,0.0,1.0,1.0,100.0
9960,1,walk,walk,19731,,19731.0,20.0,1.0,6.0,2.0,4.94,-0.021,0.21,2.356,38.0,25.76,0.0,19.0,1641.0,140.0,-0.29,0.01,-1.06,-0.11,4.57,-5.1,14.25,557.0,,,0.0,1.0,1.0,100.0
9980,1,walk,walk,19732,,19732.0,20.0,1.0,6.0,2.0,4.75,-0.017,0.236,1.88,38.0,25.76,0.0,19.0,1641.0,140.0,-0.57,0.01,-1.07,-0.1,5.72,-5.77,20.74,557.0,,,0.0,1.0,1.0,100.0
10000,1,walk,walk,19733,,19733.0,20.0,1.0,6.0,2.0,4.58,-0.013,0.39,1.312,38.0,25.79,0.0,19.0,1641.0,140.0,-0.79,0.01,-1.09,-0.1,6.55,-6.43,27.45,557.0,,,0.0,1.0,1.0,100.0
10020,1,walk,walk,19734,,19734.0,20.0,1.0,6.0,2.0,4.43,-0.009,0.249,0.918,38.0,25.83,0.0,19.0,1641.0,140.0,-0.93,0.02,-1.11,-0.1,6.97,-7.08,34.42,557.0,,,0.0,1.0,1.0,100.0
10040,1,walk,walk,19735,,19735.0,20.0,1.0,6.0,2.0,4.32,-0.006,0.246,0.561,38.0,25.83,0.0,19.0,1641.0,140.0,-0.97,0.02,-1.13,-0.09,6.94,-7.77,41.62,557.0,,,0.0,1.0,1.0,100.0
10060,1,walk,walk,19736,,19736.0,20.0,1.0,6.0,2.0,4.25,-0.004,-0.052,0.183,38.0,25.86,0.0,19.0,1641.0,140.0,-0.89,0.02,-1.14,-0.09,6.46,-8.46,48.91,557.0,,,0.0,1.0,1.0,100.0
10080,1,walk,walk,19737,,19737.0,20.0,1.0,6.0,2.0,4.23,-0.001,0.065,-0.168,38.0,25.86,0.0,19.0,1641.0,140.0,-0.71,0.01,-1.16,-0.09,5.63,-9.19,55.92,557.0,,,0.0,1.0,1.0,100.0
10100,1,walk,walk,19738,,19738.0,20.0,1.0,6.0,2.0,4.28,-0.001,0.1,0.039,38.0,25.83,0.0,19.0,1641.0,140.0,-0.49,0.01,-1.17,-0.09,4.58,-10.01,61.99,557.0,,,0.0,1.0,1.0,100.0
10120,1,walk,walk,19739,,19739.0,20.0,1.0,6.0,2.0,4.41,-0.001,-0.109,0.194,38.0,25.86,0.0,19.0,1641.0,140.0,-0.29,0.01,-1.17,-0.09,3.43,-11.02,66.41,557.0,,,0.0,1.0,1.0,100.0
10140,1,walk,walk,19740,,19740.0,20.0,1.0,6.0,2.0,4.61,-0.002,-0.079,0.447,38.0,25.83,0.0,19.0,1641.0,140.0,-0.2,0.0,-1.16,-0.08,2.32,-12.32,68.59,557.0,,,0.0,1.0,1.0,100.0
10160,1,walk,walk,19741,,19741.0,20.0,1.0,6.0,2.0,4.9,-0.004,-0.19,0.666,38.0,25.83,0.0,19.0,1641.0,140.0,-0.27,0.01,-1.14,-0.08,1.33,-13.96,68.13,557.0,,,0.0,1.0,1.0,100.0
10200,1,walk,walk,19742,,19742.0,20.0,0.0,6.0,2.0,5.27,-0.006,-0.015,0.81,38.0,25.83,0.0,18.0,1641.0,140.0,-0.54,0.01,-1.11,-0.08,0.52,-15.86,64.81,557.0,,,0.0,1.0,1.0,100.0
10200,1,walk,walk,19743,,19743.0,20.0,1.0,6.0,2.0,5.73,-0.007,-0.089,0.859,38.0,25.83,0.0,19.0,1641.0,140.0,-1.01,0.02,-1.08,-0.08,-0.09,-17.83,58.68,557.0,,,0.0,1.0,1.0,100.0
10220,1,walk,walk,19744,,19744.0,20.0,1.0,6.0,2.0,6.26,-0.007,-0.131,0.785,38.0,25.83,0.0,19.0,1641.0,140.0,-1.67,0.03,-1.04,-0.07,-0.53,-19.53,49.98,557.0,,,0.0,1.0,1.0,100.0
10240,1,walk,walk,19745,,19745.0,20.0,1.0,1.0,5.0,6.85,-0.007,0.037,0.839,38.0,25.83,0.0,19.0,1641.0,141.0,-2.45,0.04,-1.0,-0.07,-0.82,-20.55,39.13,557.0,,,0.0,1.0,1.0,100.0
10280,1,walk,walk,19746,,19746.0,20.0,0.0,1.0,5.0,7.48,-0.007,0.049,0.782,38.0,25.76,0.0,19.0,1641.0,141.0,-3.22,0.05,-0.97,-0.07,-0.94,-20.25,26.8,557.0,,,0.0,1.0,1.0,100.0
10280,1,walk,walk,19747,,19747.0,20.0,0.0,1.0,5.0,8.15,-0.048,-3.378,-0.833,38.0,25.76,0.0,19.0,1641.0,141.0,-3.8,0.06,-0.93,-0.07,-0.88,-18.38,13.89,557.0,,,0.0,1.0,1.0,100.0
10300,1,walk,walk,19748,,19748.0,20.0,0.0,1.0,5.0,8.82,-0.095,-2.846,-1.704,38.0,25.69,0.0,19.0,1641.0,141.0,-4.0,0.06,-0.91,-0.07,-0.72,-14.97,1.06,557.0,,,0.0,1.0,1.0,100.0
10340,1,walk,walk,19749,,19749.0,20.0,0.0,1.0,6.0,9.47,-0.131,-2.055,-2.843,38.0,25.58,0.0,19.0,1641.0,141.0,-3.63,0.06,-0.89,-0.07,-0.49,-10.39,-11.3,557.0,,,0.0,1.0,1.0,100.0
10340,1,walk,walk,19750,,19750.0,20.0,0.0,1.0,6.0,10.08,-0.157,-1.564,-3.746,38.0,25.47,0.0,19.0,1641.0,141.0,-2.56,0.04,-0.87,-0.08,-0.2,-5.41,-22.77,557.0,,,0.0,1.0,1.0,100.0
10360,1,walk,walk,19751,,19751.0,20.0,0.0,1.0,6.0,10.62,-0.175,-1.066,-4.664,38.0,25.37,0.0,19.0,1641.0,141.0,-0.7,0.01,-0.86,-0.09,0.16,-0.79,-32.98,557.0,,,0.0,1.0,1.0,100.0
10380,1,walk,walk,19752,,19752.0,20.0,0.0,1.0,6.0,11.08,-0.187,-0.745,-5.425,38.0,25.19,0.0,19.0,1641.0,141.0,1.91,-0.03,-0.86,-0.1,0.43,2.89,-41.63,557.0,,,0.0,1.0,1.0,100.0
10400,1,walk,walk,19753,,19753.0,20.0,0.0,1.0,6.0,11.45,-0.192,-0.245,-6.245,38.0,25.05,0.0,19.0,1641.0,141.0,5.13,-0.08,-0.86,-0.12,0.44,5.37,-48.42,557.0,,,0.0,1.0,1.0,100.0
10420,1,walk,walk,19754,,19754.0,20.0,0.0,1.0,6.0,11.7,-0.197,-0.193,-6.724,38.0,24.98,0.0,19.0,1641.0,141.0,8.63,-0.13,-0.88,-0.13,0.07,6.79,-52.97,557.0,,,0.0,1.0,1.0,100.0
10440,1,walk,walk,19755,,19755.0,20.0,0.0,1.0,6.0,11.83,-0.196,0.367,-7.605,38.0,24.77,0.0,19.0,1641.0,141.0,11.86,-0.19,-0.89,-0.14,-0.34,8.33,-54.83,557.0,,,0.0,1.0,1.0,100.0
10460,1,walk,walk,19756,,19756.0,20.0,0.0,3.0,7.0,11.84,-0.191,0.242,-7.892,38.0,24.67,0.0,19.0,1641.0,141.0,14.4,-0.24,-0.92,-0.14,-0.5,10.92,-53.86,557.0,,,0.0,1.0,1.0,100.0
10480,1,walk,walk,19757,,19757.0,20.0,0.0,3.0,7.0,11.73,-0.181,0.855,-9.306,38.0,24.32,0.0,19.0,1641.0,141.0,16.15,-0.27,-0.95,-0.12,-0.4,14.94,-50.24,557.0,,,0.0,1.0,1.0,100.0
10500,1,walk,walk,19758,,19758.0,20.0,0.0,3.0,7.0,11.52,-0.17,0.757,-9.86,38.0,24.14,0.0,19.0,1641.0,141.0,17.25,-0.3,-0.98,-0.1,-0.16,20.08,-44.43,557.0,,,0.0,1.0,1.0,100.0
10520,1,walk,walk,19759,,19759.0,20.0,0.0,3.0,7.0,11.2,-0.154,0.966,-10.1,38.0,24.07,0.0,19.0,1641.0,141.0,17.96,-0.33,-1.0,-0.08,0.06,25.62,-37.06,557.0,,,0.0,1.0,1.0,100.0
10540,1,walk,walk,19760,,19760.0,20.0,0.0,3.0,7.0,10.82,-0.142,0.158,-8.674,38.0,24.49,0.0,19.0,1641.0,141.0,18.47,-0.34,-1.03,-0.05,0.14,30.53,-28.9,557.0,,,0.0,1.0,1.0,100.0
10560,1,walk,walk,19761,,19761.0,20.0,0.0,3.0,7.0,10.37,-0.138,0.377,-7.503,38.0,24.91,0.0,19.0,1641.0,141.0,18.82,-0.36,-1.05,-0.04,0.06,34.12,-20.58,557.0,,,0.0,1.0,1.0,100.0
10600,1,walk,walk,19762,,19762.0,20.0,0.0,3.0,7.0,9.88,-0.134,0.009,-5.645,38.0,25.3,0.0,19.0,1641.0,141.0,19.05,-0.37,-1.06,-0.02,-0.21,36.04,-12.58,557.0,,,0.0,1.0,1.0,100.0
10600,1,walk,walk,19763,,19763.0,20.0,0.0,3.0,7.0,9.38,-0.132,0.189,-4.202,38.0,25.54,0.0,19.0,1641.0,141.0,19.18,-0.37,-1.07,-0.01,-0.65,36.27,-5.31,557.0,,,0.0,1.0,1.0,100.0
10620,1,walk,walk,19764,,19764.0,20.0,0.0,0.0,1.0,8.87,-0.128,0.248,-2.889,38.0,25.72,0.0,19.0,1641.0,141.0,19.2,-0.38,-1.08,0.0,-1.25,34.98,0.88,557.0,,,0.0,1.0,1.0,100.0
10640,1,walk,walk,19765,,19765.0,20.0,0.0,0.0,1.0,8.39,-0.118,0.821,-1.704,38.0,25.72,0.0,19.0,1641.0,141.0,19.19,-0.38,-1.08,0.0,-1.99,32.54,5.48,557.0,,,0.0,1.0,1.0,100.0
10680,1,walk,walk,19766,,19766.0,20.0,0.0,0.0,1.0,7.95,-0.118,0.821,-1.704,38.0,25.72,0.0,39.0,1641.0,141.0,19.1,-0.37,-1.08,0.0,-2.82,29.32,8.39,557.0,,,0.0,1.0,1.0,100.0
10700,1,walk,walk,19767,,19767.0,20.0,0.0,0.0,1.0,7.56,-0.118,0.821,-1.704,38.0,25.72,0.0,59.0,1641.0,141.0,18.89,-0.37,-1.08,0.0,-3.64,25.73,10.01,557.0,,,0.0,1.0,1.0,100.0
10700,1,walk,walk,19768,,19768.0,20.0,0.0,0.0,1.0,7.23,-0.091,7.857,0.0,38.0,25.86,0.0,4.0,1641.0,141.0,18.58,-0.36,-1.07,0.0,-4.37,22.13,10.69,557.0,,,0.0,1.0,1.0,100.0
10720,1,walk,walk,19769,,19769.0,20.0,0.0,0.0,1.0,6.97,-0.09,0.109,0.0,38.0,25.86,0.0,4.0,1641.0,141.0,18.17,-0.35,-1.06,-0.01,-4.98,18.71,10.66,557.0,,,0.0,1.0,1.0,100.0
10740,1,walk,walk,19770,,19770.0,20.0,0.0,0.0,1.0,6.78,-0.09,-0.01,0.0,38.0,25.86,0.0,4.0,1641.0,141.0,17.68,-0.34,-1.06,-0.01,-5.45,15.61,10.1,557.0,,,0.0,1.0,1.0,100.0
10760,1,walk,walk,19771,,19771.0,20.0,0.0,0.0,1.0,6.66,-0.088,0.269,0.0,38.0,25.86,0.0,4.0,1641.0,141.0,17.13,-0.32,-1.05,-0.02,-5.78,12.88,9.1,557.0,,,0.0,1.0,1.0,100.0
10780,1,walk,walk,19772,,19772.0,20.0,0.0,0.0,1.0,6.61,-0.084,0.225,0.0,38.0,25.86,0.0,4.0,1641.0,141.0,16.54,-0.31,-1.04,-0.02,-6.01,10.55,7.7,557.0,,,0.0,1.0,1.0,100.0
10820,1,walk,walk,19773,,19773.0,20.0,0.0,0.0,1.0,6.62,-0.078,0.354,0.0,38.0,25.86,0.0,4.0,1641.0,141.0,15.93,-0.3,-1.04,-0.03,-6.17,8.6,5.96,557.0,,,0.0,1.0,1.0,100.0
10820,1,walk,walk,19774,,19774.0,20.0,0.0,0.0,1.0,6.68,-0.073,0.375,0.0,38.0,25.86,0.0,4.0,1641.0,141.0,15.3,-0.28,-1.03,-0.03,-6.27,7.01,3.91,557.0,,,0.0,1.0,1.0,100.0
10840,1,walk,walk,19775,,19775.0,20.0,0.0,0.0,1.0,6.78,-0.064,0.774,0.0,38.0,25.86,0.0,4.0,1641.0,141.0,14.65,-0.27,-1.02,-0.04,-6.34,5.71,1.58,557.0,,,0.0,1.0,1.0,100.0
10860,1,walk,walk,19776,,19776.0,20.0,0.0,0.0,1.0,6.92,-0.053,0.766,0.0,38.0,25.86,0.0,4.0,1641.0,141.0,13.98,-0.25,-1.02,-0.04,-6.36,4.66,-0.99,557.0,,,0.0,1.0,1.0,100.0
10880,1,walk,walk,19777,,19777.0,20.0,1.0,0.0,1.0,7.08,-0.041,0.953,0.0,38.0,25.86,0.0,5.0,1641.0,141.0,13.3,-0.24,-1.02,-0.05,-6.34,3.81,-3.79,557.0,,,0.0,1.0,1.0,100.0
10900,1,walk,walk,19778,,19778.0,20.0,1.0,0.0,1.0,7.26,-0.023,1.039,0.0,38.0,25.86,0.0,5.0,1641.0,141.0,12.61,-0.23,-1.01,-0.05,-6.26,3.13,-6.81,557.0,,,0.0,1.0,1.0,100.0
10920,1,walk,walk,19779,,19779.0,20.0,1.0,6.0,2.0,7.45,-0.002,1.455,0.0,38.0,25.86,0.0,5.0,1641.0,141.0,11.92,-0.21,-1.01,-0.06,-6.14,2.58,-10.12,557.0,,,0.0,1.0,1.0,100.0
10940,1,walk,walk,19780,,19780.0,20.0,0.0,6.0,2.0,7.63,0.003,1.64,-0.249,38.0,25.83,0.0,18.0,1641.0,141.0,11.2,-0.2,-1.01,-0.06,-5.99,2.11,-13.53,557.0,,,0.0,1.0,1.0,100.0
10960,1,walk,walk,19781,,19781.0,20.0,0.0,6.0,2.0,7.8,0.008,0.41,-1.385,38.0,25.83,0.0,18.0,1641.0,141.0,10.42,-0.19,-1.01,-0.07,-5.82,1.74,-16.74,557.0,,,0.0,1.0,1.0,100.0
11000,1,walk,walk,19782,,19782.0,20.0,0.0,6.0,2.0,7.95,0.012,0.163,-1.632,38.0,25.79,0.0,18.0,1641.0,141.0,9.58,-0.17,-1.01,-0.07,-5.63,1.43,-19.4,557.0,,,0.0,1.0,1.0,100.0
11000,1,walk,walk,19783,,19783.0,20.0,0.0,6.0,2.0,8.07,0.012,-0.025,-1.438,38.0,25.79,0.0,18.0,1641.0,141.0,8.65,-0.15,-1.01,-0.07,-5.38,1.14,-21.18,557.0,,,0.0,1.0,1.0,100.0
11020,1,walk,walk,19784,,19784.0,20.0,0.0,6.0,2.0,8.15,0.008,-0.48,-0.677,38.0,25.83,0.0,18.0,1641.0,141.0,7.68,-0.14,-1.02,-0.08,-5.04,0.81,-21.84,557.0,,,0.0,1.0,1.0,100.0
11040,1,walk,walk,19785,,19785.0,20.0,0.0,6.0,2.0,8.2,0.002,-0.187,-0.023,38.0,25.83,0.0,18.0,1641.0,141.0,6.69,-0.12,-1.02,-0.08,-4.58,0.48,-21.28,557.0,,,0.0,1.0,1.0,100.0
11060,1,walk,walk,19786,,19786.0,20.0,1.0,6.0,2.0,8.21,-0.001,-0.299,0.55,38.0,25.83,0.0,19.0,1641.0,141.0,5.74,-0.1,-1.02,-0.08,-3.97,0.17,-19.57,557.0,,,0.0,1.0,1.0,100.0
11080,1,walk,walk,19787,,19787.0,20.0,1.0,6.0,2.0,8.17,-0.006,-0.33,1.182,38.0,25.83,0.0,19.0,1641.0,141.0,4.86,-0.09,-1.02,-0.09,-3.17,-0.14,-16.86,557.0,,,0.0,1.0,1.0,100.0
11100,1,walk,walk,19788,,19788.0,20.0,1.0,6.0,2.0,8.09,-0.01,-0.336,1.487,38.0,25.79,0.0,19.0,1641.0,141.0,4.08,-0.07,-1.03,-0.09,-2.18,-0.47,-13.37,557.0,,,0.0,1.0,1.0,100.0
11120,1,walk,walk,19789,,19789.0,20.0,1.0,6.0,2.0,7.98,-0.014,-0.287,1.87,38.0,25.79,0.0,19.0,1641.0,141.0,3.42,-0.06,-1.03,-0.1,-1.01,-0.84,-9.3,557.0,,,0.0,1.0,1.0,100.0
11160,1,walk,walk,19790,,19790.0,20.0,1.0,6.0,2.0,7.83,-0.017,-0.189,2.247,38.0,25.76,0.0,19.0,1641.0,141.0,2.88,-0.05,-1.04,-0.1,0.3,-1.25,-4.87,557.0,,,0.0,1.0,1.0,100.0
11160,1,walk,walk,19791,,19791.0,20.0,1.0,6.0,2.0,7.66,-0.02,-0.237,2.659,38.0,25.72,0.0,19.0,1641.0,141.0,2.42,-0.04,-1.04,-0.1,1.66,-1.76,-0.14,557.0,,,0.0,1.0,1.0,100.0
11200,1,walk,walk,19792,,19792.0,20.0,1.0,6.0,2.0,7.47,-0.022,-0.01,2.631,38.0,25.72,0.0,19.0,1641.0,141.0,1.98,-0.04,-1.05,-0.1,3.01,-2.37,4.96,557.0,,,0.0,1.0,1.0,100.0
11200,1,walk,walk,19793,,19793.0,20.0,1.0,6.0,2.0,7.27,-0.022,0.091,2.552,38.0,25.72,0.0,19.0,1641.0,141.0,1.53,-0.03,-1.06,-0.1,4.23,-3.07,10.57,557.0,,,0.0,1.0,1.0,100.0
11240,1,walk,walk,19794,,19794.0,20.0,1.0,6.0,2.0,7.07,-0.02,0.178,2.318,38.0,25.72,0.0,19.0,1641.0,141.0,1.08,-0.02,-1.08,-0.1,5.22,-3.86,16.81,557.0,,,0.0,1.0,1.0,100.0
11240,1,walk,walk,19795,,19795.0,20.0,1.0,6.0,2.0,6.88,-0.017,0.201,1.831,38.0,25.79,0.0,19.0,1641.0,141.0,0.65,-0.01,-1.09,-0.1,5.86,-4.74,23.72,557.0,,,0.0,1.0,1.0,100.0
11260,1,walk,walk,19796,,19796.0,20.0,1.0,6.0,2.0,6.71,-0.013,0.242,1.358,38.0,25.79,0.0,19.0,1641.0,141.0,0.29,-0.01,-1.11,-0.1,6.1,-5.71,31.3,557.0,,,0.0,1.0,1.0,100.0
11300,1,walk,walk,19797,,19797.0,20.0,1.0,6.0,2.0,6.57,-0.009,0.312,0.852,38.0,25.83,0.0,19.0,1641.0,141.0,0.03,0.0,-1.14,-0.1,5.92,-6.77,39.43,557.0,,,0.0,1.0,1.0,100.0
11300,1,walk,walk,19798,,19798.0,20.0,1.0,6.0,2.0,6.47,-0.005,0.187,0.346,38.0,25.86,0.0,19.0,1641.0,141.0,-0.1,0.0,-1.16,-0.1,5.36,-7.9,47.83,557.0,,,0.0,1.0,1.0,100.0
11320,1,walk,walk,19799,,19799.0,20.0,1.0,6.0,2.0,6.43,-0.002,0.186,0.008,38.0,25.86,0.0,19.0,1641.0,141.0,-0.13,0.0,-1.17,-0.09,4.54,-9.07,55.93,557.0,,,0.0,1.0,1.0,100.0
11340,1,walk,walk,19800,,19800.0,20.0,1.0,6.0,2.0,6.45,-0.001,-0.105,0.075,38.0,25.86,0.0,19.0,1641.0,141.0,-0.12,0.0,-1.18,-0.09,3.55,-10.16,62.89,557.0,,,0.0,1.0,1.0,100.0
11360,1,walk,walk,19801,,19801.0,20.0,1.0,6.0,2.0,6.54,-0.002,-0.045,0.239,38.0,25.83,0.0,19.0,1641.0,141.0,-0.17,0.0,-1.18,-0.09,2.51,-11.15,67.85,557.0,,,0.0,1.0,1.0,100.0
11380,1,walk,walk,19802,,19802.0,20.0,1.0,6.0,2.0,6.7,-0.002,-0.068,0.371,38.0,25.83,0.0,19.0,1641.0,141.0,-0.36,0.01,-1.17,-0.09,1.48,-12.07,70.15,557.0,,,0.0,1.0,1.0,100.0
11400,1,walk,walk,19803,,19803.0,20.0,0.0,6.0,2.0,6.96,-0.004,-0.097,0.61,38.0,25.83,0.0,18.0,1641.0,141.0,-0.76,0.02,-1.15,-0.08,0.54,-12.96,69.35,557.0,,,0.0,1.0,1.0,100.0
11420,1,walk,walk,19804,,19804.0,20.0,0.0,6.0,2.0,7.29,-0.005,-0.095,0.679,38.0,25.86,0.0,18.0,1641.0,141.0,-1.37,0.03,-1.12,-0.08,-0.29,-13.8,65.27,557.0,,,0.0,1.0,1.0,100.0
11440,1,walk,walk,19805,,19805.0,20.0,1.0,6.0,2.0,7.71,-0.006,-0.05,0.773,38.0,25.83,0.0,19.0,1641.0,141.0,-2.2,0.04,-1.09,-0.08,-0.97,-14.48,58.0,557.0,,,0.0,1.0,1.0,100.0
11480,1,walk,walk,19806,,19806.0,20.0,1.0,1.0,5.0,8.2,-0.006,0.053,0.732,38.0,25.83,0.0,19.0,1641.0,142.0,-3.2,0.06,-1.05,-0.07,-1.51,-14.77,47.88,557.0,,,0.0,1.0,1.0,100.0
11480,1,walk,walk,19807,,19807.0,20.0,0.0,1.0,5.0,8.75,-0.006,-0.049,0.616,38.0,25.79,0.0,19.0,1641.0,142.0,-4.24,0.07,-1.01,-0.07,-1.83,-14.41,35.7,557.0,,,0.0,1.0,1.0,100.0
11500,1,walk,walk,19808,,19808.0,20.0,0.0,1.0,5.0,9.35,-0.046,-3.304,-1.015,38.0,25.76,0.0,19.0,1641.0,142.0,-5.15,0.09,-0.97,-0.07,-1.89,-13.15,22.31,557.0,,,0.0,1.0,1.0,100.0
11520,1,walk,walk,19809,,19809.0,20.0,0.0,1.0,5.0,9.97,-0.093,-2.819,-1.839,38.0,25.69,0.0,19.0,1641.0,142.0,-5.74,0.09,-0.93,-0.07,-1.7,-10.97,8.33,557.0,,,0.0,1.0,1.0,100.0
11560,1,walk,walk,19810,,19810.0,20.0,0.0,1.0,6.0,10.59,-0.128,-2.11,-2.984,38.0,25.58,0.0,19.0,1641.0,142.0,-5.78,0.09,-0.9,-0.07,-1.35,-8.09,-5.77,557.0,,,0.0,1.0,1.0,100.0
11560,1,walk,walk,19811,,19811.0,20.0,0.0,1.0,6.0,11.18,-0.154,-1.608,-3.779,38.0,25.47,0.0,19.0,1641.0,142.0,-5.1,0.08,-0.88,-0.08,-0.86,-5.0,-19.49,557.0,,,0.0,1.0,1.0,100.0
11580,1,walk,walk,19812,,19812.0,20.0,0.0,1.0,6.0,11.72,-0.171,-0.869,-5.099,38.0,25.3,0.0,19.0,1641.0,142.0,-3.52,0.05,-0.86,-0.09,-0.27,-2.28,-32.32,557.0,,,0.0,1.0,1.0,100.0
11600,1,walk,walk,19813,,19813.0,20.0,0.0,1.0,6.0,12.19,-0.182,-0.62,-5.741,38.0,25.19,0.0,19.0,1641.0,142.0,-1.03,0.02,-0.85,-0.1,0.28,-0.35,-43.77,557.0,,,0.0,1.0,1.0,100.0
11640,1,walk,walk,19814,,19814.0,20.0,0.0,1.0,6.0,12.56,-0.187,-0.357,-6.392,38.0,25.02,0.0,19.0,1641.0,142.0,2.32,-0.03,-0.85,-0.12,0.65,0.84,-53.25,557.0,,,0.0,1.0,1.0,100.0
11640,1,walk,walk,19815,,19815.0,20.0,0.0,1.0,6.0,12.82,-0.188,0.193,-7.359,38.0,24.81,0.0,19.0,1641.0,142.0,6.18,-0.09,-0.86,-0.13,1.1,2.21,-59.67,557.0,,,0.0,1.0,1.0,100.0
11660,1,walk,walk,19816,,19816.0,20.0,0.0,1.0,6.0,12.95,-0.18,0.267,-8.341,38.0,24.56,0.0,19.0,1641.0,142.0,10.04,-0.16,-0.89,-0.14,1.71,4.71,-62.54,557.0,,,0.0,1.0,1.0,100.0
11680,1,walk,walk,19817,,19817.0,20.0,1.0,3.0,7.0,12.96,-0.178,0.417,-8.519,38.0,24.53,0.0,20.0,1641.0,142.0,13.38,-0.22,-0.92,-0.13,2.53,8.76,-61.82,557.0,,,0.0,1.0,1.0,100.0
11700,1,walk,walk,19818,,19818.0,20.0,0.0,3.0,7.0,12.84,-0.168,0.857,-9.72,38.0,24.14,0.0,19.0,1641.0,142.0,15.99,-0.27,-0.95,-0.12,3.43,13.98,-57.85,557.0,,,0.0,1.0,1.0,100.0
11720,1,walk,walk,19819,,19819.0,20.0,0.0,3.0,7.0,12.59,-0.157,0.589,-9.965,38.0,24.07,0.0,19.0,1641.0,142.0,17.9,-0.32,-0.98,-0.1,4.26,19.63,-51.26,557.0,,,0.0,1.0,1.0,100.0
11740,1,walk,walk,19820,,19820.0,20.0,0.0,3.0,7.0,12.24,-0.145,0.888,-9.975,38.0,24.07,0.0,19.0,1641.0,142.0,19.32,-0.35,-1.01,-0.09,4.87,24.76,-42.88,557.0,,,0.0,1.0,1.0,100.0
11780,1,walk,walk,19821,,19821.0,20.0,0.0,3.0,7.0,11.8,-0.14,0.009,-8.299,38.0,24.63,0.0,19.0,1641.0,142.0,20.36,-0.38,-1.03,-0.07,5.18,28.65,-33.56,557.0,,,0.0,1.0,1.0,100.0
11780,1,walk,walk,19822,,19822.0,20.0,0.0,3.0,7.0,11.28,-0.139,0.126,-7.068,38.0,24.98,0.0,19.0,1641.0,142.0,21.09,-0.4,-1.05,-0.06,5.15,30.98,-24.02,557.0,,,0.0,1.0,1.0,100.0
11800,1,walk,walk,19823,,19823.0,20.0,0.0,3.0,7.0,10.72,-0.138,-0.054,-5.527,38.0,25.3,0.0,19.0,1641.0,142.0,21.56,-0.42,-1.06,-0.04,4.78,31.7,-14.87,557.0,,,0.0,1.0,1.0,100.0
11820,1,walk,walk,19824,,19824.0,20.0,1.0,3.0,7.0,10.14,-0.138,-0.048,-4.077,38.0,25.54,0.0,20.0,1641.0,142.0,21.82,-0.43,-1.07,-0.03,4.11,30.97,-6.63,557.0,,,0.0,1.0,1.0,100.0
11840,1,walk,walk,19825,,19825.0,20.0,0.0,0.0,1.0,9.56,-0.134,0.228,-2.939,38.0,25.72,0.0,19.0,1641.0,142.0,21.91,-0.43,-1.07,-0.03,3.23,29.09,0.3,557.0,,,0.0,1.0,1.0,100.0
11860,1,walk,walk,19826,,19826.0,20.0,0.0,0.0,1.0,9.0,-0.134,0.228,-2.939,38.0,25.72,0.0,39.0,1641.0,142.0,21.9,-0.43,-1.07,-0.03,2.22,26.24,5.32,557.0,,,0.0,1.0,1.0,100.0
11880,1,walk,walk,19827,,19827.0,20.0,0.0,0.0,1.0,8.49,-0.134,0.228,-2.939,38.0,25.72,0.0,59.0,1641.0,142.0,21.76,-0.43,-1.07,-0.02,1.19,22.9,8.45,557.0,,,0.0,1.0,1.0,100.0
11920,1,walk,walk,19828,,19828.0,20.0,0.0,0.0,1.0,8.03,-0.134,0.228,-2.939,38.0,25.72,0.0,79.0,1641.0,142.0,21.48,-0.42,-1.07,-0.02,0.25,19.54,10.07,557.0,,,0.0,1.0,1.0,100.0
11940,1,walk,walk,19829,,19829.0,20.0,0.0,0.0,1.0,7.65,-0.083,11.927,0.0,38.0,25.9,0.0,7.0,1641.0,142.0,21.07,-0.41,-1.06,-0.03,-0.54,16.38,10.46,557.0,,,0.0,1.0,1.0,100.0
11940,1,walk,walk,19830,,19830.0,20.0,0.0,0.0,1.0,7.34,-0.08,0.5,0.0,38.0,25.86,0.0,7.0,1641.0,142.0,20.54,-0.39,-1.05,-0.03,-1.19,13.56,9.84,557.0,,,0.0,1.0,1.0,100.0
11980,1,walk,walk,19831,,19831.0,20.0,0.0,0.0,1.0,7.11,-0.076,0.044,0.0,38.0,25.86,0.0,7.0,1641.0,142.0,19.91,-0.38,-1.05,-0.03,-1.71,11.15,8.45,557.0,,,0.0,1.0,1.0,100.0
11980,1,walk,walk,19832,,19832.0,20.0,0.0,0.0,1.0,6.97,-0.072,0.348,0.0,38.0,25.86,0.0,7.0,1641.0,142.0,19.19,-0.36,-1.04,-0.03,-2.15,9.14,6.5,557.0,,,0.0,1.0,1.0,100.0
12000,1,walk,walk,19833,,19833.0,20.0,0.0,0.0,1.0,6.89,-0.064,0.793,0.0,38.0,25.86,0.0,7.0,1641.0,142.0,18.39,-0.34,-1.03,-0.04,-2.51,7.48,4.12,557.0,,,0.0,1.0,1.0,100.0
12020,1,walk,walk,19834,,19834.0,20.0,0.0,0.0,1.0,6.88,-0.054,0.499,0.0,38.0,25.86,0.0,7.0,1641.0,142.0,17.53,-0.32,-1.03,-0.04,-2.79,6.14,1.43,557.0,,,0.0,1.0,1.0,100.0
12040,1,walk,walk,19835,,19835.0,20.0,1.0,0.0,1.0,6.93,-0.046,0.653,0.0,38.0,25.86,0.0,8.0,1641.0,142.0,16.63,-0.31,-1.02,-0.04,-2.98,5.07,-1.46,557.0,,,0.0,1.0,1.0,100.0
12060,1,walk,walk,19836,,19836.0,20.0,1.0,0.0,1.0,7.02,-0.031,1.153,0.0,38.0,25.86,0.0,8.0,1641.0,142.0,15.7,-0.29,-1.02,-0.04,-3.07,4.2,-4.53,557.0,,,0.0,1.0,1.0,100.0
12080,1,walk,walk,19837,,19837.0,20.0,1.0,0.0,1.0,7.14,-0.015,1.207,0.0,38.0,25.86,0.0,8.0,1641.0,142.0,14.77,-0.27,-1.02,-0.05,-3.09,3.47,-7.78,557.0,,,0.0,1.0,1.0,100.0
12100,1,walk,walk,19838,,19838.0,20.0,1.0,0.0,1.0,7.29,0.002,0.967,0.0,38.0,25.86,0.0,8.0,1641.0,142.0,13.84,-0.25,-1.02,-0.05,-3.04,2.87,-11.19,557.0,,,0.0,1.0,1.0,100.0
12140,1,walk,walk,19839,,19839.0,20.0,1.0,0.0,1.0,7.45,0.022,1.248,0.0,38.0,25.86,0.0,8.0,1641.0,142.0,12.93,-0.23,-1.01,-0.05,-2.94,2.37,-14.65,557.0,,,0.0,1.0,1.0,100.0
12140,1,walk,walk,19840,,19840.0,20.0,1.0,6.0,2.0,7.61,0.035,0.883,0.0,38.0,25.86,0.0,8.0,1641.0,142.0,12.0,-0.22,-1.01,-0.05,-2.81,1.96,-17.97,557.0,,,0.0,1.0,1.0,100.0
12160,1,walk,walk,19841,,19841.0,20.0,0.0,6.0,2.0,7.75,0.041,0.938,-0.122,38.0,25.83,0.0,18.0,1641.0,142.0,11.02,-0.2,-1.01,-0.06,-2.62,1.74,-20.62,557.0,,,0.0,1.0,1.0,100.0
12200,1,walk,walk,19842,,19842.0,20.0,0.0,6.0,2.0,7.88,0.029,-0.962,-1.037,38.0,25.79,0.0,18.0,1641.0,142.0,9.94,-0.18,-1.02,-0.06,-2.34,1.69,-22.06,557.0,,,0.0,1.0,1.0,100.0
12200,1,walk,walk,19843,,19843.0,20.0,0.0,6.0,2.0,7.97,0.015,-0.849,-0.556,38.0,25.83,0.0,18.0,1641.0,142.0,8.77,-0.16,-1.02,-0.06,-1.93,1.52,-21.93,557.0,,,0.0,1.0,1.0,100.0
12220,1,walk,walk,19844,,19844.0,20.0,1.0,6.0,2.0,8.03,0.004,-0.586,0.413,38.0,25.83,0.0,19.0,1641.0,142.0,7.55,-0.14,-1.02,-0.07,-1.33,1.1,-20.08,557.0,,,0.0,1.0,1.0,100.0
12240,1,walk,walk,19845,,19845.0,20.0,0.0,6.0,2.0,8.05,-0.006,-0.814,1.858,38.0,25.79,0.0,18.0,1641.0,142.0,6.35,-0.11,-1.03,-0.07,-0.53,0.39,-16.57,557.0,,,0.0,1.0,1.0,100.0
12280,1,walk,walk,19846,,19846.0,20.0,0.0,6.0,2.0,8.04,-0.018,-0.69,2.887,38.0,25.72,0.0,18.0,1641.0,142.0,5.2,-0.09,-1.03,-0.07,0.44,-0.54,-11.59,557.0,,,0.0,1.0,1.0,100.0
12300,1,walk,walk,19847,,19847.0,20.0,1.0,6.0,2.0,7.98,-0.027,-0.475,3.628,38.0,25.62,0.0,19.0,1641.0,142.0,4.15,-0.08,-1.04,-0.08,1.46,-1.6,-5.46,557.0,,,0.0,1.0,1.0,100.0
12300,1,walk,walk,19848,,19848.0,20.0,1.0,6.0,2.0,7.89,-0.03,0.072,3.53,38.0,25.62,0.0,19.0,1641.0,142.0,3.18,-0.06,-1.05,-0.08,2.4,-2.65,1.53,557.0,,,0.0,1.0,1.0,100.0
12320,1,walk,walk,19849,,19849.0,20.0,1.0,6.0,2.0,7.78,-0.027,0.363,2.921,38.0,25.65,0.0,19.0,1641.0,142.0,2.32,-0.04,-1.06,-0.08,3.16,-3.55,9.12,557.0,,,0.0,1.0,1.0,100.0
12340,1,walk,walk,19850,,19850.0,20.0,1.0,6.0,2.0,7.65,-0.02,0.453,2.078,38.0,25.76,0.0,19.0,1641.0,142.0,1.59,-0.03,-1.08,-0.07,3.67,-4.19,17.07,557.0,,,0.0,1.0,1.0,100.0
12360,1,walk,walk,19851,,19851.0,20.0,1.0,6.0,2.0,7.52,-0.013,0.418,1.246,38.0,25.83,0.0,19.0,1641.0,142.0,1.02,-0.02,-1.1,-0.07,3.88,-4.59,25.2,557.0,,,0.0,1.0,1.0,100.0
12380,1,walk,walk,19852,,19852.0,20.0,1.0,6.0,2.0,7.39,-0.007,0.252,0.774,38.0,25.83,0.0,19.0,1641.0,142.0,0.63,-0.01,-1.12,-0.07,3.75,-4.79,33.39,557.0,,,0.0,1.0,1.0,100.0
12400,1,walk,walk,19853,,19853.0,20.0,1.0,6.0,2.0,7.29,-0.004,0.261,0.235,38.0,25.83,0.0,19.0,1641.0,142.0,0.43,-0.01,-1.14,-0.06,3.28,-4.88,41.56,557.0,,,0.0,1.0,1.0,100.0
12420,1,walk,walk,19854,,19854.0,20.0,1.0,6.0,2.0,7.22,-0.001,0.146,-0.224,38.0,25.83,0.0,19.0,1641.0,142.0,0.42,-0.01,-1.15,-0.06,2.51,-4.96,49.61,557.0,,,0.0,1.0,1.0,100.0
12460,1,walk,walk,19855,,19855.0,20.0,1.0,6.0,2.0,7.19,0.002,0.244,-0.719,38.0,25.83,0.0,19.0,1641.0,142.0,0.57,-0.01,-1.17,-0.06,1.55,-5.1,57.36,557.0,,,0.0,1.0,1.0,100.0
12460,1,walk,walk,19856,,19856.0,20.0,1.0,6.0,2.0,7.22,0.004,0.06,-0.773,38.0,25.83,0.0,19.0,1641.0,142.0,0.82,-0.02,-1.18,-0.06,0.51,-5.41,64.41,557.0,,,0.0,1.0,1.0,100.0
12520,1,walk,walk,19857,,19857.0,20.0,1.0,6.0,2.0,7.32,0.004,-0.049,-0.45,38.0,25.86,0.0,19.0,1641.0,142.0,1.09,-0.02,-1.18,-0.06,-0.46,-6.07,70.08,557.0,,,0.0,1.0,1.0,100.0
12520,1,walk,walk,19858,,19858.0,20.0,1.0,6.0,2.0,7.5,0.003,-0.12,-0.247,38.0,25.83,0.0,19.0,1641.0,142.0,1.28,-0.03,-1.17,-0.06,-1.25,-7.28,73.64,557.0,,,0.0,1.0,1.0,100.0
12520,1,walk,walk,19859,,19859.0,20.0,1.0,6.0,2.0,7.77,0.001,-0.202,0.169,38.0,25.86,0.0,19.0,1641.0,142.0,1.31,-0.03,-1.15,-0.06,-1.79,-9.2,74.53,557.0,,,0.0,1.0,1.0,100.0
12540,1,walk,walk,19860,,19860.0,20.0,0.0,6.0,2.0,8.12,-0.002,-0.113,0.355,38.0,25.86,0.0,18.0,1641.0,142.0,1.11,-0.02,-1.12,-0.06,-2.03,-11.8,72.4,557.0,,,0.0,1.0,1.0,100.0
12560,1,walk,walk,19861,,19861.0,20.0,1.0,6.0,2.0,8.56,-0.003,-0.069,0.458,38.0,25.83,0.0,19.0,1641.0,142.0,0.66,-0.01,-1.09,-0.06,-2.03,-14.83,67.19,557.0,,,0.0,1.0,1.0,100.0
12580,1,walk,walk,19862,,19862.0,20.0,1.0,6.0,2.0,9.08,-0.003,0.013,0.273,38.0,25.83,0.0,19.0,1641.0,142.0,-0.05,0.0,-1.05,-0.06,-1.87,-17.88,59.16,557.0,,,0.0,1.0,1.0,100.0
12620,1,walk,walk,19863,,19863.0,20.0,1.0,1.0,5.0,9.68,-0.002,0.103,0.153,38.0,25.86,0.0,19.0,1641.0,143.0,-0.96,0.02,-1.01,-0.07,-1.65,-20.41,48.75,557.0,,,0.0,1.0,1.0,100.0
12620,1,walk,walk,19864,,19864.0,20.0,0.0,1.0,5.0,10.33,-0.002,-0.015,0.124,38.0,25.76,0.0,19.0,1641.0,143.0,-1.93,0.03,-0.97,-0.07,-1.5,-21.84,36.44,557.0,,,0.0,1.0,1.0,100.0
12640,1,walk,walk,19865,,19865.0,20.0,0.0,1.0,5.0,11.02,-0.039,-3.065,-1.703,38.0,25.69,0.0,19.0,1641.0,143.0,-2.77,0.05,-0.93,-0.07,-1.43,-21.66,23.09,557.0,,,0.0,1.0,1.0,100.0
12660,1,walk,walk,19866,,19866.0,20.0,0.0,1.0,5.0,11.73,-0.084,-2.604,-2.541,38.0,25.62,0.0,19.0,1641.0,143.0,-3.26,0.05,-0.9,-0.07,-1.37,-19.64,9.44,557.0,,,0.0,1.0,1.0,100.0
12680,1,walk,walk,19867,,19867.0,20.0,0.0,1.0,6.0,12.43,-0.117,-2.065,-3.643,38.0,25.47,0.0,19.0,1641.0,143.0,-3.2,0.05,-0.88,-0.08,-1.28,-15.97,-4.0,557.0,,,0.0,1.0,1.0,100.0
12700,1,walk,walk,19868,,19868.0,20.0,0.0,1.0,6.0,13.11,-0.142,-1.337,-4.37,38.0,25.33,0.0,19.0,1641.0,143.0,-2.41,0.04,-0.86,-0.09,-1.09,-11.2,-16.83,557.0,,,0.0,1.0,1.0,100.0
12720,1,walk,walk,19869,,19869.0,20.0,0.0,1.0,6.0,13.72,-0.161,-1.04,-5.095,38.0,25.26,0.0,19.0,1641.0,143.0,-0.78,0.01,-0.85,-0.1,-0.74,-6.14,-28.66,557.0,,,0.0,1.0,1.0,100.0
12740,1,walk,walk,19870,,19870.0,20.0,0.0,1.0,6.0,14.25,-0.172,-0.652,-5.845,38.0,25.12,0.0,19.0,1641.0,143.0,1.66,-0.02,-0.85,-0.12,-0.27,-1.52,-39.04,557.0,,,0.0,1.0,1.0,100.0
12760,1,walk,walk,19871,,19871.0,20.0,0.0,1.0,6.0,14.69,-0.181,-0.59,-6.17,38.0,25.09,0.0,19.0,1641.0,143.0,4.75,-0.07,-0.86,-0.14,0.15,2.21,-47.56,557.0,,,0.0,1.0,1.0,100.0
12800,1,walk,walk,19872,,19872.0,20.0,0.0,1.0,6.0,15.01,-0.186,-0.373,-6.575,38.0,24.98,0.0,19.0,1641.0,143.0,8.24,-0.13,-0.86,-0.16,0.16,4.98,-53.87,557.0,,,0.0,1.0,1.0,100.0
12800,1,walk,walk,19873,,19873.0,20.0,0.0,1.0,6.0,15.21,-0.189,-0.091,-7.018,38.0,24.84,0.0,19.0,1641.0,143.0,11.67,-0.18,-0.88,-0.18,-0.37,7.15,-57.56,557.0,,,0.0,1.0,1.0,100.0
12820,1,walk,walk,19874,,19874.0,20.0,0.0,1.0,6.0,15.28,-0.186,0.206,-7.916,38.0,24.67,0.0,19.0,1641.0,143.0,14.6,-0.24,-0.9,-0.18,-0.97,9.93,-58.17,557.0,,,0.0,1.0,1.0,100.0
12840,1,walk,walk,19875,,19875.0,20.0,0.0,3.0,7.0,15.22,-0.184,0.351,-8.193,38.0,24.6,0.0,19.0,1641.0,143.0,16.85,-0.28,-0.93,-0.17,-1.2,14.17,-55.63,557.0,,,0.0,1.0,1.0,100.0
12880,1,walk,walk,19876,,19876.0,20.0,0.0,3.0,7.0,15.03,-0.177,0.616,-8.888,38.0,24.42,0.0,19.0,1641.0,143.0,18.55,-0.32,-0.96,-0.15,-0.94,19.87,-50.19,557.0,,,0.0,1.0,1.0,100.0
12880,1,walk,walk,19877,,19877.0,20.0,0.0,3.0,7.0,14.74,-0.172,-0.163,-8.3,38.0,24.56,0.0,19.0,1641.0,143.0,19.95,-0.36,-0.99,-0.13,-0.34,26.09,-42.43,557.0,,,0.0,1.0,1.0,100.0
12900,1,walk,walk,19878,,19878.0,20.0,0.0,3.0,7.0,14.35,-0.175,0.089,-7.451,38.0,24.84,0.0,19.0,1641.0,143.0,21.12,-0.39,-1.02,-0.1,0.38,31.68,-33.34,557.0,,,0.0,1.0,1.0,100.0
12940,1,walk,walk,19879,,19879.0,20.0,0.0,3.0,7.0,13.89,-0.175,-0.164,-6.442,38.0,25.12,0.0,19.0,1641.0,143.0,22.08,-0.42,-1.04,-0.07,1.0,35.88,-23.77,557.0,,,0.0,1.0,1.0,100.0
12940,1,walk,walk,19880,,19880.0,20.0,0.0,3.0,7.0,13.38,-0.177,-0.181,-5.008,38.0,25.37,0.0,19.0,1641.0,143.0,22.83,-0.44,-1.05,-0.05,1.35,38.35,-14.45,557.0,,,0.0,1.0,1.0,100.0
12960,1,walk,walk,19881,,19881.0,20.0,0.0,3.0,7.0,12.83,-0.178,-0.028,-3.931,38.0,25.58,0.0,19.0,1641.0,143.0,23.37,-0.46,-1.06,-0.03,1.34,39.06,-5.97,557.0,,,0.0,1.0,1.0,100.0
12980,1,walk,walk,19882,,19882.0,20.0,0.0,0.0,1.0,12.29,-0.174,0.314,-2.909,38.0,25.72,0.0,19.0,1641.0,143.0,23.7,-0.47,-1.07,-0.01,0.96,38.19,1.17,557.0,,,0.0,1.0,1.0,100.0
13000,1,walk,walk,19883,,19883.0,20.0,0.0,0.0,1.0,11.76,-0.16,1.201,-1.939,39.0,25.72,0.0,19.0,1641.0,143.0,23.91,-0.47,-1.07,0.0,0.24,35.66,6.44,557.0,,,0.0,1.0,1.0,100.0
13020,1,walk,walk,19884,,19884.0,20.0,0.0,0.0,1.0,11.27,-0.16,1.201,-1.939,39.0,25.72,0.0,39.0,1641.0,143.0,23.94,-0.47,-1.07,0.0,-0.73,31.68,9.45,557.0,,,0.0,1.0,1.0,100.0
13040,1,walk,walk,19885,,19885.0,20.0,0.0,0.0,1.0,10.83,-0.16,1.201,-1.939,39.0,25.72,0.0,59.0,1641.0,143.0,23.78,-0.47,-1.06,0.0,-1.8,26.88,10.47,557.0,,,0.0,1.0,1.0,100.0
13060,1,walk,walk,19886,,19886.0,20.0,0.0,0.0,1.0,10.46,-0.101,9.206,0.0,39.0,25.93,0.0,6.0,1641.0,143.0,23.43,-0.46,-1.05,0.0,-2.82,21.91,9.94,557.0,,,0.0,1.0,1.0,100.0
13100,1,walk,walk,19887,,19887.0,20.0,0.0,0.0,1.0,10.16,-0.091,0.741,0.0,39.0,25.86,0.0,6.0,1641.0,143.0,22.87,-0.44,-1.05,0.0,-3.72,17.17,8.22,557.0,,,0.0,1.0,1.0,100.0
13100,1,walk,walk,19888,,19888.0,20.0,0.0,0.0,1.0,9.94,-0.084,0.234,0.0,39.0,25.86,0.0,6.0,1641.0,143.0,22.11,-0.42,-1.04,-0.01,-4.48,12.91,5.71,557.0,,,0.0,1.0,1.0,100.0
13120,1,walk,walk,19889,,19889.0,20.0,0.0,0.0,1.0,9.79,-0.078,0.436,0.0,39.0,25.86,0.0,6.0,1641.0,143.0,21.18,-0.4,-1.04,-0.01,-5.07,9.31,2.76,557.0,,,0.0,1.0,1.0,100.0
13160,1,walk,walk,19890,,19890.0,20.0,0.0,0.0,1.0,9.71,-0.07,0.762,0.0,39.0,25.86,0.0,6.0,1641.0,143.0,20.12,-0.38,-1.03,-0.02,-5.48,6.38,-0.37,557.0,,,0.0,1.0,1.0,100.0
13160,1,walk,walk,19891,,19891.0,20.0,1.0,0.0,1.0,9.69,-0.058,0.731,0.0,39.0,25.86,0.0,7.0,1641.0,143.0,18.98,-0.35,-1.03,-0.03,-5.71,4.07,-3.54,557.0,,,0.0,1.0,1.0,100.0
13180,1,walk,walk,19892,,19892.0,20.0,1.0,0.0,1.0,9.72,-0.048,0.639,0.0,39.0,25.86,0.0,7.0,1641.0,143.0,17.79,-0.33,-1.02,-0.03,-5.75,2.29,-6.65,557.0,,,0.0,1.0,1.0,100.0
13200,1,walk,walk,19893,,19893.0,20.0,1.0,0.0,1.0,9.79,-0.038,0.79,0.0,39.0,25.86,0.0,7.0,1641.0,143.0,16.59,-0.3,-1.02,-0.04,-5.63,0.97,-9.61,557.0,,,0.0,1.0,1.0,100.0
13220,1,walk,walk,19894,,19894.0,20.0,1.0,0.0,1.0,9.89,-0.028,0.463,0.0,39.0,25.86,0.0,7.0,1641.0,143.0,15.39,-0.28,-1.02,-0.05,-5.38,0.01,-12.37,557.0,,,0.0,1.0,1.0,100.0
13280,1,walk,walk,19895,,19895.0,20.0,1.0,0.0,1.0,10.0,-0.023,0.221,0.0,39.0,25.86,0.0,7.0,1641.0,143.0,14.21,-0.26,-1.02,-0.05,-5.04,-0.61,-14.82,557.0,,,0.0,1.0,1.0,100.0
13280,1,walk,walk,19896,,19896.0,20.0,1.0,0.0,1.0,10.11,-0.019,0.281,0.0,39.0,25.86,0.0,7.0,1641.0,143.0,13.05,-0.24,-1.02,-0.06,-4.63,-0.95,-16.85,557.0,,,0.0,1.0,1.0,100.0
13280,1,walk,walk,19897,,19897.0,20.0,1.0,6.0,2.0,10.21,-0.016,0.166,0.0,39.0,25.86,0.0,7.0,1641.0,143.0,11.91,-0.21,-1.02,-0.06,-4.16,-1.1,-18.36,557.0,,,0.0,1.0,1.0,100.0
13300,1,walk,walk,19898,,19898.0,20.0,0.0,6.0,2.0,10.29,-0.015,0.156,0.025,39.0,25.83,0.0,18.0,1641.0,143.0,10.78,-0.19,-1.02,-0.07,-3.65,-1.12,-19.27,557.0,,,0.0,1.0,1.0,100.0
13320,1,walk,walk,19899,,19899.0,20.0,0.0,6.0,2.0,10.35,-0.01,0.24,0.581,39.0,25.83,0.0,18.0,1641.0,143.0,9.65,-0.17,-1.02,-0.07,-3.11,-1.09,-19.45,557.0,,,0.0,1.0,1.0,100.0
13340,1,walk,walk,19900,,19900.0,20.0,0.0,6.0,2.0,10.38,-0.011,-0.131,1.098,39.0,25.83,0.0,18.0,1641.0,143.0,8.5,-0.15,-1.02,-0.07,-2.49,-1.14,-18.71,557.0,,,0.0,1.0,1.0,100.0
13360,1,walk,walk,19901,,19901.0,20.0,1.0,6.0,2.0,10.37,-0.015,-0.395,1.998,39.0,25.76,0.0,19.0,1641.0,143.0,7.36,-0.13,-1.03,-0.08,-1.76,-1.33,-16.92,557.0,,,0.0,1.0,1.0,100.0
13380,1,walk,walk,19902,,19902.0,20.0,0.0,6.0,2.0,10.33,-0.022,-0.581,3.007,39.0,25.69,0.0,18.0,1641.0,143.0,6.23,-0.11,-1.03,-0.08,-0.95,-1.7,-13.98,557.0,,,0.0,1.0,1.0,100.0
13420,1,walk,walk,19903,,19903.0,20.0,1.0,6.0,2.0,10.25,-0.027,-0.095,3.306,39.0,25.65,0.0,19.0,1641.0,143.0,5.14,-0.09,-1.04,-0.08,-0.2,-2.31,-9.91,557.0,,,0.0,1.0,1.0,100.0
13440,1,walk,walk,19904,,19904.0,20.0,1.0,6.0,2.0,10.14,-0.027,0.139,2.938,39.0,25.65,0.0,19.0,1641.0,143.0,4.09,-0.08,-1.05,-0.08,0.4,-3.09,-4.78,557.0,,,0.0,1.0,1.0,100.0
13440,1,walk,walk,19905,,19905.0,20.0,1.0,6.0,2.0,10.0,-0.022,0.312,2.392,39.0,25.72,0.0,19.0,1641.0,143.0,3.12,-0.06,-1.07,-0.08,0.76,-3.93,1.29,557.0,,,0.0,1.0,1.0,100.0
13480,1,walk,walk,19906,,19906.0,20.0,1.0,6.0,2.0,9.85,-0.017,0.42,1.727,39.0,25.79,0.0,19.0,1641.0,143.0,2.31,-0.04,-1.08,-0.08,0.81,-4.78,8.1,557.0,,,0.0,1.0,1.0,100.0
13480,1,walk,walk,19907,,19907.0,20.0,1.0,6.0,2.0,9.68,-0.011,0.354,1.057,39.0,25.83,0.0,19.0,1641.0,143.0,1.71,-0.03,-1.1,-0.08,0.49,-5.64,15.43,557.0,,,0.0,1.0,1.0,100.0
13500,1,walk,walk,19908,,19908.0,20.0,1.0,6.0,2.0,9.5,-0.007,0.213,0.755,39.0,25.83,0.0,19.0,1641.0,143.0,1.34,-0.03,-1.11,-0.08,-0.27,-6.6,23.04,557.0,,,0.0,1.0,1.0,100.0
13520,1,walk,walk,19909,,19909.0,20.0,1.0,6.0,2.0,9.34,-0.004,0.072,0.304,39.0,25.83,0.0,19.0,1641.0,143.0,1.22,-0.02,-1.12,-0.08,-1.48,-7.81,30.68,557.0,,,0.0,1.0,1.0,100.0
13540,1,walk,walk,19910,,19910.0,20.0,1.0,6.0,2.0,9.2,-0.002,0.183,-0.018,39.0,25.83,0.0,19.0,1641.0,143.0,1.31,-0.03,-1.13,-0.08,-3.1,-9.37,38.04,557.0,,,0.0,1.0,1.0,100.0
13560,1,walk,walk,19911,,19911.0,20.0,1.0,6.0,2.0,9.09,0.0,0.126,-0.299,39.0,25.83,0.0,19.0,1641.0,143.0,1.53,-0.03,-1.14,-0.08,-4.98,-11.38,44.66,557.0,,,0.0,1.0,1.0,100.0
13600,1,walk,walk,19912,,19912.0,20.0,1.0,6.0,2.0,9.02,0.0,-0.05,0.044,39.0,25.86,0.0,19.0,1641.0,143.0,1.77,-0.04,-1.14,-0.09,-6.92,-14.03,49.89,557.0,,,0.0,1.0,1.0,100.0
13620,1,walk,walk,19913,,19913.0,20.0,1.0,6.0,2.0,9.01,-0.001,-0.076,0.16,39.0,25.83,0.0,19.0,1641.0,143.0,1.91,-0.04,-1.13,-0.09,-8.73,-17.58,52.98,557.0,,,0.0,1.0,1.0,100.0
13620,1,walk,walk,19914,,19914.0,20.0,1.0,6.0,2.0,9.06,-0.002,-0.205,0.48,39.0,25.83,0.0,19.0,1641.0,143.0,1.82,-0.04,-1.12,-0.09,-10.25,-22.12,53.36,557.0,,,0.0,1.0,1.0,100.0
13640,1,walk,walk,19915,,19915.0,20.0,0.0,6.0,2.0,9.17,-0.004,-0.155,0.668,39.0,25.83,0.0,18.0,1641.0,143.0,1.43,-0.03,-1.1,-0.09,-11.4,-27.43,50.71,557.0,,,0.0,1.0,1.0,100.0
13660,1,walk,walk,19916,,19916.0,20.0,1.0,6.0,2.0,9.36,-0.005,-0.009,0.647,39.0,25.83,0.0,19.0,1641.0,143.0,0.68,-0.01,-1.07,-0.09,-12.18,-33.05,45.06,557.0,,,0.0,1.0,1.0,100.0
13680,1,walk,walk,19917,,19917.0,20.0,1.0,6.0,2.0,9.61,-0.005,-0.019,0.536,39.0,25.83,0.0,19.0,1641.0,143.0,-0.41,0.01,-1.04,-0.09,-12.69,-38.29,36.71,557.0,,,0.0,1.0,1.0,100.0
13700,1,walk,walk,19918,,19918.0,20.0,1.0,1.0,5.0,9.91,-0.004,0.07,0.388,39.0,25.83,0.0,19.0,1641.0,144.0,-1.75,0.03,-1.01,-0.08,-12.96,-42.37,26.14,557.0,,,0.0,1.0,1.0,100.0
13720,1,walk,walk,19919,,19919.0,20.0,0.0,1.0,5.0,10.26,-0.004,0.033,0.339,39.0,25.79,0.0,19.0,1641.0,144.0,-3.15,0.05,-0.98,-0.08,-12.99,-44.28,14.08,557.0,,,0.0,1.0,1.0,100.0
13760,1,walk,walk,19920,,19920.0,20.0,0.0,1.0,5.0,10.64,-0.042,-3.218,-1.532,39.0,25.72,0.0,19.0,1641.0,144.0,-4.38,0.07,-0.95,-0.08,-12.63,-43.55,1.5,557.0,,,0.0,1.0,1.0,100.0
13780,1,walk,walk,19921,,19921.0,20.0,0.0,1.0,6.0,11.02,-0.087,-2.618,-2.442,39.0,25.62,0.0,19.0,1641.0,144.0,-5.17,0.08,-0.93,-0.07,-11.7,-40.21,-10.85,557.0,,,0.0,1.0,1.0,100.0
13780,1,walk,walk,19922,,19922.0,20.0,0.0,1.0,6.0,11.38,-0.121,-2.007,-3.464,39.0,25.51,0.0,19.0,1641.0,144.0,-5.28,0.08,-0.92,-0.08,-10.17,-34.84,-22.44,557.0,,,0.0,1.0,1.0,100.0
13800,1,walk,walk,19923,,19923.0,20.0,0.0,1.0,6.0,11.71,-0.146,-1.542,-4.026,39.0,25.4,0.0,19.0,1641.0,144.0,-4.58,0.07,-0.91,-0.08,-8.17,-28.4,-32.85,557.0,,,0.0,1.0,1.0,100.0
