icmT,accX,accY,accZ,accT,gyrX,gyrY,gyrZ,gyrT,magX,magY,magZ,magT
0.000000,0.298828,-0.966308,0.244629,0.000000,-0.095367,-1.207352,-0.482559,0.000000,-19.273636,-1.578430,-29.278519,0.000000
10.000000,0.323730,-0.959472,0.252441,1.000000,-0.339508,-0.963211,-0.970840,1.000000,-19.273636,-2.478424,-30.478516,1.000000
20.000000,0.326660,-0.967773,0.246582,2.000000,0.694275,-0.658035,-0.116348,2.000000,-19.573639,-2.478424,-30.478516,2.000000
30.000000,0.311523,-0.964844,0.243652,3.000000,0.083923,-0.291824,-0.726700,3.000000,-19.573639,-2.178421,-28.078522,3.000000
40.000000,0.315918,-0.954590,0.246094,4.000000,-0.339508,-0.291824,0.123978,4.000000,-18.523636,-2.178421,-28.078522,4.000000
50.000000,0.302246,-0.967285,0.246582,5.000000,0.205994,-0.535965,-0.238419,5.000000,-20.173645,-2.928421,-29.428528,5.000000
60.000000,0.314453,-0.957031,0.231934,6.000000,-0.461578,-0.658035,-0.055313,6.000000,-19.123642,-2.028427,-29.278519,6.000000
70.000000,0.314453,-0.959472,0.244629,7.000000,-0.217438,-1.512527,-0.116348,7.000000,-19.123642,-0.828430,-27.928528,7.000000
80.000000,0.312988,-0.957519,0.252930,8.000000,-0.461578,-1.207352,-0.543594,8.000000,-20.023636,-0.828430,-27.928528,8.000000
90.000000,0.318359,-0.959472,0.246094,9.000000,-0.278473,-0.963211,-0.116348,9.000000,-19.873642,-1.728424,-29.878525,9.000000
100.000000,0.325195,-0.971191,0.246094,10.000000,-0.339508,-0.413895,-0.055313,10.000000,-19.873642,-2.028427,-29.278519,10.000000
110.000000,0.332519,-0.974121,0.252441,11.000000,-0.461578,-0.291824,0.001907,11.000000,-19.423645,-2.028427,-29.278519,11.000000
120.000000,0.307129,-0.970215,0.251953,12.000000,0.205994,-0.413895,-0.665665,12.000000,-19.423645,-2.028427,-27.928528,12.000000
130.000000,0.322266,-0.967285,0.250488,13.000000,-0.522614,0.497818,-0.421524,13.000000,-19.423645,-2.778427,-28.978516,13.000000
140.000000,0.324219,-0.975586,0.248047,14.000000,-0.156403,0.253677,-0.482559,14.000000,-19.873642,-2.778427,-28.978516,14.000000
150.000000,0.310059,-0.951172,0.258301,15.000000,-0.339508,-0.047684,-0.604630,15.000000,-18.973648,-1.278427,-28.978516,15.000000
160.000000,0.310059,-0.957519,0.252441,16.000000,-0.156403,-0.230789,-0.360489,16.000000,-18.973648,-1.428421,-30.478516,16.000000
170.000000,0.312012,-0.967773,0.258789,17.000000,0.205994,0.131607,0.246048,17.000000,-19.273636,-1.428421,-30.478516,17.000000
180.000000,0.324707,-0.972168,0.247559,18.000000,0.511169,-0.413895,-0.055313,18.000000,-19.873642,-2.178421,-28.678528,18.000000
190.000000,0.312012,-0.971679,0.253418,19.000000,0.267029,-0.108719,-0.055313,19.000000,-19.873642,-2.028427,-28.978516,19.000000
200.000000,0.307617,-0.970215,0.241211,20.000000,0.450134,-0.047684,0.307083,20.000000,-20.023636,-2.028427,-28.978516,20.000000
210.000000,0.314453,-0.975097,0.249512,21.000000,0.083923,-0.535965,0.185013,21.000000,-19.423645,-1.428421,-29.428528,21.000000
220.000000,0.318359,-0.979980,0.235352,22.000000,-0.034332,-0.719070,0.123978,22.000000,-19.873642,-1.578430,-29.278519,22.000000
230.000000,0.314453,-0.974609,0.240234,23.000000,0.205994,-0.047684,0.307083,23.000000,-19.873642,-1.578430,-27.478516,23.000000
240.000000,0.317871,-0.966308,0.243652,24.000000,-0.644684,-0.291824,0.795364,24.000000,-20.773636,-1.578430,-27.478516,24.000000
250.000000,0.319824,-0.948730,0.254883,25.000000,0.083923,-0.108719,1.039505,25.000000,-19.123642,-2.178421,-30.178528,25.000000
260.000000,0.324219,-0.950195,0.257324,26.000000,-0.217438,-0.169754,0.795364,26.000000,-19.123642,-3.078430,-30.028519,26.000000
270.000000,0.326172,-0.971679,0.238281,27.000000,-0.278473,-0.230789,0.429153,27.000000,-20.773636,-3.078430,-30.028519,27.000000
280.000000,0.331543,-0.974121,0.241699,28.000000,0.144958,-0.230789,1.100540,28.000000,-19.873642,-2.478424,-30.178528,28.000000
290.000000,0.327637,-0.959472,0.243164,29.000000,0.389099,-0.535965,0.612259,29.000000,-19.873642,-1.578430,-30.028519,29.000000
300.000000,0.332031,-0.972656,0.246094,30.000000,0.022888,-0.169754,0.490189,30.000000,-20.023636,-1.578430,-30.028519,30.000000
310.000000,0.320801,-0.962402,0.258301,31.000000,0.450134,-0.108719,0.123978,31.000000,-20.173645,-1.428421,-29.428528,31.000000
320.000000,0.312500,-0.979492,0.259766,32.000000,0.267029,0.497818,-0.482559,32.000000,-20.173645,-2.328430,-28.978516,32.000000
330.000000,0.311523,-0.964844,0.247070,33.000000,0.328064,0.925064,0.123978,33.000000,-20.773636,-2.328430,-28.978516,33.000000
340.000000,0.314453,-0.975586,0.250977,34.000000,0.205994,0.009537,-0.116348,34.000000,-20.773636,-1.428421,-28.678528,34.000000
350.000000,0.318848,-0.977051,0.250488,35.000000,0.450134,-0.780106,-0.055313,35.000000,-20.923645,-1.428421,-28.678528,35.000000
360.000000,0.296387,-0.972656,0.254394,36.000000,0.083923,-0.474930,-0.421524,36.000000,-19.123642,-2.778427,-27.928528,36.000000
370.000000,0.319824,-0.965820,0.249512,37.000000,-0.339508,-0.719070,-0.421524,37.000000,-19.123642,-3.528427,-28.978516,37.000000
380.000000,0.294922,-0.969726,0.251953,38.000000,-0.156403,-0.597000,0.185013,38.000000,-19.123642,-1.278427,-29.278519,38.000000
390.000000,0.314453,-0.959472,0.243164,39.000000,0.022888,-0.535965,-0.543594,39.000000,-19.873642,-1.278427,-29.278519,39.000000
400.000000,0.314941,-0.965332,0.245117,40.000000,-0.095367,-0.902176,-0.116348,40.000000,-19.423645,-1.278427,-28.528519,40.000000
410.000000,0.314941,-0.970215,0.244141,41.000000,0.267029,-1.085281,0.429153,41.000000,-19.423645,-2.778427,-28.978516,41.000000
420.000000,0.324707,-0.964355,0.252441,42.000000,0.511169,-0.841141,-0.177383,42.000000,-19.573639,-2.778427,-28.978516,42.000000
430.000000,0.321777,-0.968261,0.245605,43.000000,0.144958,-0.597000,0.001907,43.000000,-20.323639,-1.428421,-29.428528,43.000000
440.000000,0.304687,-0.960449,0.253418,44.000000,0.389099,0.497818,0.185013,44.000000,-20.323639,-0.978424,-29.128525,44.000000
450.000000,0.328613,-0.973144,0.244141,45.000000,0.511169,0.436783,0.123978,45.000000,-19.423645,-0.978424,-29.128525,45.000000
460.000000,0.324219,-0.958984,0.259766,46.000000,0.572205,0.558853,0.612259,46.000000,-18.973648,-1.278427,-29.278519,46.000000
470.000000,0.311035,-0.966308,0.252930,47.000000,0.572205,0.986099,-0.116348,47.000000,-18.973648,-0.228424,-28.378525,47.000000
480.000000,0.319336,-0.973144,0.241699,48.000000,0.694275,0.741959,0.612259,48.000000,-19.423645,-0.228424,-28.378525,48.000000
490.000000,0.311035,-0.969238,0.243164,49.000000,0.572205,0.619888,0.123978,49.000000,-18.973648,-2.328430,-30.328522,49.000000
500.000000,0.317871,-0.965332,0.262695,50.000000,-0.400543,0.314713,0.246048,50.000000,-18.973648,-2.178421,-28.678528,50.000000
510.000000,0.308105,-0.960937,0.249023,51.000000,0.328064,0.009537,0.307083,51.000000,-20.473648,-2.178421,-28.678528,51.000000
520.000000,0.312012,-0.959961,0.243164,52.000000,0.572205,-0.047684,0.673294,52.000000,-19.573639,-1.578430,-28.528519,52.000000
530.000000,0.313965,-0.948730,0.243164,53.000000,0.572205,0.558853,0.795364,53.000000,-18.523636,-2.178421,-30.178528,53.000000
540.000000,0.313476,-0.962890,0.245605,54.000000,0.816345,0.925064,0.673294,54.000000,-18.523636,-2.478424,-29.128525,54.000000
550.000000,0.321777,-0.964355,0.243164,55.000000,-0.156403,1.169205,0.368118,55.000000,-20.473648,-2.478424,-29.128525,55.000000
560.000000,0.315430,-0.976074,0.253418,56.000000,-0.095367,0.986099,0.673294,56.000000,-20.023636,-1.578430,-29.278519,56.000000
570.000000,0.310059,-0.962890,0.249023,57.000000,0.205994,0.925064,0.795364,57.000000,-20.023636,-2.478424,-28.378525,57.000000
580.000000,0.322266,-0.986328,0.241699,58.000000,0.633240,1.230240,0.307083,58.000000,-20.323639,-2.478424,-28.378525,58.000000
590.000000,0.329590,-0.974609,0.255859,59.000000,0.511169,0.436783,0.490189,59.000000,-20.023636,-2.178421,-28.678528,59.000000
600.000000,0.312500,-0.984375,0.245117,60.000000,0.572205,0.070572,0.123978,60.000000,-20.023636,-1.428421,-28.378525,60.000000
610.000000,0.314941,-0.965820,0.253418,61.000000,0.511169,0.314713,0.123978,61.000000,-19.273636,-1.428421,-28.378525,61.000000
620.000000,0.321289,-0.960937,0.254394,62.000000,0.816345,-0.230789,0.062943,62.000000,-17.173645,-1.428421,-29.428528,62.000000
630.000000,0.314941,-0.966797,0.250977,63.000000,-0.034332,0.131607,0.062943,63.000000,-19.873642,-1.728424,-28.678528,63.000000
640.000000,0.324219,-0.964355,0.250000,64.000000,-0.095367,-0.169754,0.246048,64.000000,-19.573639,-0.828430,-28.228516,64.000000
650.000000,0.312012,-0.959961,0.246094,65.000000,-0.583649,-0.169754,-0.421524,65.000000,-19.573639,-2.928421,-29.428528,65.000000
660.000000,0.333984,-0.970215,0.245605,66.000000,0.083923,-0.230789,-0.360489,66.000000,-20.023636,-2.928421,-29.428528,66.000000
670.000000,0.311035,-0.972168,0.256836,67.000000,-0.095367,-0.291824,0.001907,67.000000,-19.273636,-1.728424,-30.928528,67.000000
680.000000,0.318848,-0.958496,0.253906,68.000000,0.450134,-0.169754,-0.299454,68.000000,-19.273636,-2.478424,-29.878525,68.000000
690.000000,0.311523,-0.965820,0.264648,69.000000,-0.217438,-0.474930,0.490189,69.000000,-19.273636,-2.178421,-29.428528,69.000000
700.000000,0.318848,-0.962402,0.254883,70.000000,-0.156403,0.619888,0.001907,70.000000,-21.073639,-2.178421,-29.428528,70.000000
710.000000,0.301269,-0.962890,0.238281,71.000000,-0.522614,0.131607,0.062943,71.000000,-20.023636,-2.178421,-29.428528,71.000000
720.000000,0.306641,-0.975586,0.259277,72.000000,0.083923,0.253677,0.368118,72.000000,-20.023636,-2.178421,-29.128525,72.000000
730.000000,0.315918,-0.970703,0.253418,73.000000,0.022888,0.192642,0.429153,73.000000,-20.023636,-2.178421,-29.128525,73.000000
740.000000,0.312500,-0.960937,0.248535,74.000000,-0.278473,-0.047684,0.673294,74.000000,-20.023636,-2.178421,-29.428528,74.000000
750.000000,0.313476,-0.979492,0.261719,75.000000,-0.278473,0.070572,0.307083,75.000000,-20.023636,-1.428421,-29.128525,75.000000
760.000000,0.305176,-0.971191,0.254883,76.000000,-0.156403,0.253677,0.612259,76.000000,-19.573639,-1.428421,-29.128525,76.000000
770.000000,0.305176,-0.966797,0.242676,77.000000,-0.644684,0.070572,-0.055313,77.000000,-19.573639,-1.728424,-28.678528,77.000000
780.000000,0.327637,-0.969238,0.254394,78.000000,-0.339508,0.497818,0.368118,78.000000,-19.573639,-1.428421,-30.178528,78.000000
790.000000,0.312988,-0.970215,0.239258,79.000000,-0.217438,0.009537,0.551224,79.000000,-20.173645,-1.428421,-30.178528,79.000000
800.000000,0.312988,-0.967773,0.235840,80.000000,0.389099,0.131607,0.429153,80.000000,-18.073639,-2.328430,-29.578522,80.000000
810.000000,0.313476,-0.975586,0.256836,81.000000,0.022888,-0.474930,0.307083,81.000000,-18.073639,-1.578430,-29.578522,81.000000
820.000000,0.308105,-0.965332,0.248047,82.000000,0.328064,-0.047684,0.673294,82.000000,-20.173645,-1.578430,-29.578522,82.000000
830.000000,0.315918,-0.966308,0.250488,83.000000,0.144958,0.253677,0.734329,83.000000,-20.023636,-2.328430,-30.028519,83.000000
840.000000,0.320801,-0.967285,0.253418,84.000000,0.083923,0.314713,0.917435,84.000000,-20.773636,-0.678421,-30.178528,84.000000
850.000000,0.313476,-0.969238,0.247070,85.000000,0.144958,0.558853,0.307083,85.000000,-20.773636,-2.478424,-30.478516,85.000000
860.000000,0.319824,-0.966308,0.252441,86.000000,-0.156403,0.375748,0.673294,86.000000,-19.123642,-2.478424,-30.478516,86.000000
870.000000,0.326172,-0.969726,0.250000,87.000000,0.694275,0.192642,0.673294,87.000000,-19.273636,-2.778427,-29.578522,87.000000
880.000000,0.316406,-0.973144,0.248047,88.000000,0.083923,-0.291824,0.307083,88.000000,-19.273636,-3.678421,-29.878525,88.000000
890.000000,0.308105,-0.971679,0.249512,89.000000,0.144958,-0.230789,0.612259,89.000000,-20.473648,-3.678421,-29.878525,89.000000
900.000000,0.312988,-0.954101,0.251953,90.000000,0.205994,0.070572,0.185013,90.000000,-19.423645,-0.528427,-30.328522,90.000000
910.000000,0.326660,-0.958496,0.241699,91.000000,0.511169,-0.413895,0.368118,91.000000,-19.423645,-3.078430,-30.028519,91.000000
920.000000,0.325195,-0.967285,0.260254,92.000000,-0.034332,-0.047684,0.612259,92.000000,-19.423645,-3.078430,-30.028519,92.000000
930.000000,0.319336,-0.972656,0.237793,93.000000,0.022888,-0.230789,0.307083,93.000000,-20.323639,-2.328430,-29.578522,93.000000
940.000000,0.319824,-0.979980,0.247070,94.000000,0.511169,-0.291824,0.062943,94.000000,-20.023636,-1.728424,-29.878525,94.000000
950.000000,0.309082,-0.987793,0.250977,95.000000,-0.156403,0.253677,0.123978,95.000000,-20.173645,-0.978424,-28.078522,95.000000
960.000000,0.319336,-0.970215,0.252441,96.000000,-0.278473,0.009537,0.307083,96.000000,-20.173645,-3.828430,-29.278519,96.000000
970.000000,0.317383,-0.973144,0.254883,97.000000,0.328064,0.009537,0.185013,97.000000,-21.223648,-3.828430,-29.278519,97.000000
980.000000,0.310059,-0.971191,0.256348,98.000000,0.389099,0.131607,0.123978,98.000000,-19.873642,-2.328430,-27.478516,98.000000
990.000000,0.312988,-0.975097,0.250977,99.000000,0.267029,0.131607,-0.238419,99.000000,-19.123642,-1.278427,-29.278519,99.000000
1000.000000,0.319824,-0.969726,0.248535,100.000000,0.511169,0.253677,-0.177383,100.000000,-19.123642,-2.328430,-30.328522,100.000000
1010.000000,0.307129,-0.965820,0.249023,101.000000,0.633240,-0.230789,0.246048,101.000000,-19.873642,-2.328430,-30.328522,101.000000
1020.000000,0.316406,-0.965332,0.248047,102.000000,-0.217438,-0.169754,-0.299454,102.000000,-19.123642,-2.328430,-28.978516,102.000000
1030.000000,0.313476,-0.954101,0.257324,103.000000,-0.522614,-0.291824,-0.177383,103.000000,-19.123642,-1.578430,-28.978516,103.000000
1040.000000,0.308105,-0.971191,0.243652,104.000000,0.755310,0.314713,0.123978,104.000000,-19.423645,-1.578430,-28.978516,104.000000
1050.000000,0.307129,-0.958008,0.252441,105.000000,0.389099,-0.291824,-0.177383,105.000000,-19.273636,-3.828430,-28.528519,105.000000
1060.000000,0.318848,-0.958984,0.254394,106.000000,-0.034332,-0.352859,0.612259,106.000000,-19.273636,-1.428421,-30.478516,106.000000
1070.000000,0.314453,-0.962890,0.251953,107.000000,0.328064,0.253677,-0.116348,107.000000,-20.173645,-1.428421,-30.478516,107.000000
1080.000000,0.307129,-0.968750,0.250977,108.000000,0.633240,0.986099,-0.116348,108.000000,-18.673645,-2.778427,-28.528519,108.000000
1090.000000,0.315430,-0.972168,0.247070,109.000000,0.572205,0.864029,-0.116348,109.000000,-18.673645,-1.578430,-28.978516,109.000000
1100.000000,0.318359,-0.978515,0.245117,110.000000,0.633240,0.314713,-0.177383,110.000000,-18.973648,-1.578430,-28.978516,110.000000
1110.000000,0.309570,-0.978515,0.249023,111.000000,0.450134,-0.963211,0.123978,111.000000,-19.873642,-2.478424,-29.878525,111.000000
1120.000000,0.307617,-0.959961,0.246582,112.000000,-0.095367,-0.658035,0.612259,112.000000,-19.873642,-2.778427,-29.278519,112.000000
1130.000000,0.302734,-0.971679,0.251953,113.000000,-0.339508,-1.207352,0.429153,113.000000,-19.423645,-2.778427,-29.278519,113.000000
1140.000000,0.312500,-0.970215,0.249023,114.000000,-0.278473,-0.902176,0.246048,114.000000,-18.973648,-0.828430,-28.978516,114.000000
1150.000000,0.312012,-0.955078,0.251953,115.000000,0.328064,-0.597000,0.368118,115.000000,-19.873642,-1.728424,-28.678528,115.000000
1160.000000,0.324219,-0.973144,0.252930,116.000000,0.144958,-0.474930,0.673294,116.000000,-19.873642,-3.528427,-28.978516,116.000000
1170.000000,0.318848,-0.963379,0.256836,117.000000,0.572205,-0.535965,0.185013,117.000000,-19.273636,-3.528427,-28.978516,117.000000
1180.000000,0.325684,-0.968261,0.250977,118.000000,0.938416,-0.047684,0.001907,118.000000,-19.273636,-1.728424,-28.678528,118.000000
1190.000000,0.311523,-0.967285,0.254883,119.000000,0.694275,0.558853,0.246048,119.000000,-19.273636,-1.728424,-29.428528,119.000000
1200.000000,0.325195,-0.967773,0.253906,120.000000,0.389099,1.352310,0.123978,120.000000,-19.873642,-1.728424,-29.428528,120.000000
1210.000000,0.310547,-0.958984,0.242676,121.000000,0.877380,1.169205,-0.238419,121.000000,-19.123642,-4.128418,-30.028519,121.000000
1220.000000,0.310547,-0.971191,0.250000,122.000000,0.572205,1.230240,0.062943,122.000000,-19.123642,-0.828430,-28.528519,122.000000
1230.000000,0.293945,-0.982910,0.252441,123.000000,0.755310,0.680923,0.612259,123.000000,-18.523636,-0.828430,-28.528519,123.000000
1240.000000,0.310059,-0.958008,0.257324,124.000000,1.182556,-0.963211,0.246048,124.000000,-18.523636,-3.228424,-30.478516,124.000000
1250.000000,0.309570,-0.981933,0.246094,125.000000,0.267029,-0.902176,0.551224,125.000000,-19.873642,-3.228424,-30.478516,125.000000
1260.000000,0.312012,-0.970215,0.235840,126.000000,-0.034332,-0.597000,0.185013,126.000000,-20.173645,-2.028427,-28.978516,126.000000
1270.000000,0.313965,-0.963379,0.248535,127.000000,0.022888,-0.108719,0.429153,127.000000,-20.173645,-2.028427,-29.278519,127.000000
1280.000000,0.319336,-0.958008,0.251465,128.000000,-0.156403,0.070572,-0.116348,128.000000,-18.673645,-2.028427,-29.278519,128.000000
1290.000000,0.304199,-0.980957,0.245117,129.000000,-0.095367,0.619888,0.123978,129.000000,-18.673645,-2.778427,-29.578522,129.000000
1300.000000,0.300293,-0.971191,0.251953,130.000000,0.083923,0.436783,0.062943,130.000000,-20.473648,-2.328430,-29.578522,130.000000
1310.000000,0.309082,-0.963867,0.249023,131.000000,0.450134,0.436783,0.612259,131.000000,-20.473648,-0.528427,-28.978516,131.000000
1320.000000,0.311035,-0.980957,0.241211,132.000000,0.389099,0.253677,0.429153,132.000000,-20.773636,-0.528427,-28.978516,132.000000
1330.000000,0.309082,-0.966797,0.241211,133.000000,0.267029,0.192642,0.490189,133.000000,-19.873642,-2.178421,-29.128525,133.000000
1340.000000,0.320312,-0.968750,0.255371,134.000000,0.572205,0.192642,0.185013,134.000000,-19.873642,-2.778427,-29.278519,134.000000
1350.000000,0.313965,-0.979980,0.250000,135.000000,0.572205,-0.047684,0.612259,135.000000,-20.023636,-2.778427,-29.278519,135.000000
1360.000000,0.301269,-0.967773,0.252930,136.000000,1.060486,0.192642,0.490189,136.000000,-19.273636,-1.728424,-29.128525,136.000000
1370.000000,0.306641,-0.965820,0.249023,137.000000,1.182556,-0.047684,0.490189,137.000000,-19.273636,-0.678421,-28.378525,137.000000
1380.000000,0.294922,-0.962890,0.250488,138.000000,0.816345,0.192642,0.185013,138.000000,-19.573639,-0.678421,-28.378525,138.000000
1390.000000,0.297852,-0.960449,0.260254,139.000000,0.572205,-0.230789,0.429153,139.000000,-18.673645,-2.478424,-29.128525,139.000000
1400.000000,0.309570,-0.973144,0.251465,140.000000,0.450134,0.131607,0.246048,140.000000,-18.673645,-2.028427,-30.328522,140.000000
1410.000000,0.305176,-0.970703,0.249023,141.000000,0.572205,-0.169754,0.307083,141.000000,-20.023636,-2.028427,-30.328522,141.000000
1420.000000,0.319824,-0.960449,0.258301,142.000000,0.083923,-0.535965,0.429153,142.000000,-18.523636,-2.478424,-29.428528,142.000000
1430.000000,0.318848,-0.955566,0.258301,143.000000,0.144958,-0.169754,0.612259,143.000000,-18.523636,-2.928421,-29.878525,143.000000
1440.000000,0.304687,-0.973144,0.279297,144.000000,0.694275,0.497818,0.001907,144.000000,-20.323639,-2.928421,-29.878525,144.000000
1450.000000,0.324219,-0.971679,0.242676,145.000000,0.450134,0.925064,0.246048,145.000000,-18.223648,-2.478424,-29.428528,145.000000
1460.000000,0.319824,-0.963867,0.251465,146.000000,0.511169,0.864029,0.368118,146.000000,-19.123642,-2.928421,-30.478516,146.000000
1470.000000,0.314453,-0.975586,0.255859,147.000000,0.205994,1.291275,0.368118,147.000000,-19.123642,-1.578430,-28.528519,147.000000
1480.000000,0.314453,-0.958496,0.251465,148.000000,-0.095367,0.192642,0.246048,148.000000,-19.873642,-1.578430,-28.528519,148.000000
1490.000000,0.313965,-0.968261,0.251465,149.000000,-0.034332,0.497818,0.429153,149.000000,-19.123642,-1.578430,-29.578522,149.000000
1500.000000,0.319824,-0.968261,0.252930,150.000000,0.267029,-0.169754,0.246048,150.000000,-20.323639,-1.578430,-28.978516,150.000000
1510.000000,0.321777,-0.960937,0.251953,151.000000,0.694275,-0.413895,-0.116348,151.000000,-20.023636,-2.478424,-30.178528,151.000000
1520.000000,0.315430,-0.962402,0.262207,152.000000,0.694275,-0.474930,0.307083,152.000000,-20.023636,-1.728424,-28.378525,152.000000
1530.000000,0.300781,-0.959961,0.252441,153.000000,0.572205,-0.108719,-0.116348,153.000000,-20.473648,-1.728424,-28.378525,153.000000
1540.000000,0.314941,-0.970703,0.249023,154.000000,0.144958,0.680923,0.123978,154.000000,-19.123642,-0.828430,-29.278519,154.000000
1550.000000,0.307129,-0.977539,0.253906,155.000000,0.816345,0.070572,-0.299454,155.000000,-19.123642,-0.828430,-28.528519,155.000000
1560.000000,0.319824,-0.965820,0.248047,156.000000,0.389099,0.619888,0.001907,156.000000,-19.873642,-0.828430,-28.528519,156.000000
1570.000000,0.314453,-0.968261,0.258301,157.000000,0.205994,-0.108719,-0.116348,157.000000,-19.423645,-3.528427,-28.978516,157.000000
1580.000000,0.309082,-0.949707,0.264160,158.000000,0.450134,-0.230789,0.429153,158.000000,-19.423645,-0.828430,-29.578522,158.000000
1590.000000,0.320801,-0.974609,0.248047,159.000000,0.328064,-0.352859,-0.055313,159.000000,-19.123642,-0.828430,-29.578522,159.000000
1600.000000,0.307617,-0.966797,0.260742,160.000000,-0.034332,-0.719070,0.123978,160.000000,-20.323639,-1.278427,-28.978516,160.000000
1610.000000,0.320801,-0.963867,0.250488,161.000000,-0.034332,-0.169754,-0.116348,161.000000,-19.273636,-1.428421,-29.128525,161.000000
1620.000000,0.315430,-0.966308,0.257324,162.000000,-0.400543,-0.413895,-0.177383,162.000000,-19.273636,-3.228424,-29.128525,162.000000
1630.000000,0.305664,-0.963379,0.246094,163.000000,0.328064,-0.719070,-0.299454,163.000000,-20.173645,-3.228424,-29.128525,163.000000
1640.000000,0.306152,-0.958008,0.257812,164.000000,-0.034332,-0.658035,-0.055313,164.000000,-18.973648,-2.778427,-29.578522,164.000000
1650.000000,0.308594,-0.965820,0.256348,165.000000,0.205994,-0.719070,-0.055313,165.000000,-18.973648,-2.178421,-30.178528,165.000000
1660.000000,0.312500,-0.975586,0.260254,166.000000,-0.217438,-0.658035,0.062943,166.000000,-18.973648,-2.178421,-30.178528,166.000000
1670.000000,0.308105,-0.965820,0.262695,167.000000,-0.278473,-0.658035,0.185013,167.000000,-19.873642,-3.228424,-29.428528,167.000000
1680.000000,0.312012,-0.961426,0.268555,168.000000,0.389099,-0.352859,-0.055313,168.000000,-19.873642,-3.078430,-28.978516,168.000000
1690.000000,0.310547,-0.964844,0.250000,169.000000,0.083923,0.375748,-0.360489,169.000000,-20.173645,-3.078430,-28.978516,169.000000
1700.000000,0.305664,-0.965332,0.257324,170.000000,-0.034332,-0.230789,0.001907,170.000000,-20.173645,-2.028427,-28.978516,170.000000
1710.000000,0.307129,-0.953125,0.259766,171.000000,-0.095367,-0.047684,0.307083,171.000000,-20.173645,-3.078430,-28.528519,171.000000
1720.000000,0.312988,-0.975097,0.257324,172.000000,-0.278473,-0.902176,0.062943,172.000000,-19.423645,-3.078430,-28.528519,172.000000
1730.000000,0.317383,-0.962890,0.252930,173.000000,0.083923,-0.047684,0.185013,173.000000,-19.423645,-2.028427,-28.978516,173.000000
1740.000000,0.319824,-0.964355,0.256836,174.000000,0.022888,-0.291824,0.123978,174.000000,-19.423645,-2.778427,-29.278519,174.000000
1750.000000,0.299316,-0.965332,0.245605,175.000000,0.694275,0.009537,0.307083,175.000000,-20.173645,-2.778427,-29.278519,175.000000
1760.000000,0.307129,-0.969238,0.263672,176.000000,-0.278473,0.253677,-0.055313,176.000000,-20.173645,-0.078430,-29.578522,176.000000
1770.000000,0.315430,-0.981933,0.258789,177.000000,0.022888,0.253677,0.307083,177.000000,-19.423645,-1.578430,-30.028519,177.000000
1780.000000,0.306152,-0.965332,0.255859,178.000000,-0.034332,-0.291824,0.368118,178.000000,-19.423645,-1.278427,-29.578522,178.000000
1790.000000,0.312988,-0.967285,0.243652,179.000000,0.022888,0.253677,0.123978,179.000000,-20.023636,-1.278427,-29.578522,179.000000
1800.000000,0.305664,-0.961426,0.250488,180.000000,0.328064,-0.474930,0.185013,180.000000,-19.273636,-1.428421,-28.378525,180.000000
1810.000000,0.305664,-0.969238,0.255859,181.000000,0.816345,0.009537,1.039505,181.000000,-19.273636,-0.678421,-28.678528,181.000000
1820.000000,0.304687,-0.972168,0.256836,182.000000,0.694275,-0.291824,0.612259,182.000000,-19.123642,-0.678421,-28.678528,182.000000
1830.000000,0.302246,-0.968750,0.257812,183.000000,0.205994,-0.169754,-0.055313,183.000000,-20.323639,-2.778427,-29.578522,183.000000
1840.000000,0.303223,-0.965332,0.251465,184.000000,0.572205,0.131607,0.123978,184.000000,-19.123642,-2.178421,-28.078522,184.000000
1850.000000,0.305664,-0.972168,0.252930,185.000000,0.083923,0.192642,0.123978,185.000000,-19.273636,-2.028427,-28.228516,185.000000
1860.000000,0.305176,-0.970703,0.259766,186.000000,0.205994,0.192642,-0.421524,186.000000,-19.273636,-2.478424,-29.128525,186.000000
1870.000000,0.309082,-0.967773,0.265137,187.000000,0.022888,0.436783,0.551224,187.000000,-20.173645,-2.478424,-29.128525,187.000000
1880.000000,0.315430,-0.972168,0.261719,188.000000,0.205994,-0.047684,0.856400,188.000000,-19.573639,-3.528427,-28.228516,188.000000
1890.000000,0.314453,-0.961914,0.258301,189.000000,0.144958,0.558853,0.368118,189.000000,-19.573639,-3.978424,-28.678528,189.000000
1900.000000,0.310547,-0.967773,0.253418,190.000000,0.083923,1.169205,-0.177383,190.000000,-19.273636,-3.978424,-28.678528,190.000000
1910.000000,0.317383,-0.971679,0.253418,191.000000,0.816345,0.192642,0.185013,191.000000,-19.873642,-2.178421,-29.128525,191.000000
1920.000000,0.306152,-0.963867,0.250488,192.000000,0.450134,0.131607,0.062943,192.000000,-18.973648,-2.778427,-28.528519,192.000000
1930.000000,0.312012,-0.974609,0.258301,193.000000,0.389099,0.070572,-0.055313,193.000000,-18.973648,-0.678421,-28.378525,193.000000
1940.000000,0.306152,-0.965332,0.255371,194.000000,0.633240,0.436783,0.185013,194.000000,-19.273636,-0.678421,-28.378525,194.000000
1950.000000,0.319336,-0.969238,0.254883,195.000000,0.511169,0.619888,0.551224,195.000000,-20.173645,-3.228424,-29.878525,195.000000
1960.000000,0.313965,-0.963867,0.259766,196.000000,0.267029,0.131607,0.368118,196.000000,-20.173645,-2.028427,-28.978516,196.000000
1970.000000,0.316406,-0.964844,0.254394,197.000000,0.450134,0.436783,-0.055313,197.000000,-18.523636,-2.028427,-28.978516,197.000000
1980.000000,0.309082,-0.956543,0.265625,198.000000,0.694275,-0.108719,0.246048,198.000000,-19.423645,-3.678421,-28.678528,198.000000
1990.000000,0.309082,-0.969726,0.254394,199.000000,0.633240,0.558853,-0.482559,199.000000,-19.423645,-2.778427,-29.578522,199.000000
2000.000000,0.321289,-0.958008,0.244629,200.000000,0.022888,0.375748,0.123978,200.000000,-20.473648,-2.778427,-29.578522,200.000000
2010.000000,0.314453,-0.966797,0.244141,201.000000,0.511169,0.070572,-0.421524,201.000000,-19.873642,-2.328430,-29.578522,201.000000
2020.000000,0.312012,-0.963379,0.244141,202.000000,0.144958,0.009537,0.429153,202.000000,-19.873642,-1.278427,-29.578522,202.000000
2030.000000,0.307129,-0.958496,0.250977,203.000000,0.694275,-0.352859,0.062943,203.000000,-18.523636,-1.278427,-29.578522,203.000000
2040.000000,0.303223,-0.954101,0.264160,204.000000,-0.034332,-0.352859,-0.116348,204.000000,-19.423645,-1.728424,-28.678528,204.000000
2050.000000,0.319336,-0.950683,0.253418,205.000000,0.022888,-0.413895,0.062943,205.000000,-19.423645,-2.328430,-28.978516,205.000000
2060.000000,0.316894,-0.967285,0.256348,206.000000,0.572205,-0.719070,0.429153,206.000000,-18.673645,-2.328430,-28.978516,206.000000
2070.000000,0.312500,-0.958008,0.249023,207.000000,0.144958,0.009537,-0.421524,207.000000,-20.173645,-2.778427,-29.578522,207.000000
2080.000000,0.303711,-0.958496,0.250977,208.000000,0.267029,-0.413895,-0.360489,208.000000,-19.273636,-0.828430,-28.528519,208.000000
2090.000000,0.306152,-0.982910,0.254883,209.000000,0.083923,-0.230789,0.368118,209.000000,-19.273636,-3.678421,-28.678528,209.000000
2100.000000,0.308105,-0.973144,0.253418,210.000000,0.083923,-0.108719,0.368118,210.000000,-19.123642,-3.678421,-28.678528,210.000000
2110.000000,0.311523,-0.972656,0.265625,211.000000,0.205994,-0.841141,0.001907,211.000000,-19.873642,-3.528427,-28.228516,211.000000
2120.000000,0.303711,-0.979980,0.249512,212.000000,-0.461578,-1.268387,0.123978,212.000000,-19.873642,-2.328430,-28.978516,212.000000
2130.000000,0.302734,-0.968261,0.263184,213.000000,-0.156403,-1.329422,0.429153,213.000000,-19.423645,-2.328430,-28.978516,213.000000
2140.000000,0.321777,-0.954101,0.258301,214.000000,-0.217438,-1.390457,-0.055313,214.000000,-19.423645,-2.778427,-28.528519,214.000000
2150.000000,0.304199,-0.968261,0.258301,215.000000,0.144958,-0.780106,-0.360489,215.000000,-20.923645,-2.778427,-28.528519,215.000000
2160.000000,0.313965,-0.969238,0.260742,216.000000,0.267029,-0.719070,-0.055313,216.000000,-20.773636,-1.578430,-28.978516,216.000000
2170.000000,0.305176,-0.974121,0.270508,217.000000,0.877380,0.497818,-0.360489,217.000000,-20.773636,-1.728424,-29.128525,217.000000
2180.000000,0.313965,-0.962890,0.260742,218.000000,1.182556,0.925064,0.246048,218.000000,-19.123642,-1.728424,-29.128525,218.000000
2190.000000,0.315918,-0.953125,0.252930,219.000000,0.999451,1.108170,-0.055313,219.000000,-17.773636,-0.828430,-27.178528,219.000000
2200.000000,0.310547,-0.963867,0.262207,220.000000,0.877380,1.413345,0.062943,220.000000,-17.773636,-2.478424,-28.078522,220.000000
2210.000000,0.320801,-0.958984,0.249512,221.000000,0.389099,1.047134,0.062943,221.000000,-20.473648,-2.478424,-28.078522,221.000000
2220.000000,0.300293,-0.969726,0.258789,222.000000,0.572205,0.558853,0.246048,222.000000,-19.573639,-2.778427,-28.528519,222.000000
2230.000000,0.315430,-0.961914,0.249512,223.000000,0.450134,-0.291824,0.123978,223.000000,-19.123642,-1.728424,-29.878525,223.000000
2240.000000,0.312988,-0.969726,0.254394,224.000000,0.450134,0.070572,0.429153,224.000000,-19.123642,-2.328430,-28.978516,224.000000
2250.000000,0.309570,-0.968750,0.253906,225.000000,1.121521,-0.230789,0.612259,225.000000,-18.973648,-2.328430,-28.978516,225.000000
2260.000000,0.312500,-0.969238,0.253418,226.000000,0.694275,-0.413895,0.795364,226.000000,-19.423645,-1.728424,-29.878525,226.000000
2270.000000,0.303223,-0.967773,0.250000,227.000000,1.304626,-0.413895,0.246048,227.000000,-19.423645,-2.778427,-28.228516,227.000000
2280.000000,0.307617,-0.965820,0.263672,228.000000,0.938416,0.619888,0.368118,228.000000,-19.873642,-2.778427,-28.228516,228.000000
2290.000000,0.319336,-0.970215,0.261230,229.000000,0.633240,0.436783,0.062943,229.000000,-20.473648,-1.578430,-27.928528,229.000000
2300.000000,0.322754,-0.967773,0.250977,230.000000,0.328064,1.169205,0.429153,230.000000,-20.473648,-2.778427,-29.278519,230.000000
2310.000000,0.310059,-0.976562,0.255371,231.000000,0.938416,0.864029,-0.360489,231.000000,-20.173645,-2.778427,-29.278519,231.000000
2320.000000,0.311035,-0.977539,0.263184,232.000000,0.816345,1.047134,0.123978,232.000000,-18.673645,-2.328430,-28.528519,232.000000
2330.000000,0.317383,-0.980469,0.249023,233.000000,0.999451,0.558853,-0.116348,233.000000,-18.673645,-2.328430,-29.578522,233.000000
2340.000000,0.314941,-0.963379,0.261719,234.000000,1.121521,0.802994,0.001907,234.000000,-20.473648,-2.328430,-29.578522,234.000000
2350.000000,0.298340,-0.974609,0.253418,235.000000,0.450134,0.986099,0.062943,235.000000,-18.073639,-1.578430,-30.028519,235.000000
2360.000000,0.307617,-0.969238,0.252930,236.000000,0.877380,0.741959,-0.055313,236.000000,-18.073639,-3.528427,-28.528519,236.000000
2370.000000,0.313965,-0.959472,0.254394,237.000000,0.816345,0.619888,0.185013,237.000000,-19.873642,-3.528427,-28.528519,237.000000
2380.000000,0.310059,-0.976074,0.251465,238.000000,0.877380,0.192642,0.001907,238.000000,-19.573639,-0.828430,-28.228516,238.000000
2390.000000,0.307617,-0.955566,0.259766,239.000000,1.487732,0.192642,0.001907,239.000000,-20.473648,-2.928421,-28.678528,239.000000
2400.000000,0.314941,-0.963867,0.252930,240.000000,0.999451,-0.108719,0.307083,240.000000,-20.473648,-2.028427,-27.928528,240.000000
2410.000000,0.316406,-0.967773,0.269043,241.000000,0.938416,0.436783,0.001907,241.000000,-19.573639,-2.028427,-27.928528,241.000000
2420.000000,0.313476,-0.973633,0.261719,242.000000,1.487732,1.047134,-0.055313,242.000000,-18.073639,-2.178421,-29.428528,242.000000
2430.000000,0.322754,-0.967773,0.265137,243.000000,1.243591,1.169205,-0.116348,243.000000,-18.223648,-3.078430,-29.578522,243.000000
2440.000000,0.316406,-0.968750,0.264160,244.000000,1.731873,0.741959,-0.299454,244.000000,-18.673645,-2.478424,-31.228516,244.000000
2450.000000,0.321777,-0.964355,0.268066,245.000000,1.914978,1.108170,-0.482559,245.000000,-18.673645,-3.078430,-28.528519,245.000000
2460.000000,0.321777,-0.966797,0.281250,246.000000,0.999451,0.680923,-0.665665,246.000000,-19.573639,-3.078430,-28.528519,246.000000
2470.000000,0.321289,-0.955078,0.271484,247.000000,1.243591,-0.413895,-0.055313,247.000000,-19.573639,-2.178421,-30.928528,247.000000
2480.000000,0.313965,-0.962402,0.265137,248.000000,1.853943,-0.108719,-0.177383,248.000000,-19.573639,-1.728424,-29.128525,248.000000
2490.000000,0.318359,-0.957031,0.269531,249.000000,1.243591,-0.535965,-0.177383,249.000000,-19.573639,-1.728424,-29.128525,249.000000
2500.000000,0.301758,-0.967773,0.255859,250.000000,1.670837,-0.535965,-0.299454,250.000000,-18.973648,-4.578430,-29.428528,250.000000
2510.000000,0.311523,-0.959472,0.267578,251.000000,1.121521,-0.169754,-0.543594,251.000000,-18.973648,-2.478424,-29.878525,251.000000
2520.000000,0.313965,-0.965332,0.258301,252.000000,1.182556,-0.230789,-0.848770,252.000000,-20.173645,-2.478424,-29.878525,252.000000
2530.000000,0.320312,-0.945801,0.268066,253.000000,0.877380,0.497818,-0.421524,253.000000,-19.123642,-2.778427,-28.978516,253.000000
2540.000000,0.301758,-0.959472,0.270508,254.000000,1.487732,-0.413895,-0.726700,254.000000,-18.523636,-2.778427,-28.978516,254.000000
2550.000000,0.316406,-0.955566,0.264648,255.000000,0.572205,-0.658035,-0.665665,255.000000,-18.523636,-2.178421,-28.378525,255.000000
2560.000000,0.327148,-0.960937,0.256836,256.000000,0.877380,-0.169754,-0.177383,256.000000,-18.373642,-2.178421,-28.378525,256.000000
2570.000000,0.308594,-0.947754,0.262207,257.000000,0.694275,0.436783,-1.031876,257.000000,-19.123642,-2.328430,-28.528519,257.000000
2580.000000,0.305664,-0.963867,0.262207,258.000000,0.572205,0.192642,-0.177383,258.000000,-19.123642,-3.528427,-28.528519,258.000000
2590.000000,0.314453,-0.961426,0.248047,259.000000,0.572205,0.802994,-0.726700,259.000000,-20.923645,-3.528427,-28.528519,259.000000
2600.000000,0.308105,-0.962402,0.270996,260.000000,0.633240,0.741959,-0.116348,260.000000,-19.123642,-3.078430,-28.528519,260.000000
2610.000000,0.299316,-0.965820,0.253906,261.000000,0.816345,-0.047684,0.001907,261.000000,-19.123642,-2.028427,-29.578522,261.000000
2620.000000,0.305664,-0.955566,0.270508,262.000000,1.243591,-0.413895,-0.238419,262.000000,-20.173645,-2.028427,-29.578522,262.000000
2630.000000,0.311035,-0.958984,0.274414,263.000000,1.304626,-0.169754,-0.421524,263.000000,-18.373642,-2.328430,-30.328522,263.000000
2640.000000,0.316406,-0.956054,0.278320,264.000000,1.121521,0.253677,-0.543594,264.000000,-18.373642,-3.078430,-29.278519,264.000000
2650.000000,0.321289,-0.972168,0.270996,265.000000,1.304626,0.986099,-0.604630,265.000000,-20.773636,-3.078430,-29.278519,265.000000
2660.000000,0.332519,-0.964355,0.262207,266.000000,-0.095367,2.084732,-0.726700,266.000000,-21.073639,-1.428421,-28.678528,266.000000
2670.000000,0.317871,-0.968261,0.273926,267.000000,0.267029,1.718521,-1.337051,267.000000,-21.073639,-2.478424,-29.428528,267.000000
2680.000000,0.322266,-0.979004,0.266602,268.000000,0.267029,2.267838,-1.337051,268.000000,-18.973648,-2.478424,-29.428528,268.000000
2690.000000,0.316894,-0.988769,0.259766,269.000000,0.755310,1.901627,-1.214981,269.000000,-19.423645,-2.928421,-28.678528,269.000000
2700.000000,0.316894,-0.980469,0.259766,270.000000,0.999451,0.802994,-0.848770,270.000000,-19.573639,-2.028427,-28.978516,270.000000
2710.000000,0.310547,-0.969726,0.259766,271.000000,0.877380,0.375748,-0.909805,271.000000,-19.573639,-2.478424,-29.128525,271.000000
2720.000000,0.325195,-0.969238,0.252930,272.000000,0.083923,0.436783,-1.581192,272.000000,-18.973648,-2.478424,-29.128525,272.000000
2730.000000,0.335937,-0.980469,0.258789,273.000000,0.328064,0.131607,-1.642227,273.000000,-18.973648,-3.228424,-30.478516,273.000000
2740.000000,0.329101,-0.983398,0.260254,274.000000,1.060486,0.070572,-2.862930,274.000000,-20.023636,-3.228424,-28.678528,274.000000
2750.000000,0.327148,-0.979004,0.255859,275.000000,1.060486,0.741959,-2.985001,275.000000,-19.273636,-2.928421,-28.678528,275.000000
2760.000000,0.327148,-0.970215,0.264160,276.000000,0.999451,1.535416,-3.717422,276.000000,-19.273636,-3.228424,-29.878525,276.000000
2770.000000,0.329590,-0.985840,0.257324,277.000000,0.755310,1.962662,-3.839493,277.000000,-20.173645,-3.228424,-29.878525,277.000000
2780.000000,0.319824,-0.967773,0.246582,278.000000,0.450134,2.389908,-3.900528,278.000000,-20.023636,-2.778427,-29.578522,278.000000
2790.000000,0.316894,-0.976562,0.248535,279.000000,1.060486,1.840591,-4.571915,279.000000,-20.023636,-2.178421,-29.428528,279.000000
2800.000000,0.332031,-0.984863,0.257812,280.000000,0.144958,0.619888,-5.060196,280.000000,-18.373642,-2.178421,-29.428528,280.000000
2810.000000,0.334473,-0.972656,0.255859,281.000000,0.267029,0.070572,-5.548477,281.000000,-18.373642,-2.778427,-28.978516,281.000000
2820.000000,0.332031,-0.978515,0.242187,282.000000,-0.156403,0.314713,-5.670547,282.000000,-18.373642,-2.028427,-30.628525,282.000000
2830.000000,0.339844,-0.981933,0.248047,283.000000,-0.034332,0.925064,-5.792618,283.000000,-20.323639,-2.028427,-30.628525,283.000000
2840.000000,0.326660,-0.979492,0.250488,284.000000,-0.339508,1.657486,-6.158829,284.000000,-19.423645,-0.978424,-28.078522,284.000000
2850.000000,0.318848,-0.970703,0.248047,285.000000,-0.217438,2.634048,-7.074356,285.000000,-18.223648,-2.778427,-31.078522,285.000000
2860.000000,0.347656,-0.964844,0.250977,286.000000,-0.156403,3.610611,-6.952286,286.000000,-18.223648,-3.228424,-30.178528,286.000000
2870.000000,0.335937,-0.977051,0.251465,287.000000,0.022888,4.037857,-7.013321,287.000000,-18.973648,-3.228424,-30.178528,287.000000
2880.000000,0.349609,-0.982422,0.244629,288.000000,0.877380,4.892349,-8.111954,288.000000,-19.123642,-2.478424,-29.428528,288.000000
2890.000000,0.351074,-0.987793,0.241699,289.000000,0.694275,5.868912,-8.234024,289.000000,-19.123642,-3.528427,-28.528519,289.000000
2900.000000,0.362305,-0.982422,0.243652,290.000000,0.999451,6.845474,-8.295059,290.000000,-18.973648,-3.528427,-28.528519,290.000000
2910.000000,0.360840,-0.980469,0.246094,291.000000,0.938416,8.005142,-7.867813,291.000000,-18.973648,-2.928421,-29.428528,291.000000
2920.000000,0.351074,-0.990234,0.249512,292.000000,0.022888,8.981705,-8.966446,292.000000,-18.973648,-1.428421,-29.128525,292.000000
2930.000000,0.350586,-0.987793,0.257812,293.000000,0.450134,9.775162,-8.966446,293.000000,-20.323639,-1.428421,-29.128525,293.000000
2940.000000,0.355957,-0.995117,0.258789,294.000000,-0.217438,10.141373,-8.539200,294.000000,-19.123642,-3.978424,-30.178528,294.000000
2950.000000,0.371582,-0.990722,0.248535,295.000000,0.267029,10.507584,-8.966446,295.000000,-19.123642,-2.328430,-31.378525,295.000000
2960.000000,0.362305,-0.973144,0.253906,296.000000,-0.522614,10.507584,-9.943008,296.000000,-18.073639,-2.328430,-31.378525,296.000000
2970.000000,0.356934,-0.967285,0.229980,297.000000,-1.010895,9.897232,-10.126114,297.000000,-21.073639,-3.528427,-30.628525,297.000000
2980.000000,0.372070,-0.967285,0.230469,298.000000,-0.522614,9.408951,-10.614395,298.000000,-21.073639,-3.228424,-29.428528,298.000000
2990.000000,0.353027,-0.972168,0.246094,299.000000,-1.377106,9.347916,-11.529922,299.000000,-19.873642,-3.228424,-29.428528,299.000000
3000.000000,0.365234,-0.970703,0.236816,300.000000,-0.644684,8.859634,-12.140274,300.000000,-19.273636,-3.828430,-30.328522,300.000000
3010.000000,0.377441,-0.957519,0.232422,301.000000,-0.339508,10.446548,-12.933731,301.000000,-19.273636,-3.228424,-30.928528,301.000000
3020.000000,0.365234,-0.960937,0.237305,302.000000,-0.949860,10.507584,-12.933731,302.000000,-19.273636,-2.478424,-30.178528,302.000000
3030.000000,0.365723,-0.956543,0.242187,303.000000,-1.560211,11.362076,-14.032364,303.000000,-19.123642,-2.478424,-30.178528,303.000000
3040.000000,0.364746,-0.956543,0.226562,304.000000,-1.621246,11.911392,-14.215469,304.000000,-18.973648,-4.128418,-28.228516,304.000000
3050.000000,0.359863,-0.940429,0.245605,305.000000,-1.560211,11.667252,-14.642715,305.000000,-18.973648,-2.928421,-29.878525,305.000000
3060.000000,0.370605,-0.938476,0.223633,306.000000,-1.255035,12.094498,-14.520645,306.000000,-17.323639,-2.928421,-29.878525,306.000000
3070.000000,0.353516,-0.943359,0.232910,307.000000,-2.292633,12.399673,-13.544083,307.000000,-18.673645,-4.128418,-31.378525,307.000000
3080.000000,0.359375,-0.939941,0.229004,308.000000,-1.560211,12.887955,-13.605118,308.000000,-18.673645,-3.078430,-31.378525,308.000000
3090.000000,0.359863,-0.919433,0.228516,309.000000,-1.987457,13.986588,-13.666153,309.000000,-18.673645,-3.078430,-31.378525,309.000000
3100.000000,0.359863,-0.917480,0.231934,310.000000,-1.743317,15.024185,-14.032364,310.000000,-20.773636,-5.178421,-30.028519,310.000000
3110.000000,0.352539,-0.931152,0.237305,311.000000,-2.292633,15.817642,-13.360977,311.000000,-20.773636,-3.678421,-30.178528,311.000000
3120.000000,0.370605,-0.920898,0.230469,312.000000,-2.231598,16.611099,-13.483047,312.000000,-18.223648,-3.678421,-30.178528,312.000000
3130.000000,0.368652,-0.931640,0.229980,313.000000,-3.025055,17.099380,-12.811661,313.000000,-17.323639,-4.278427,-29.428528,313.000000
3140.000000,0.365234,-0.925293,0.217285,314.000000,-2.780914,18.259048,-12.384415,314.000000,-17.323639,-2.778427,-30.028519,314.000000
3150.000000,0.359863,-0.939941,0.231445,315.000000,-2.658844,19.052505,-12.079239,315.000000,-16.273636,-2.778427,-30.028519,315.000000
3160.000000,0.367676,-0.926758,0.240234,316.000000,-3.208160,20.212173,-11.713028,316.000000,-18.673645,-4.128418,-31.378525,316.000000
3170.000000,0.366699,-0.924804,0.248047,317.000000,-3.696442,20.151138,-10.370255,317.000000,-17.773636,-3.528427,-30.628525,317.000000
3180.000000,0.371094,-0.927734,0.241211,318.000000,-3.391266,20.639420,-10.248184,318.000000,-16.573639,-3.228424,-31.528519,318.000000
3190.000000,0.378418,-0.929199,0.246582,319.000000,-4.184723,21.249771,-9.149551,319.000000,-17.323639,-4.128418,-32.128525,319.000000
3200.000000,0.395019,-0.925781,0.240723,320.000000,-3.696442,21.738052,-7.562637,320.000000,-17.323639,-4.128418,-31.828522,320.000000
3210.000000,0.389648,-0.936035,0.250000,321.000000,-4.856110,22.653580,-7.623672,321.000000,-17.323639,-4.128418,-31.828522,321.000000
3220.000000,0.400879,-0.933105,0.252930,322.000000,-5.649567,23.386002,-7.867813,322.000000,-17.473648,-4.428421,-31.378525,322.000000
3230.000000,0.397461,-0.936035,0.250977,323.000000,-5.771637,25.094986,-7.501602,323.000000,-17.473648,-4.578430,-30.478516,323.000000
3240.000000,0.399902,-0.934082,0.267090,324.000000,-6.320953,25.217056,-8.111954,324.000000,-16.273636,-4.578430,-30.478516,324.000000
3250.000000,0.401855,-0.946777,0.270996,325.000000,-6.931305,25.094986,-7.867813,325.000000,-17.473648,-2.778427,-32.428528,325.000000
3260.000000,0.385742,-0.930176,0.266602,326.000000,-6.687164,24.301529,-8.111954,326.000000,-17.473648,-2.928421,-30.478516,326.000000
3270.000000,0.400391,-0.933105,0.274902,327.000000,-6.992340,23.691177,-8.661270,327.000000,-16.723648,-2.928421,-30.478516,327.000000
3280.000000,0.395996,-0.943359,0.260742,328.000000,-7.175446,22.348404,-8.783340,328.000000,-16.573639,-3.678421,-31.528519,328.000000
3290.000000,0.398437,-0.939453,0.269531,329.000000,-7.236481,22.409439,-8.783340,329.000000,-16.573639,-3.828430,-31.828522,329.000000
3300.000000,0.399414,-0.946777,0.267578,330.000000,-7.602692,21.860123,-9.332657,330.000000,-17.473648,-3.828430,-31.828522,330.000000
3310.000000,0.400879,-0.937500,0.265137,331.000000,-9.067535,21.738052,-9.393692,331.000000,-14.923645,-3.678421,-31.228516,331.000000
3320.000000,0.406738,-0.967773,0.269043,332.000000,-8.945465,22.409439,-9.881973,332.000000,-15.519241,-2.178421,-30.928528,332.000000
3330.000000,0.420410,-0.968261,0.260742,333.000000,-9.983063,22.348404,-9.637833,333.000000,-15.519241,-4.424026,-30.024124,333.000000
3340.000000,0.411133,-0.977051,0.267578,334.000000,-10.349274,22.775650,-9.698868,334.000000,-15.369247,-4.424026,-30.024124,334.000000
3350.000000,0.404785,-0.964355,0.265137,335.000000,-11.142731,22.714615,-9.088516,335.000000,-14.769241,-4.274033,-31.524124,335.000000
3360.000000,0.411133,-0.970703,0.270508,336.000000,-12.424469,23.447037,-9.271622,336.000000,-14.769241,-4.724030,-31.824127,336.000000
3370.000000,0.411621,-0.966797,0.266113,337.000000,-12.973785,23.630142,-9.332657,337.000000,-15.669250,-4.724030,-31.824127,337.000000
3380.000000,0.391113,-0.972656,0.274902,338.000000,-13.217926,24.301529,-10.431290,338.000000,-14.919250,-3.674026,-31.974121,338.000000
3390.000000,0.423340,-0.982422,0.272949,339.000000,-14.194489,24.118423,-10.919571,339.000000,-14.919250,-4.574036,-31.974121,339.000000
3400.000000,0.401855,-0.965332,0.255859,340.000000,-15.110016,23.508072,-10.370255,340.000000,-15.969254,-4.574036,-31.974121,340.000000
3410.000000,0.392578,-0.984863,0.257324,341.000000,-15.598297,22.714615,-10.980606,341.000000,-15.669250,-5.024033,-33.024124,341.000000
3420.000000,0.400879,-0.985840,0.265625,342.000000,-17.063141,21.982193,-10.797501,342.000000,-15.669250,-3.224030,-31.974121,342.000000
3430.000000,0.391113,-1.000976,0.267090,343.000000,-17.673492,21.432877,-10.431290,343.000000,-14.469254,-3.224030,-31.974121,343.000000
3440.000000,0.389648,-1.000000,0.264160,344.000000,-18.589020,20.761490,-10.492325,344.000000,-14.469254,-4.124023,-31.374130,344.000000
3450.000000,0.396484,-1.003906,0.264160,345.000000,-19.687653,20.578384,-9.943008,345.000000,-14.469254,-3.824036,-32.424133,345.000000
3460.000000,0.383789,-1.008789,0.271484,346.000000,-20.847321,21.188736,-10.004044,346.000000,-14.169250,-3.824036,-32.424133,346.000000
3470.000000,0.386230,-1.022949,0.265137,347.000000,-21.884918,21.860123,-10.248184,347.000000,-14.169250,-3.674026,-31.974121,347.000000
3480.000000,0.385254,-1.015136,0.259277,348.000000,-23.227692,21.371841,-9.820938,348.000000,-14.169250,-3.224030,-33.024124,348.000000
3490.000000,0.379394,-1.048828,0.250488,349.000000,-24.814606,24.484634,-8.844376,349.000000,-15.369247,-3.974030,-33.324127,349.000000
3500.000000,0.392090,-1.044433,0.250000,350.000000,-26.035309,25.156021,-8.722305,350.000000,-15.069244,-2.924026,-32.574127,350.000000
3510.000000,0.375488,-1.069336,0.258301,351.000000,-27.378082,25.766373,-7.745743,351.000000,-15.069244,-1.574036,-30.624130,351.000000
3520.000000,0.377930,-1.056152,0.249023,352.000000,-28.537750,25.949478,-6.464005,352.000000,-13.119247,-1.574036,-30.624130,352.000000
3530.000000,0.374512,-1.064453,0.256348,353.000000,-30.307770,25.827408,-5.426407,353.000000,-14.019241,-2.474030,-32.574127,353.000000
3540.000000,0.383301,-1.060547,0.245117,354.000000,-31.650543,25.888443,-3.656387,354.000000,-14.019241,-2.324036,-33.924133,354.000000
3550.000000,0.376953,-1.028320,0.246582,355.000000,-33.603668,26.071548,-3.046036,355.000000,-12.969254,-2.324036,-33.924133,355.000000
3560.000000,0.370605,-1.028808,0.250977,356.000000,-34.519196,25.705338,-2.069473,356.000000,-14.019241,-1.574036,-32.424133,356.000000
3570.000000,0.375488,-1.016601,0.243164,357.000000,-35.861969,24.667740,-1.459122,357.000000,-14.019241,-0.824036,-33.174133,357.000000
3580.000000,0.374023,-1.023437,0.256348,358.000000,-36.899567,23.752213,-0.909805,358.000000,-12.969254,-0.824036,-33.174133,358.000000
3590.000000,0.365723,-1.008301,0.242676,359.000000,-36.960602,22.104263,0.001907,359.000000,-11.769241,-2.024033,-34.224121,359.000000
3600.000000,0.369629,-1.005371,0.245117,360.000000,-37.631989,21.432877,-0.177383,360.000000,-11.769241,-1.724030,-31.524124,360.000000
3610.000000,0.362305,-1.022949,0.243652,361.000000,-37.265778,20.883560,-0.604630,361.000000,-11.919250,-1.724030,-31.524124,361.000000
3620.000000,0.366211,-1.022949,0.250000,362.000000,-37.265778,20.517349,0.001907,362.000000,-14.469254,-0.524033,-31.824127,362.000000
3630.000000,0.362793,-1.026855,0.247070,363.000000,-36.777496,20.029068,-0.421524,363.000000,-12.519241,-0.824036,-33.474121,363.000000
3640.000000,0.347656,-1.036133,0.252441,364.000000,-36.838531,21.005630,0.490189,364.000000,-12.519241,1.275940,-31.974121,364.000000
3650.000000,0.338379,-1.026855,0.243164,365.000000,-38.059235,21.432877,1.283646,365.000000,-12.669250,1.275940,-31.974121,365.000000
3660.000000,0.324707,-1.015625,0.239746,366.000000,-38.425446,21.738052,1.832962,366.000000,-11.019241,-1.274033,-32.124130,366.000000
3670.000000,0.322754,-1.018066,0.252441,367.000000,-39.218903,20.944595,1.955032,367.000000,-11.019241,0.525940,-32.274124,367.000000
3680.000000,0.300293,-1.020019,0.251465,368.000000,-40.561676,20.029068,3.602982,368.000000,-11.169250,0.525940,-32.274124,368.000000
3690.000000,0.302246,-1.007812,0.240723,369.000000,-40.744781,18.136978,3.602982,369.000000,-11.169250,0.675934,-33.924133,369.000000
3700.000000,0.301758,-1.006347,0.241211,370.000000,-40.744781,16.672134,3.847122,370.000000,-11.169250,0.975937,-33.174133,370.000000
3710.000000,0.321289,-0.997070,0.257324,371.000000,-40.744781,15.390396,4.213333,371.000000,-10.269241,0.975937,-33.174133,371.000000
3720.000000,0.324707,-1.007812,0.252441,372.000000,-39.829254,15.085220,4.274368,372.000000,-11.018265,0.825943,-31.974121,372.000000
3730.000000,0.322266,-0.986816,0.251953,373.000000,-38.913727,15.207291,5.434036,373.000000,-11.018265,0.527405,-31.972168,373.000000
3740.000000,0.325195,-1.004883,0.256348,374.000000,-36.777496,16.672134,5.678177,374.000000,-11.018265,0.527405,-31.972168,374.000000
3750.000000,0.307617,-1.005859,0.257324,375.000000,-35.678864,17.831802,6.349564,375.000000,-12.068268,2.627396,-31.972168,375.000000
3760.000000,0.305176,-1.016601,0.255859,376.000000,-34.458160,19.174576,7.936478,376.000000,-12.068268,0.827408,-33.322174,376.000000
3770.000000,0.316894,-1.015625,0.242187,377.000000,-32.199860,20.151138,8.913040,377.000000,-9.968277,0.827408,-33.322174,377.000000
3780.000000,0.286621,-1.003418,0.225586,378.000000,-31.284332,21.249771,10.438919,378.000000,-10.418274,2.327408,-32.572174,378.000000
3790.000000,0.277344,-1.015136,0.222168,379.000000,-30.979156,20.456314,12.758255,379.000000,-10.418274,3.227402,-33.172180,379.000000
3800.000000,0.289062,-1.012207,0.221191,380.000000,-30.185699,19.052505,13.551712,380.000000,-10.268265,3.227402,-33.172180,380.000000
3810.000000,0.267090,-1.008789,0.218750,381.000000,-29.514313,16.550064,14.894485,381.000000,-9.368271,3.077408,-33.322174,381.000000
3820.000000,0.287598,-1.010254,0.218750,382.000000,-27.683258,14.963150,15.748978,382.000000,-9.365829,5.477402,-32.872177,382.000000
3830.000000,0.284668,-1.000488,0.210449,383.000000,-28.903961,12.094498,16.969681,383.000000,-11.315826,5.478867,-32.865829,383.000000
3840.000000,0.276367,-0.997070,0.194824,384.000000,-29.453278,10.385513,18.129349,384.000000,-10.865829,2.628860,-34.065826,384.000000
3850.000000,0.291504,-0.991211,0.199707,385.000000,-29.575348,9.164810,19.655228,385.000000,-10.865829,5.178864,-32.115829,385.000000
3860.000000,0.299316,-0.983886,0.180664,386.000000,-28.659821,8.371353,20.265579,386.000000,-11.015823,5.178864,-32.115829,386.000000
3870.000000,0.305176,-0.993652,0.182617,387.000000,-29.331207,9.775162,20.326614,387.000000,-9.965836,3.378860,-34.065826,387.000000
3880.000000,0.295898,-0.979492,0.182129,388.000000,-29.758453,11.972427,22.035599,388.000000,-9.965836,4.878860,-31.965820,388.000000
3890.000000,0.301758,-0.981445,0.169922,389.000000,-28.293610,14.413834,20.875931,389.000000,-9.515823,4.878860,-31.965820,389.000000
3900.000000,0.293457,-0.994140,0.146973,390.000000,-27.194977,16.550064,21.059036,390.000000,-8.465836,5.628860,-33.315826,390.000000
3910.000000,0.290039,-0.992676,0.140625,391.000000,-26.218414,19.906998,21.242142,391.000000,-8.465836,6.378860,-34.365829,391.000000
3920.000000,0.301269,-1.013183,0.135742,392.000000,-25.058746,21.982193,21.608353,392.000000,-9.815826,6.378860,-34.365829,392.000000
3930.000000,0.287109,-1.009277,0.116211,393.000000,-24.143219,24.179459,21.913528,393.000000,-8.315826,5.478867,-33.465820,393.000000
3940.000000,0.273926,-1.017578,0.113281,394.000000,-22.739410,24.057388,22.218704,394.000000,-8.165833,4.728867,-33.165833,394.000000
3950.000000,0.258301,-1.015625,0.113281,395.000000,-21.274567,24.301529,21.913528,395.000000,-8.165833,7.128860,-32.565826,395.000000
3960.000000,0.258789,-1.013672,0.111328,396.000000,-19.748688,24.240494,23.195267,396.000000,-9.215836,7.128860,-32.565826,396.000000
3970.000000,0.243164,-1.017090,0.115234,397.000000,-19.016266,24.484634,22.951126,397.000000,-9.215836,7.128860,-33.015823,397.000000
3980.000000,0.246582,-1.016113,0.107422,398.000000,-18.466949,24.057388,23.683548,398.000000,-9.215836,7.578873,-34.365829,398.000000
3990.000000,0.229004,-1.000488,0.101562,399.000000,-18.405914,22.226334,23.805618,399.000000,-8.465836,7.578873,-34.365829,399.000000
4000.000000,0.235352,-1.005371,0.100098,400.000000,-17.185211,20.212173,24.293900,400.000000,-6.815826,7.128860,-32.265823,400.000000
4010.000000,0.237305,-1.026855,0.109375,401.000000,-17.002106,17.831802,24.965286,401.000000,-6.815826,8.478867,-34.215820,401.000000
4020.000000,0.225586,-1.036133,0.113770,402.000000,-17.002106,16.305923,24.782181,402.000000,-7.715836,8.478867,-34.215820,402.000000
4030.000000,0.243164,-1.041015,0.109863,403.000000,-17.490387,15.268326,24.843216,403.000000,-8.165833,7.578873,-34.065826,403.000000
4040.000000,0.265625,-1.017090,0.092773,404.000000,-17.429352,15.512466,24.049759,404.000000,-8.165833,7.128860,-34.065826,404.000000
4050.000000,0.277344,-1.020019,0.076660,405.000000,-17.795563,15.756607,23.866653,405.000000,-6.515823,7.128860,-34.065826,405.000000
4060.000000,0.269531,-1.015625,0.071289,406.000000,-17.368317,16.122818,22.768021,406.000000,-7.715836,7.428864,-33.915833,406.000000
4070.000000,0.236328,-1.006836,0.070312,407.000000,-16.757965,16.733170,22.035599,407.000000,-7.715836,7.578873,-32.565826,407.000000
4080.000000,0.213379,-1.001953,0.070312,408.000000,-16.025543,17.099380,21.669388,408.000000,-6.215836,7.578873,-32.565826,408.000000
4090.000000,0.213379,-1.009277,0.062988,409.000000,-15.293121,16.305923,20.753860,409.000000,-6.514359,9.528870,-33.465820,409.000000
4100.000000,0.211914,-1.007812,0.062500,410.000000,-14.194489,14.841080,20.692825,410.000000,-6.514359,7.727890,-33.155579,410.000000
4110.000000,0.175293,-0.993164,0.064453,411.000000,-12.546539,13.498306,20.448685,411.000000,-6.364365,7.727890,-33.155579,411.000000
4120.000000,0.183594,-1.000000,0.069336,412.000000,-11.997223,12.155533,19.899368,412.000000,-6.814362,6.827896,-33.005569,412.000000
4130.000000,0.182617,-1.010254,0.070801,413.000000,-13.156891,11.117935,19.350052,413.000000,-6.814362,9.977890,-33.155579,413.000000
4140.000000,0.176269,-1.007324,0.052734,414.000000,-14.499664,9.775162,18.800735,414.000000,-6.664368,9.977890,-33.155579,414.000000
4150.000000,0.191894,-0.992187,0.054687,415.000000,-15.781403,8.981705,18.983841,415.000000,-6.514359,8.627884,-33.305573,415.000000
4160.000000,0.200684,-0.979492,0.037109,416.000000,-15.903473,9.714127,17.641068,416.000000,-6.514359,10.277893,-32.855576,416.000000
4170.000000,0.189453,-0.967285,0.022461,417.000000,-16.452789,12.704849,17.457962,417.000000,-5.464371,10.277893,-32.855576,417.000000
4180.000000,0.191406,-0.972656,0.025391,418.000000,-16.574860,16.061783,16.664505,418.000000,-5.314362,9.227890,-33.905579,418.000000
4190.000000,0.167969,-0.972656,0.032715,419.000000,-16.696930,18.747330,16.054153,419.000000,-5.314362,9.827896,-33.005569,419.000000
4200.000000,0.139160,-0.975097,0.041016,420.000000,-16.025543,21.432877,15.443802,420.000000,-4.714371,9.827896,-33.005569,420.000000
4210.000000,0.143555,-0.979980,0.045898,421.000000,-16.635895,22.653580,15.077591,421.000000,-4.264359,9.527893,-33.155579,421.000000
4220.000000,0.142090,-0.972168,0.042480,422.000000,-16.696930,24.911880,14.772415,422.000000,-4.264359,11.327896,-32.255569,422.000000
4230.000000,0.127930,-0.958008,0.022949,423.000000,-17.612457,25.766373,14.650345,423.000000,-6.514359,11.327896,-32.255569,423.000000
4240.000000,0.127930,-0.962402,0.011230,424.000000,-17.734528,26.803970,15.199661,424.000000,-4.564362,9.977890,-32.105576,424.000000
4250.000000,0.113770,-0.961914,0.011719,425.000000,-18.894196,28.146744,14.955521,425.000000,-4.264359,9.077896,-32.255569,425.000000
4260.000000,0.125488,-0.958496,0.012695,426.000000,-19.016266,28.940201,14.955521,426.000000,-4.264359,10.877884,-33.005569,426.000000
4270.000000,0.093750,-0.981445,0.023926,427.000000,-19.260406,29.184341,15.138626,427.000000,-4.414368,10.877884,-33.005569,427.000000
4280.000000,0.111816,-1.002441,0.043457,428.000000,-19.138336,28.390884,15.382767,428.000000,-2.164368,12.527893,-32.105576,428.000000
4290.000000,0.104004,-1.027832,0.062988,429.000000,-19.321442,28.390884,15.504837,429.000000,-2.164856,11.477890,-31.805573,429.000000
4300.000000,0.137695,-1.041504,0.064453,430.000000,-18.894196,28.940201,15.932083,430.000000,-4.714859,11.477402,-31.802155,430.000000
4310.000000,0.136230,-1.028808,0.059082,431.000000,-20.298004,30.466080,16.542435,431.000000,-2.914856,11.477402,-33.452148,431.000000
4320.000000,0.128906,-1.005859,0.056641,432.000000,-20.053864,32.602310,16.664505,432.000000,-2.914856,11.777405,-31.052155,432.000000
4330.000000,0.113770,-0.999511,0.045410,433.000000,-19.992828,35.837173,16.481400,433.000000,-2.764847,11.777405,-31.052155,433.000000
4340.000000,0.111328,-1.002929,0.039551,434.000000,-18.283844,37.912369,15.932083,434.000000,-1.264847,12.077408,-31.952148,434.000000
4350.000000,0.107422,-0.988769,0.036133,435.000000,-16.635895,38.766861,16.664505,435.000000,-1.264847,11.627396,-32.552155,435.000000
4360.000000,0.104492,-0.993164,0.033203,436.000000,-14.377594,39.804459,16.969681,436.000000,-3.064850,11.627396,-32.552155,436.000000
4370.000000,0.096680,-0.993164,0.038574,437.000000,-12.607574,39.194107,17.702103,437.000000,-2.164856,12.827408,-32.252151,437.000000
4380.000000,0.080566,-0.988769,0.029297,438.000000,-9.555817,39.133072,18.007278,438.000000,-2.464859,11.477402,-32.102158,438.000000
4390.000000,0.076660,-0.966308,0.020508,439.000000,-8.579254,34.616470,18.129349,439.000000,-0.964859,10.127396,-31.202148,439.000000
4400.000000,0.077148,-0.964844,0.012695,440.000000,-6.076813,33.029556,18.617630,440.000000,-1.114853,13.577408,-31.502151,440.000000
4410.000000,0.068848,-0.967773,0.019043,441.000000,-5.283356,32.175064,18.861771,441.000000,-1.114853,12.527405,-30.602158,441.000000
4420.000000,0.070312,-0.958984,0.012207,442.000000,-3.940582,31.381607,18.922806,442.000000,1.585114,12.527405,-30.602158,442.000000
4430.000000,0.068359,-0.969726,0.033203,443.000000,-2.780914,31.259537,19.227982,443.000000,0.085114,13.577408,-31.502151,443.000000
4440.000000,0.071777,-0.960937,0.038574,444.000000,-1.743317,30.771255,19.838333,444.000000,0.085114,12.827408,-31.952148,444.000000
4450.000000,0.082031,-0.960449,0.028320,445.000000,-1.010895,32.052994,20.692825,445.000000,-0.964859,12.827408,-31.952148,445.000000
4460.000000,0.092773,-0.940429,0.026367,446.000000,-1.377106,34.006119,21.181107,446.000000,-0.664856,13.127396,-31.502151,446.000000
4470.000000,0.086426,-0.951172,0.015625,447.000000,-1.865387,36.264420,21.791458,447.000000,-0.664856,13.127396,-30.452148,447.000000
4480.000000,0.081055,-0.952148,0.009277,448.000000,-2.902985,39.011002,21.913528,448.000000,0.085114,13.127396,-30.452148,448.000000
4490.000000,0.081055,-0.933594,0.002441,449.000000,-3.513336,41.147232,21.974564,449.000000,0.835114,13.577408,-32.552155,449.000000
4500.000000,0.059570,-0.937500,-0.007324,450.000000,-3.269196,42.184830,21.303177,450.000000,0.835114,12.077408,-30.902161,450.000000
4510.000000,0.045410,-0.919922,-0.018555,451.000000,-3.696442,43.466568,20.448685,451.000000,0.085114,12.077408,-30.902161,451.000000
4520.000000,0.041016,-0.936523,0.000488,452.000000,-4.245758,42.428970,20.692825,452.000000,2.935120,11.627396,-32.252151,452.000000
4530.000000,0.035645,-0.928711,0.004395,453.000000,-3.452301,41.147232,20.387650,453.000000,2.933167,10.877396,-31.952148,453.000000
4540.000000,0.035156,-0.939453,0.006836,454.000000,-3.147125,40.048599,20.631790,454.000000,1.583160,10.877396,-31.948730,454.000000
4550.000000,0.031738,-0.951660,0.030762,455.000000,-3.208160,38.888931,21.120071,455.000000,3.983170,13.127396,-31.198730,455.000000
4560.000000,0.032715,-0.962402,0.041016,456.000000,-2.658844,37.424088,21.730423,456.000000,3.833160,12.827408,-30.448730,456.000000
4570.000000,0.047363,-0.972656,0.032227,457.000000,-3.269196,36.020279,22.035599,457.000000,3.833160,12.227402,-32.398743,457.000000
4580.000000,0.047852,-0.971679,0.030273,458.000000,-3.635406,35.959244,22.401810,458.000000,3.383163,12.227402,-32.398743,458.000000
4590.000000,0.066895,-0.970703,0.046875,459.000000,-4.123688,36.935806,23.317337,459.000000,2.633163,13.127396,-32.248734,459.000000
4600.000000,0.061035,-0.962402,0.039551,460.000000,-5.466461,38.522720,23.134232,460.000000,2.633163,13.127396,-31.498734,460.000000
4610.000000,0.067871,-0.955078,0.022949,461.000000,-4.367828,40.781021,23.866653,461.000000,3.683167,13.127396,-31.498734,461.000000
4620.000000,0.059082,-0.972168,0.030762,462.000000,-3.086090,41.696548,24.660110,462.000000,4.733170,12.827408,-32.248734,462.000000
4630.000000,0.049316,-0.969238,0.037109,463.000000,-1.987457,42.245865,24.721146,463.000000,4.733170,13.127396,-30.898743,463.000000
4640.000000,0.015625,-0.980469,0.042480,464.000000,-1.743317,41.391373,23.805618,464.000000,3.983170,13.127396,-30.898743,464.000000
4650.000000,0.000000,-0.960449,0.039551,465.000000,-1.071930,38.217545,24.354935,465.000000,6.233170,13.577408,-31.198730,465.000000
4660.000000,-0.023926,-0.961914,0.064941,466.000000,-2.414703,33.945084,24.171829,466.000000,6.233170,12.827408,-30.448730,466.000000
4670.000000,-0.020020,-0.968750,0.073242,467.000000,-3.147125,29.245377,23.012161,467.000000,6.233170,12.827408,-30.448730,467.000000
4680.000000,-0.000488,-0.968261,0.087891,468.000000,-2.353668,24.606705,21.913528,468.000000,6.533157,12.827408,-31.948730,468.000000
4690.000000,-0.003906,-1.017578,0.059082,469.000000,-2.475739,20.456314,23.012161,469.000000,6.233170,12.077408,-30.448730,469.000000
4700.000000,-0.004883,-1.033691,0.033203,470.000000,0.022888,23.202896,24.415970,470.000000,5.783157,13.877396,-31.198730,470.000000
4710.000000,-0.009766,-1.034668,0.028320,471.000000,2.281189,25.583267,25.514603,471.000000,6.533157,14.627396,-30.448730,471.000000
4720.000000,-0.042480,-1.036621,0.030762,472.000000,4.905701,26.926041,26.552200,472.000000,6.533157,12.077408,-30.898743,472.000000
4730.000000,-0.060059,-1.063965,0.020508,473.000000,7.774353,25.461197,27.467728,473.000000,7.283157,12.077408,-30.898743,473.000000
4740.000000,-0.064453,-1.063965,0.043457,474.000000,9.727478,22.714615,28.810501,474.000000,7.434143,12.827408,-29.398743,474.000000
4750.000000,-0.056152,-1.089844,0.059082,475.000000,10.948181,19.357681,29.176712,475.000000,7.434143,12.527893,-29.999222,475.000000
4760.000000,-0.049805,-1.091797,0.064941,476.000000,11.070251,16.183853,29.481888,476.000000,6.984146,12.527893,-29.999222,476.000000
4770.000000,-0.052734,-1.083496,0.053711,477.000000,11.741638,13.620377,29.970169,477.000000,7.584137,12.077896,-30.149231,477.000000
4780.000000,-0.041016,-1.113281,0.042480,478.000000,11.009216,11.178970,30.702591,478.000000,7.584137,11.327896,-31.199219,478.000000
4790.000000,-0.061035,-1.110351,0.033691,479.000000,10.826111,10.202408,31.129837,479.000000,8.484146,11.327896,-31.199219,479.000000
4800.000000,-0.068359,-1.120605,0.012695,480.000000,10.215759,9.408951,32.228470,480.000000,9.984146,12.977890,-29.999222,480.000000
4810.000000,-0.069824,-1.127441,0.022461,481.000000,8.445740,7.761002,33.327103,481.000000,9.984146,11.477890,-30.599228,481.000000
4820.000000,-0.085449,-1.121582,0.039551,482.000000,8.506775,6.357193,35.707474,482.000000,9.234146,11.477890,-30.599228,482.000000
4830.000000,-0.076172,-1.114746,0.017090,483.000000,7.347107,4.709244,37.294388,483.000000,9.384140,11.777893,-31.799225,483.000000
4840.000000,-0.070312,-1.098633,0.023437,484.000000,6.614685,4.404068,37.172318,484.000000,9.384140,11.327896,-31.499222,484.000000
4850.000000,-0.062012,-1.085449,0.022949,485.000000,7.102966,1.840591,36.256790,485.000000,10.134140,11.327896,-31.499222,485.000000
4860.000000,-0.078125,-1.071289,0.012695,486.000000,7.102966,0.253677,34.303665,486.000000,8.484146,10.577896,-30.899231,486.000000
4870.000000,-0.076660,-1.066406,0.015137,487.000000,7.164001,-2.611160,32.960892,487.000000,8.785110,8.777893,-30.599228,487.000000
4880.000000,-0.081543,-1.062988,0.029297,488.000000,7.286072,-4.259109,31.129837,488.000000,8.785110,10.577896,-30.899719,488.000000
4890.000000,-0.095703,-1.048828,0.021484,489.000000,8.201599,-4.930496,30.641556,489.000000,9.085114,10.577896,-30.899719,489.000000
4900.000000,-0.090332,-1.050781,0.030762,490.000000,8.384705,-6.151199,29.237747,490.000000,10.735123,12.077896,-29.399719,490.000000
4910.000000,-0.097656,-1.043457,0.037598,491.000000,8.872986,-7.371902,27.956009,491.000000,10.735123,9.527893,-30.599716,491.000000
4920.000000,-0.091309,-1.043945,0.057129,492.000000,9.117126,-8.409500,26.857376,492.000000,8.785110,9.527893,-30.599716,492.000000
4930.000000,-0.099609,-1.028808,0.056641,493.000000,8.995056,-8.531570,25.270462,493.000000,10.135117,10.127884,-31.499710,493.000000
4940.000000,-0.093750,-1.030273,0.077637,494.000000,8.995056,-9.752274,25.392532,494.000000,10.135117,9.377884,-31.199707,494.000000
4950.000000,-0.095215,-1.008301,0.077637,495.000000,10.215759,-9.019852,24.477005,495.000000,9.985123,9.377884,-31.199707,495.000000
4960.000000,-0.074707,-1.003418,0.076660,496.000000,10.276794,-8.653641,23.317337,496.000000,11.035110,9.977890,-32.099716,496.000000
4970.000000,-0.085937,-1.012695,0.099609,497.000000,12.229919,-8.165359,22.462845,497.000000,11.035110,10.277893,-30.299713,497.000000
4980.000000,-0.096191,-1.018066,0.085937,498.000000,14.244080,-7.432938,21.059036,498.000000,9.235123,10.277893,-30.299713,498.000000
4990.000000,-0.094238,-1.027832,0.099121,499.000000,14.915466,-7.005692,19.289017,499.000000,9.235123,10.277893,-30.599716,499.000000
5000.000000,-0.099121,-1.022461,0.101562,500.000000,15.037537,-7.066727,18.739700,500.000000,9.835114,10.277893,-30.599716,500.000000
5010.000000,-0.126953,-1.036621,0.098633,501.000000,16.136169,-6.883621,18.739700,501.000000,9.085114,9.827896,-30.899719,501.000000
5020.000000,-0.132324,-1.044922,0.104004,502.000000,17.723083,-6.700516,19.227982,502.000000,9.235123,8.627884,-31.199707,502.000000
5030.000000,-0.139648,-1.056640,0.101562,503.000000,18.150330,-6.151199,19.411087,503.000000,9.235123,8.777893,-32.099716,503.000000
5040.000000,-0.150391,-1.052734,0.091797,504.000000,17.234802,-5.846024,19.166946,504.000000,9.235123,8.777893,-32.099716,504.000000
5050.000000,-0.138184,-1.067383,0.082031,505.000000,15.708923,-6.212234,19.044876,505.000000,9.385117,7.427887,-31.349716,505.000000
5060.000000,-0.125488,-1.068847,0.079590,506.000000,14.122009,-7.860184,17.824173,506.000000,9.385117,9.077896,-30.899719,506.000000
5070.000000,-0.150879,-1.049804,0.071289,507.000000,13.084412,-8.409500,16.969681,507.000000,8.935120,9.077896,-30.899719,507.000000
5080.000000,-0.156250,-1.056152,0.055176,508.000000,12.779236,-8.775711,15.199661,508.000000,9.385117,7.727890,-30.299713,508.000000
5090.000000,-0.156738,-1.056640,0.033203,509.000000,12.474060,-9.263992,14.101028,509.000000,9.385117,8.627884,-30.899719,509.000000
5100.000000,-0.150391,-1.033203,0.037598,510.000000,10.398865,-10.362625,13.063431,510.000000,11.635117,8.627884,-30.899719,510.000000
5110.000000,-0.144531,-1.025390,0.030273,511.000000,9.178162,-9.447098,11.842728,511.000000,8.185120,7.577896,-31.949707,511.000000
5120.000000,-0.166504,-1.035156,0.026855,512.000000,8.445740,-9.202957,9.584427,512.000000,8.185120,9.227890,-32.099716,512.000000
5130.000000,-0.165039,-1.046386,0.043457,513.000000,8.384705,-7.677078,8.119583,513.000000,10.435120,9.227890,-32.099716,513.000000
5140.000000,-0.166016,-1.073730,0.036133,514.000000,8.506775,-7.555008,6.105423,514.000000,9.085114,7.877884,-31.199707,514.000000
5150.000000,-0.174805,-1.070312,0.052246,515.000000,7.530212,-8.226395,5.250931,515.000000,9.085114,7.877884,-30.899719,515.000000
5160.000000,-0.171875,-1.066406,0.063477,516.000000,7.102966,-9.202957,5.739212,516.000000,10.285110,7.877884,-30.899719,516.000000
5170.000000,-0.181152,-1.062011,0.060059,517.000000,6.736755,-9.141922,5.311966,517.000000,9.985123,7.727890,-32.399719,517.000000
5180.000000,-0.173828,-1.059082,0.053711,518.000000,8.140564,-8.836746,6.410599,518.000000,9.835114,7.427887,-32.399719,518.000000
5190.000000,-0.188965,-1.063476,0.058594,519.000000,8.079529,-8.104324,5.739212,519.000000,9.835114,6.377884,-32.249710,519.000000
5200.000000,-0.174316,-1.057129,0.058594,520.000000,7.286072,-7.066727,5.250931,520.000000,8.935120,6.377884,-32.249710,520.000000
5210.000000,-0.178711,-1.072754,0.061035,521.000000,6.065369,-6.395340,4.396439,521.000000,9.235123,6.677887,-31.799713,521.000000
5220.000000,-0.162109,-1.050781,0.081055,522.000000,6.858826,-4.808426,4.823685,522.000000,9.235123,7.727890,-31.349716,522.000000
5230.000000,-0.151367,-1.060058,0.103027,523.000000,8.201599,-3.404617,4.457474,523.000000,9.685120,7.727890,-31.349716,523.000000
5240.000000,-0.146973,-1.059570,0.101562,524.000000,8.384705,-1.756668,4.884720,524.000000,10.435120,8.027893,-32.399719,524.000000
5250.000000,-0.106934,-1.026367,0.089844,525.000000,3.929138,1.657486,3.419876,525.000000,10.435120,7.127884,-30.149719,525.000000
5260.000000,-0.098633,-0.998047,0.067871,526.000000,-1.438141,4.404068,1.649857,526.000000,7.885117,7.127884,-30.149719,526.000000
5270.000000,-0.067871,-0.963379,0.044922,527.000000,-7.480621,6.601334,-0.360489,527.000000,9.235123,6.977890,-31.799713,527.000000
5280.000000,-0.149414,-0.966797,0.013184,528.000000,-10.288239,9.408951,-2.069473,528.000000,9.835114,7.727890,-31.349716,528.000000
5290.000000,-0.166992,-0.976562,-0.012207,529.000000,-8.457184,13.498306,-3.107071,529.000000,9.385117,6.377884,-32.549713,529.000000
5300.000000,-0.199219,-1.002441,0.004883,530.000000,-6.931305,11.178970,-2.862930,530.000000,9.385117,7.577896,-31.199707,530.000000
5310.000000,-0.213867,-0.994629,0.012695,531.000000,-6.687164,5.685806,-3.168106,531.000000,11.635117,7.577896,-31.199707,531.000000
5320.000000,-0.205566,-0.997558,0.014648,532.000000,-6.931305,-1.451492,-2.923965,532.000000,10.285110,7.127884,-30.449707,532.000000
5330.000000,-0.194824,-1.002929,0.025879,533.000000,-6.870270,-8.043289,-3.168106,533.000000,9.385117,6.977890,-31.049713,533.000000
5340.000000,-0.180176,-1.015625,0.043457,534.000000,-8.274078,-12.987137,-3.839493,534.000000,9.385117,7.127884,-30.149719,534.000000
5350.000000,-0.147949,-1.029785,0.040039,535.000000,-7.114410,-15.489578,-3.107071,535.000000,10.285110,7.127884,-30.149719,535.000000
5360.000000,-0.134277,-1.042480,0.046875,536.000000,-7.663727,-15.611649,-2.313614,536.000000,8.785110,8.477890,-30.599716,536.000000
5370.000000,-0.138672,-1.033691,0.059570,537.000000,-8.640289,-13.902664,-2.618790,537.000000,8.785110,8.327896,-31.199707,537.000000
5380.000000,-0.137695,-1.032715,0.056152,538.000000,-8.457184,-11.034012,-2.923965,538.000000,11.035110,8.327896,-31.199707,538.000000
5390.000000,-0.125000,-1.026367,0.050293,539.000000,-8.518219,-6.883621,-3.229141,539.000000,7.585114,7.427887,-32.099716,539.000000
5400.000000,-0.122559,-1.023926,0.044922,540.000000,-8.152008,-3.953934,-3.534317,540.000000,7.585114,6.377884,-30.899719,540.000000
5410.000000,-0.141113,-1.024414,0.024414,541.000000,-8.335114,0.741959,-3.900528,541.000000,9.385117,6.377884,-30.899719,541.000000
5420.000000,-0.162598,-1.013672,0.003906,542.000000,-8.640289,2.878189,-4.327774,542.000000,9.985123,9.377884,-30.899719,542.000000
5430.000000,-0.155273,-1.043945,0.000488,543.000000,-8.335114,4.220963,-4.938126,543.000000,9.985123,8.027893,-31.799713,543.000000
5440.000000,-0.141602,-1.024414,-0.018066,544.000000,-9.555817,5.258560,-5.365372,544.000000,8.035110,8.027893,-31.799713,544.000000
5450.000000,-0.139160,-1.033203,-0.023926,545.000000,-9.922028,5.075455,-5.975723,545.000000,9.085114,8.327896,-31.949707,545.000000
5460.000000,-0.145020,-1.021484,0.000488,546.000000,-9.738922,4.587173,-6.464005,546.000000,9.085114,9.077896,-30.449707,546.000000
5470.000000,-0.128906,-1.020508,0.024902,547.000000,-9.433746,3.488541,-7.501602,547.000000,11.185120,9.077896,-30.449707,547.000000
5480.000000,-0.136230,-1.012207,0.012695,548.000000,-9.677887,2.450943,-7.806778,548.000000,9.835114,8.627884,-30.149719,548.000000
5490.000000,-0.146973,-1.020508,0.023926,549.000000,-10.837555,3.976822,-7.074356,549.000000,8.935120,9.827896,-31.949707,549.000000
5500.000000,-0.144531,-1.018066,0.028809,550.000000,-11.325836,5.136490,-7.013321,550.000000,8.935120,7.427887,-29.549713,550.000000
5510.000000,-0.137695,-1.020508,0.014648,551.000000,-11.447906,6.052017,-7.379532,551.000000,9.985123,7.427887,-29.549713,551.000000
5520.000000,-0.147461,-1.029785,0.005859,552.000000,-11.081696,5.624771,-8.600235,552.000000,10.285110,8.777893,-29.549713,552.000000
5530.000000,-0.148437,-1.028808,-0.000488,553.000000,-12.546539,5.075455,-8.234024,553.000000,10.285110,7.727890,-30.299713,553.000000
5540.000000,-0.153320,-1.034668,0.002930,554.000000,-13.095856,2.939224,-8.295059,554.000000,9.235123,7.727890,-30.299713,554.000000
5550.000000,-0.152344,-1.031250,0.012207,555.000000,-13.767242,1.474380,-7.806778,555.000000,9.685120,8.477890,-31.049713,555.000000
5560.000000,-0.140625,-1.038574,0.012695,556.000000,-13.462067,0.986099,-6.952286,556.000000,9.685120,8.477890,-29.999710,556.000000
5570.000000,-0.140625,-1.016113,0.006348,557.000000,-12.424469,0.253677,-6.769180,557.000000,9.685120,8.477890,-29.999710,557.000000
5580.000000,-0.140625,-1.027832,0.029297,558.000000,-10.898590,-0.047684,-6.402969,558.000000,8.185120,8.477890,-30.599716,558.000000
5590.000000,-0.153809,-1.024902,0.033203,559.000000,-9.067535,-0.780106,-4.327774,559.000000,8.785110,8.477890,-31.799713,559.000000
5600.000000,-0.156738,-1.037597,0.037109,560.000000,-8.579254,-0.169754,-3.290176,560.000000,8.485123,10.127884,-28.349716,560.000000
5610.000000,-0.144531,-1.030761,0.041016,561.000000,-7.480621,0.253677,-2.557755,561.000000,8.485123,9.227890,-30.299713,561.000000
5620.000000,-0.143066,-1.023437,0.028809,562.000000,-7.419586,0.925064,-2.374649,562.000000,8.485123,9.227890,-30.299713,562.000000
5630.000000,-0.159668,-1.024414,0.021484,563.000000,-7.480621,0.925064,-1.825333,563.000000,8.935120,9.977890,-30.299713,563.000000
5640.000000,-0.161133,-1.036133,0.023926,564.000000,-6.198883,0.497818,-0.787735,564.000000,9.685120,9.227890,-30.299713,564.000000
5650.000000,-0.156250,-1.035156,0.032227,565.000000,-5.710602,1.108170,-0.299454,565.000000,9.685120,8.777893,-29.999710,565.000000
5660.000000,-0.137207,-1.037109,0.017578,566.000000,-4.306793,2.267838,1.100540,566.000000,9.985123,8.777893,-29.999710,566.000000
5670.000000,-0.148926,-1.030761,0.022461,567.000000,-2.658844,3.427505,1.588821,567.000000,9.385117,9.527893,-28.499710,567.000000
5680.000000,-0.146484,-1.026367,0.020020,568.000000,-2.292633,3.793716,2.260208,568.000000,9.385117,9.827896,-31.199707,568.000000
5690.000000,-0.148926,-1.042480,0.019043,569.000000,-0.400543,2.878189,2.992630,569.000000,9.985123,9.827896,-31.199707,569.000000
5700.000000,-0.164062,-1.022461,0.041016,570.000000,0.938416,1.352310,3.602982,570.000000,9.385117,9.227890,-30.599716,570.000000
5710.000000,-0.168945,-1.033691,0.051758,571.000000,2.952576,0.192642,4.152298,571.000000,9.385117,9.827896,-31.199707,571.000000
5720.000000,-0.159180,-1.027344,0.041504,572.000000,4.844666,-0.230789,5.006790,572.000000,9.085114,9.827896,-31.199707,572.000000
5730.000000,-0.146484,-1.034668,0.053223,573.000000,6.065369,-0.230789,4.945755,573.000000,9.235123,9.077896,-29.399719,573.000000
5740.000000,-0.122070,-1.027344,0.085937,574.000000,9.361267,-0.352859,4.274368,574.000000,9.235123,9.977890,-30.299713,574.000000
5750.000000,-0.110840,-1.033691,0.112305,575.000000,12.046814,0.680923,4.030228,575.000000,10.435120,9.977890,-30.299713,575.000000
5760.000000,-0.111328,-1.013672,0.105957,576.000000,13.755798,1.169205,4.213333,576.000000,8.785110,10.577896,-29.099716,576.000000
5770.000000,-0.106445,-1.012695,0.110352,577.000000,14.549255,3.244400,4.579544,577.000000,8.785110,10.577896,-31.499710,577.000000
5780.000000,-0.103516,-1.002441,0.101562,578.000000,15.342712,5.807877,4.457474,578.000000,10.135117,10.577896,-31.499710,578.000000
5790.000000,-0.110352,-1.009765,0.075195,579.000000,16.014099,9.164810,4.152298,579.000000,10.885117,8.627884,-31.199707,579.000000
5800.000000,-0.117676,-1.015625,0.047852,580.000000,15.464783,12.216568,4.091263,580.000000,11.035110,9.377884,-30.149719,580.000000
5810.000000,-0.129395,-1.012207,0.027344,581.000000,14.305115,12.948990,3.541946,581.000000,11.035110,8.777893,-29.549713,581.000000
5820.000000,-0.122559,-1.010742,-0.001953,582.000000,11.192322,12.643814,3.297806,582.000000,9.835114,8.777893,-29.549713,582.000000
5830.000000,-0.145020,-0.995605,-0.049316,583.000000,6.309509,12.704849,3.053665,583.000000,8.185120,9.377884,-30.899719,583.000000
5840.000000,-0.125977,-0.977539,-0.095215,584.000000,2.525330,14.108658,2.870560,584.000000,8.185120,9.227890,-29.999710,584.000000
5850.000000,-0.146484,-0.984375,-0.106445,585.000000,0.450134,13.864517,2.687454,585.000000,11.335114,9.227890,-29.999710,585.000000
5860.000000,-0.137695,-0.983398,-0.081543,586.000000,0.267029,13.376236,2.016068,586.000000,10.285110,8.477890,-29.999710,586.000000
5870.000000,-0.129883,-1.004883,-0.059570,587.000000,-1.865387,10.263443,1.283646,587.000000,10.285110,7.427887,-30.599716,587.000000
5880.000000,-0.136719,-1.014648,-0.041504,588.000000,-5.161285,7.394791,0.734329,588.000000,9.835114,7.427887,-30.599716,588.000000
5890.000000,-0.139160,-1.025390,-0.037109,589.000000,-6.259918,3.915787,0.185013,589.000000,9.835114,8.327896,-29.849716,589.000000
5900.000000,-0.133301,-1.042969,-0.018555,590.000000,-7.724762,2.573013,0.734329,590.000000,9.235123,8.327896,-29.849716,590.000000
5910.000000,-0.128418,-1.031250,-0.020996,591.000000,-8.701324,0.009537,-0.604630,591.000000,8.785110,7.427887,-28.949707,591.000000
5920.000000,-0.136230,-1.056640,0.002441,592.000000,-9.983063,-2.977371,-0.909805,592.000000,8.785110,7.877884,-30.149719,592.000000
5930.000000,-0.158691,-1.053222,0.015625,593.000000,-10.227203,-3.953934,-0.299454,593.000000,11.035110,7.877884,-30.149719,593.000000
5940.000000,-0.157227,-1.041992,0.015137,594.000000,-10.288239,-5.357742,-0.360489,594.000000,9.835114,9.527893,-28.199707,594.000000
5950.000000,-0.156738,-1.071777,0.027344,595.000000,-9.860992,-5.113602,-0.055313,595.000000,9.235123,8.327896,-29.099716,595.000000
5960.000000,-0.151855,-1.057129,0.021973,596.000000,-9.555817,-4.137039,0.429153,596.000000,9.235123,7.727890,-29.249710,596.000000
5970.000000,-0.125977,-1.066894,0.018555,597.000000,-9.738922,-2.183914,0.246048,597.000000,10.285110,7.727890,-29.249710,597.000000
5980.000000,-0.134277,-1.061035,0.021973,598.000000,-8.213043,-0.047684,-0.360489,598.000000,10.285110,9.227890,-29.249710,598.000000
5990.000000,-0.143555,-1.060547,0.025391,599.000000,-8.701324,1.291275,-0.421524,599.000000,10.285110,9.527893,-29.549713,599.000000
6000.000000,-0.161621,-1.075683,0.024414,600.000000,-7.663727,2.573013,-0.421524,600.000000,11.185120,9.527893,-29.549713,600.000000
6010.000000,-0.169434,-1.085449,0.036621,601.000000,-7.297516,2.389908,0.307083,601.000000,10.435120,7.877884,-29.849716,601.000000
6020.000000,-0.176758,-1.087890,0.044434,602.000000,-6.931305,2.450943,1.161575,602.000000,10.435120,9.077896,-30.149719,602.000000
6030.000000,-0.195312,-1.092773,0.043457,603.000000,-7.175446,1.474380,0.856400,603.000000,9.385117,9.077896,-30.149719,603.000000
6040.000000,-0.187500,-1.096191,0.059082,604.000000,-6.015778,-0.047684,1.466751,604.000000,10.885117,8.627884,-29.099716,604.000000
6050.000000,-0.190430,-1.088867,0.046387,605.000000,-3.940582,0.009537,2.565384,605.000000,10.885117,7.877884,-30.449707,605.000000
6060.000000,-0.163086,-1.087890,0.054199,606.000000,-2.292633,0.741959,3.664017,606.000000,9.985123,7.877884,-30.449707,606.000000
6070.000000,-0.153320,-1.090820,0.061523,607.000000,-1.255035,4.037857,4.213333,607.000000,9.985123,8.777893,-29.999710,607.000000
6080.000000,-0.156250,-1.056152,0.075684,608.000000,-0.461578,5.929947,3.480911,608.000000,9.985123,9.527893,-31.049713,608.000000
6090.000000,-0.128418,-1.055664,0.073242,609.000000,0.511169,6.357193,2.443314,609.000000,9.685120,9.527893,-31.049713,609.000000
6100.000000,-0.135742,-1.064941,0.075684,610.000000,1.365662,6.967545,2.382278,610.000000,11.035110,9.977890,-30.299713,610.000000
6110.000000,-0.144531,-1.062011,0.080078,611.000000,1.182556,8.066177,1.649857,611.000000,10.435120,9.977890,-30.299713,611.000000
6120.000000,-0.152832,-1.034179,0.049316,612.000000,0.267029,8.310318,1.344681,612.000000,10.435120,10.127884,-29.099716,612.000000
6130.000000,-0.181641,-1.034179,0.035645,613.000000,0.389099,6.967545,1.649857,613.000000,10.885117,10.127884,-29.099716,613.000000
6140.000000,-0.190918,-1.032226,0.040527,614.000000,-0.705719,4.159927,1.222610,614.000000,11.335114,9.377884,-29.099716,614.000000
6150.000000,-0.196289,-1.025390,0.033203,615.000000,-0.766754,0.925064,1.466751,615.000000,11.335114,8.027893,-29.549713,615.000000
6160.000000,-0.180176,-1.020508,0.029297,616.000000,-1.010895,-0.841141,2.260208,616.000000,11.035110,8.027893,-29.549713,616.000000
6170.000000,-0.172363,-1.028320,0.027344,617.000000,-1.071930,-1.146317,2.321243,617.000000,10.435120,10.277893,-27.449707,617.000000
6180.000000,-0.166992,-1.033691,0.029297,618.000000,-1.010895,-1.268387,2.016068,618.000000,9.985123,9.377884,-29.849716,618.000000
6190.000000,-0.172363,-1.043945,0.041992,619.000000,-1.682281,-3.404617,1.527786,619.000000,10.435120,9.977890,-29.999710,619.000000
6200.000000,-0.174316,-1.022461,0.042480,620.000000,-1.499176,-3.648758,1.100540,620.000000,10.435120,9.377884,-30.899719,620.000000
6210.000000,-0.182129,-1.028808,0.023926,621.000000,-1.499176,-4.503250,1.527786,621.000000,10.135117,9.377884,-30.899719,621.000000
6220.000000,-0.201172,-1.038086,0.050293,622.000000,-1.194000,-5.296707,2.138138,622.000000,10.435120,9.827896,-29.849716,622.000000
6230.000000,-0.201172,-1.046386,0.044434,623.000000,0.328064,-4.808426,2.443314,623.000000,10.435120,9.377884,-28.649719,623.000000
6240.000000,-0.189453,-1.046386,0.044434,624.000000,0.511169,-4.076004,1.771927,624.000000,11.335114,9.377884,-28.649719,624.000000
6250.000000,-0.180176,-1.059082,0.064453,625.000000,2.647400,-3.465652,2.504349,625.000000,10.135117,8.777893,-29.249710,625.000000
6260.000000,-0.164551,-1.048340,0.055664,626.000000,3.074646,-2.183914,1.588821,626.000000,11.185120,8.327896,-29.099716,626.000000
6270.000000,-0.166992,-1.056152,0.057129,627.000000,3.746033,-0.719070,1.039505,627.000000,11.185120,9.827896,-28.649719,627.000000
6280.000000,-0.177734,-1.057617,0.042480,628.000000,3.135681,1.596451,0.978470,628.000000,11.035110,9.827896,-28.649719,628.000000
6290.000000,-0.177734,-1.026855,0.039551,629.000000,2.281189,2.206802,0.795364,629.000000,10.435120,8.477890,-31.049713,629.000000
6300.000000,-0.188965,-1.035644,0.022949,630.000000,1.548767,2.206802,0.734329,630.000000,10.435120,9.827896,-30.149719,630.000000
6310.000000,-0.180176,-1.041015,0.027832,631.000000,0.267029,1.840591,1.222610,631.000000,9.835114,9.827896,-30.149719,631.000000
6320.000000,-0.195312,-1.028808,0.019531,632.000000,-0.461578,1.413345,0.490189,632.000000,9.985123,9.827896,-30.149719,632.000000
6330.000000,-0.186035,-1.027344,0.006348,633.000000,-0.156403,1.291275,0.673294,633.000000,9.985123,9.227890,-29.999710,633.000000
6340.000000,-0.178711,-1.038086,0.013672,634.000000,0.450134,0.436783,0.734329,634.000000,10.285110,9.227890,-29.999710,634.000000
6350.000000,-0.187012,-1.049804,0.029297,635.000000,1.060486,-0.291824,1.283646,635.000000,8.935120,9.227890,-28.949707,635.000000
6360.000000,-0.172363,-1.057617,0.028809,636.000000,0.755310,-1.085281,0.673294,636.000000,8.935120,9.527893,-28.499710,636.000000
6370.000000,-0.169434,-1.052734,0.009766,637.000000,0.816345,-2.305984,0.795364,637.000000,11.335114,9.527893,-28.499710,637.000000
6380.000000,-0.155762,-1.056640,0.020020,638.000000,-0.400543,-2.611160,0.368118,638.000000,10.735123,9.527893,-29.549713,638.000000
6390.000000,-0.141113,-1.035156,0.020020,639.000000,-1.438141,-2.611160,-0.055313,639.000000,10.735123,8.027893,-29.999710,639.000000
6400.000000,-0.145508,-1.026367,0.003906,640.000000,-2.414703,-1.939774,-0.665665,640.000000,10.885117,8.027893,-29.999710,640.000000
6410.000000,-0.153809,-1.025390,-0.016602,641.000000,-4.001617,-1.634598,-1.276016,641.000000,11.035110,8.327896,-28.349716,641.000000
6420.000000,-0.161621,-1.029785,-0.018555,642.000000,-4.673004,-1.390457,-1.520157,642.000000,11.335114,9.227890,-29.999710,642.000000
6430.000000,-0.174316,-1.020996,-0.011719,643.000000,-6.137848,-1.878738,-1.520157,643.000000,11.335114,9.977890,-29.549713,643.000000
6440.000000,-0.185059,-1.015625,-0.014160,644.000000,-5.649567,-2.183914,-2.130508,644.000000,10.285110,9.977890,-29.549713,644.000000
6450.000000,-0.172363,-1.018066,0.000977,645.000000,-5.466461,-2.122879,-1.153946,645.000000,9.985123,9.977890,-30.599716,645.000000
6460.000000,-0.173340,-1.035156,-0.000977,646.000000,-5.710602,-2.550125,-1.520157,646.000000,9.985123,8.027893,-29.999710,646.000000
6470.000000,-0.166992,-1.033203,-0.019531,647.000000,-5.771637,-4.259109,-1.520157,647.000000,10.885117,8.027893,-29.999710,647.000000
6480.000000,-0.167969,-1.032226,-0.007324,648.000000,-6.931305,-5.723953,-1.031876,648.000000,9.685120,9.377884,-28.649719,648.000000
6490.000000,-0.164551,-1.006836,-0.012207,649.000000,-6.809235,-6.212234,-1.031876,649.000000,9.985123,8.777893,-29.549713,649.000000
6500.000000,-0.165039,-0.986328,-0.009277,650.000000,-6.809235,-6.334305,-1.642227,650.000000,9.985123,9.527893,-29.999710,650.000000
6510.000000,-0.152832,-0.986328,-0.009766,651.000000,-6.931305,-3.953934,-1.337051,651.000000,9.985123,9.227890,-28.499710,651.000000
6520.000000,-0.154785,-0.983886,-0.001953,652.000000,-5.893707,-3.099442,-1.153946,652.000000,9.685120,9.227890,-28.499710,652.000000
6530.000000,-0.170898,-0.993652,0.002930,653.000000,-4.673004,-1.573563,-1.642227,653.000000,10.435120,9.227890,-28.949707,653.000000
6540.000000,-0.175781,-0.989258,0.013184,654.000000,-3.574371,-1.390457,-0.909805,654.000000,10.435120,10.127884,-29.849716,654.000000
6550.000000,-0.190918,-1.007812,0.016113,655.000000,-3.757477,-0.658035,0.123978,655.000000,10.135117,10.127884,-29.849716,655.000000
6560.000000,-0.172852,-1.005371,0.008301,656.000000,-2.658844,-0.474930,1.039505,656.000000,9.685120,9.377884,-31.199707,656.000000
6570.000000,-0.171875,-1.003906,0.012207,657.000000,-2.902985,-0.841141,1.161575,657.000000,10.885117,9.527893,-30.299713,657.000000
6580.000000,-0.159180,-0.999023,0.003906,658.000000,-2.475739,-2.061844,0.795364,658.000000,10.885117,9.827896,-30.149719,658.000000
6590.000000,-0.150879,-0.993652,-0.007324,659.000000,-2.964020,-1.451492,1.588821,659.000000,9.235123,9.827896,-30.149719,659.000000
6600.000000,-0.139648,-0.995117,-0.008789,660.000000,-2.170563,-1.146317,0.917435,660.000000,11.335114,11.477890,-28.499710,660.000000
6610.000000,-0.149414,-1.000000,-0.001465,661.000000,-2.780914,-0.841141,1.466751,661.000000,11.335114,9.977890,-29.999710,661.000000
6620.000000,-0.161133,-1.004883,-0.014648,662.000000,-3.391266,-1.146317,1.283646,662.000000,10.435120,9.977890,-29.999710,662.000000
6630.000000,-0.168457,-0.995605,-0.025879,663.000000,-4.611969,-1.329422,1.588821,663.000000,10.135117,8.627884,-29.849716,663.000000
6640.000000,-0.163086,-0.992676,-0.066895,664.000000,-6.504059,-1.207352,0.978470,664.000000,10.135117,8.327896,-29.849716,664.000000
6650.000000,-0.145996,-0.997070,-0.081543,665.000000,-9.433746,-1.146317,0.612259,665.000000,9.385117,8.327896,-29.849716,665.000000
6660.000000,-0.143555,-0.989258,-0.091309,666.000000,-11.081696,-1.756668,0.429153,666.000000,10.285110,9.377884,-29.849716,666.000000
6670.000000,-0.131836,-0.994629,-0.082031,667.000000,-11.692047,-1.451492,-0.726700,667.000000,10.285110,9.527893,-29.999710,667.000000
6680.000000,-0.144043,-0.987793,-0.084473,668.000000,-12.302399,-1.085281,-0.360489,668.000000,10.735123,9.527893,-29.999710,668.000000
6690.000000,-0.151367,-1.000488,-0.080078,669.000000,-12.668610,0.741959,-0.299454,669.000000,10.735123,8.477890,-29.249710,669.000000
6700.000000,-0.158691,-0.993652,-0.079590,670.000000,-14.011383,2.145767,0.123978,670.000000,10.735123,11.477890,-29.249710,670.000000
6710.000000,-0.161621,-0.973144,-0.076172,671.000000,-14.438629,4.159927,-0.116348,671.000000,10.285110,11.477890,-29.249710,671.000000
6720.000000,-0.164551,-0.987793,-0.077637,672.000000,-14.682770,5.380630,0.307083,672.000000,9.385117,9.527893,-29.549713,672.000000
6730.000000,-0.177246,-1.000976,-0.081055,673.000000,-14.560699,5.807877,-0.482559,673.000000,9.235123,8.627884,-30.149719,673.000000
6740.000000,-0.164062,-0.998535,-0.076172,674.000000,-15.232086,5.014420,-0.116348,674.000000,9.235123,11.477890,-29.249710,674.000000
6750.000000,-0.172363,-1.017578,-0.080078,675.000000,-16.635895,4.831314,-0.787735,675.000000,11.185120,11.477890,-29.249710,675.000000
6760.000000,-0.167480,-1.022949,-0.071289,676.000000,-17.063141,4.770279,-1.092911,676.000000,10.885117,11.327896,-29.099716,676.000000
6770.000000,-0.170410,-1.029297,-0.055664,677.000000,-15.415192,5.563736,-0.116348,677.000000,10.885117,11.327896,-29.399719,677.000000
6780.000000,-0.170898,-1.045898,-0.058105,678.000000,-13.462067,5.685806,0.490189,678.000000,9.685120,11.327896,-29.399719,678.000000
6790.000000,-0.165039,-1.035156,-0.025879,679.000000,-11.692047,6.845474,0.612259,679.000000,9.685120,11.777893,-28.949707,679.000000
6800.000000,-0.164551,-1.039551,-0.022461,680.000000,-10.837555,6.601334,-0.116348,680.000000,10.435120,11.777893,-28.949707,680.000000
6810.000000,-0.155762,-1.046386,-0.016602,681.000000,-10.349274,7.211685,-0.116348,681.000000,10.285110,10.877884,-29.399719,681.000000
6820.000000,-0.139648,-1.035156,-0.014160,682.000000,-10.105133,8.066177,-0.543594,682.000000,10.285110,11.027893,-29.249710,682.000000
6830.000000,-0.154785,-1.030273,-0.009766,683.000000,-9.677887,10.080338,-0.177383,683.000000,10.135117,11.027893,-29.249710,683.000000
6840.000000,-0.140137,-1.022461,-0.012207,684.000000,-7.785797,11.911392,-1.092911,684.000000,10.285110,10.877884,-28.349716,684.000000
6850.000000,-0.145508,-1.034668,0.004395,685.000000,-6.015778,13.864517,-1.092911,685.000000,10.285110,9.227890,-28.499710,685.000000
6860.000000,-0.149902,-1.038574,0.004395,686.000000,-5.161285,13.986588,-1.276016,686.000000,10.435120,9.227890,-28.499710,686.000000
6870.000000,-0.166992,-1.033691,0.008789,687.000000,-5.283356,13.071060,-1.337051,687.000000,10.435120,10.577896,-28.649719,687.000000
6880.000000,-0.166016,-1.027832,-0.015137,688.000000,-5.344391,11.911392,-1.214981,688.000000,11.335114,12.377884,-29.099716,688.000000
6890.000000,-0.169922,-1.025390,-0.016602,689.000000,-5.771637,12.277603,-1.214981,689.000000,11.335114,9.977890,-28.949707,689.000000
6900.000000,-0.175781,-1.037109,-0.023926,690.000000,-3.696442,12.094498,-0.299454,690.000000,10.435120,9.977890,-28.949707,690.000000
6910.000000,-0.170898,-1.040527,-0.023438,691.000000,-2.414703,11.117935,-0.543594,691.000000,11.635117,10.877884,-29.399719,691.000000
6920.000000,-0.171875,-1.050781,-0.025391,692.000000,-1.560211,10.019302,-0.421524,692.000000,11.635117,12.077896,-29.399719,692.000000
6930.000000,-0.169434,-1.038574,-0.051270,693.000000,-1.987457,10.324478,-0.177383,693.000000,11.635117,12.077896,-29.399719,693.000000
6940.000000,-0.171387,-1.039551,-0.066895,694.000000,-2.780914,10.934830,0.856400,694.000000,11.935120,11.627884,-29.849716,694.000000
6950.000000,-0.153320,-1.029785,-0.064453,695.000000,-2.353668,10.995865,0.246048,695.000000,11.935120,11.627884,-28.649719,695.000000
6960.000000,-0.167969,-1.036133,-0.079590,696.000000,-2.048492,11.117935,0.368118,696.000000,11.335114,11.627884,-28.649719,696.000000
6970.000000,-0.164062,-1.032226,-0.074219,697.000000,-2.170563,10.690689,0.429153,697.000000,11.185120,10.277893,-28.949707,697.000000
6980.000000,-0.173828,-1.032715,-0.065430,698.000000,-2.414703,9.775162,-0.299454,698.000000,11.185120,12.377884,-28.349716,698.000000
6990.000000,-0.167480,-1.042969,-0.063477,699.000000,-3.269196,9.103775,-0.665665,699.000000,11.335114,12.377884,-28.349716,699.000000
7000.000000,-0.156250,-1.051269,-0.075195,700.000000,-3.574371,7.516861,-1.520157,700.000000,11.335114,11.027893,-28.499710,700.000000
7010.000000,-0.160645,-1.050781,-0.069336,701.000000,-3.208160,5.990982,-1.214981,701.000000,11.335114,11.477890,-28.199707,701.000000
7020.000000,-0.157715,-1.062011,-0.063965,702.000000,-2.109528,5.380630,-1.276016,702.000000,9.835114,11.477890,-28.199707,702.000000
7030.000000,-0.162109,-1.058594,-0.070801,703.000000,-1.316071,5.746841,-0.787735,703.000000,10.433167,12.827896,-29.399719,703.000000
7040.000000,-0.174316,-1.060058,-0.057617,704.000000,-0.827789,4.648209,-0.177383,704.000000,11.033157,12.377884,-28.347763,704.000000
7050.000000,-0.186035,-1.083008,-0.081055,705.000000,0.022888,4.770279,0.185013,705.000000,11.033157,10.727890,-28.197754,705.000000
7060.000000,-0.180664,-1.057129,-0.080078,706.000000,0.511169,4.831314,0.612259,706.000000,11.933167,10.727890,-28.197754,706.000000
7070.000000,-0.175781,-1.070801,-0.062500,707.000000,0.755310,3.976822,-0.177383,707.000000,12.233170,10.877884,-28.047760,707.000000
7080.000000,-0.161621,-1.083984,-0.050293,708.000000,0.450134,4.159927,0.062943,708.000000,12.833160,12.077896,-26.997757,708.000000
7090.000000,-0.166016,-1.079590,-0.058105,709.000000,0.694275,5.868912,-0.909805,709.000000,10.433167,11.027893,-28.947754,709.000000
7100.000000,-0.160645,-1.065429,-0.050293,710.000000,1.487732,5.807877,-0.787735,710.000000,10.433167,10.577896,-27.597763,710.000000
7110.000000,-0.167969,-1.073242,-0.047852,711.000000,1.853943,4.281998,-0.482559,711.000000,12.533157,10.577896,-27.597763,711.000000
7120.000000,-0.187012,-1.063476,-0.060059,712.000000,1.304626,3.549576,0.123978,712.000000,11.783157,11.027893,-27.897766,712.000000
7130.000000,-0.200195,-1.045410,-0.058105,713.000000,1.060486,1.169205,0.246048,713.000000,11.783157,11.477890,-27.447754,713.000000
7140.000000,-0.211426,-1.027344,-0.080566,714.000000,1.853943,0.131607,0.734329,714.000000,12.983170,11.477890,-27.447754,714.000000
7150.000000,-0.200684,-1.043945,-0.062500,715.000000,2.159119,-1.329422,1.283646,715.000000,10.733170,9.077896,-27.297760,715.000000
7160.000000,-0.201172,-1.050781,-0.047363,716.000000,2.464294,-1.878738,1.649857,716.000000,10.733170,12.227890,-28.947754,716.000000
7170.000000,-0.188477,-1.054687,-0.051758,717.000000,2.830505,-1.512527,1.649857,717.000000,11.333160,12.227890,-28.947754,717.000000
7180.000000,-0.190918,-1.080566,-0.063477,718.000000,2.403259,-0.780106,2.565384,718.000000,10.733170,10.277893,-28.197754,718.000000
7190.000000,-0.191406,-1.087890,-0.052734,719.000000,2.708435,-0.597000,3.602982,719.000000,11.183167,11.027893,-27.897766,719.000000
7200.000000,-0.188965,-1.074707,-0.053711,720.000000,3.868103,-1.085281,3.847122,720.000000,11.183167,11.627884,-29.097763,720.000000
7210.000000,-0.177734,-1.067871,-0.048828,721.000000,4.356384,-1.085281,4.518509,721.000000,11.933167,11.627884,-29.097763,721.000000
7220.000000,-0.150391,-1.047363,-0.023438,722.000000,5.210876,-0.535965,3.358841,722.000000,12.233170,11.627884,-26.997757,722.000000
7230.000000,-0.104492,-1.026367,0.008301,723.000000,5.027771,2.145767,0.795364,723.000000,12.233170,12.377884,-28.347763,723.000000
7240.000000,-0.047852,-1.020019,0.012695,724.000000,2.708435,8.676529,-2.862930,724.000000,12.533157,12.377884,-28.347763,724.000000
7250.000000,-0.025391,-1.017090,0.005859,725.000000,-1.865387,15.024185,-6.280899,725.000000,12.533157,11.027893,-27.897766,725.000000
7260.000000,-0.020020,-0.997070,-0.014648,726.000000,-6.198883,20.517349,-8.111954,726.000000,12.533157,11.777893,-27.447754,726.000000
7270.000000,-0.069824,-0.999023,-0.085937,727.000000,-7.907867,25.094986,-10.187149,727.000000,12.083160,11.777893,-27.447754,727.000000
7280.000000,-0.139648,-1.006836,-0.145508,728.000000,-9.006500,27.414322,-9.515762,728.000000,10.433167,11.777893,-27.447754,728.000000
7290.000000,-0.223633,-1.021972,-0.159668,729.000000,-9.433746,28.390884,-9.271622,729.000000,10.433167,12.827896,-28.347763,729.000000
7300.000000,-0.263184,-1.020996,-0.167969,730.000000,-10.410309,24.911880,-7.867813,730.000000,13.133163,12.827896,-28.347763,730.000000
7310.000000,-0.271484,-1.020508,-0.133789,731.000000,-12.790680,18.198013,-6.219864,731.000000,12.683167,11.027893,-27.897766,731.000000
7320.000000,-0.235352,-1.012695,-0.115234,732.000000,-16.757965,8.676529,-5.304337,732.000000,12.683167,11.627884,-28.047760,732.000000
7330.000000,-0.177246,-1.008789,-0.114746,733.000000,-23.105621,0.131607,-4.632950,733.000000,11.333160,11.627884,-28.047760,733.000000
7340.000000,-0.157715,-0.986816,-0.103516,734.000000,-31.284332,-5.723953,-4.083633,734.000000,13.133163,9.977890,-26.847763,734.000000
7350.000000,-0.156738,-0.944336,-0.159668,735.000000,-34.519196,-2.977371,-4.388809,735.000000,13.133163,11.777893,-27.447754,735.000000
7360.000000,-0.124512,-0.902832,-0.199707,736.000000,-32.505035,0.802994,-3.961563,736.000000,13.133163,10.277893,-27.447754,736.000000
7370.000000,-0.117676,-0.918457,-0.197754,737.000000,-29.575348,6.174088,-3.961563,737.000000,10.733170,10.277893,-27.447754,737.000000
7380.000000,-0.125488,-0.916015,-0.149414,738.000000,-27.378082,10.202408,-5.853653,738.000000,11.783157,11.777893,-26.397766,738.000000
7390.000000,-0.117676,-0.984375,-0.101074,739.000000,-28.476715,10.446548,-9.271622,739.000000,11.933167,12.977890,-27.147766,739.000000
7400.000000,-0.118164,-0.992676,-0.088379,740.000000,-28.171539,11.423111,-9.881973,740.000000,14.033157,12.377884,-28.047760,740.000000
7410.000000,-0.122070,-1.001953,-0.088379,741.000000,-28.415680,11.545181,-9.943008,741.000000,14.040970,12.827896,-25.497757,741.000000
7420.000000,-0.132324,-1.032715,-0.084961,742.000000,-30.673981,9.958267,-8.234024,742.000000,12.690979,12.827896,-25.500687,742.000000
7430.000000,-0.124512,-0.995117,-0.099121,743.000000,-31.467438,7.211685,-7.318497,743.000000,11.940979,13.127884,-25.950684,743.000000
7440.000000,-0.130859,-0.992187,-0.146484,744.000000,-32.138824,6.357193,-7.135391,744.000000,11.940979,12.077896,-24.900696,744.000000
7450.000000,-0.137207,-0.979004,-0.182617,745.000000,-32.627106,5.807877,-6.769180,745.000000,11.340973,12.077896,-24.900696,745.000000
7460.000000,-0.149902,-0.976074,-0.186523,746.000000,-32.077789,5.136490,-6.647110,746.000000,12.240982,14.477890,-26.100693,746.000000
7470.000000,-0.123535,-0.965820,-0.162598,747.000000,-32.321930,3.061295,-6.464005,747.000000,12.240982,13.877884,-25.500687,747.000000
7480.000000,-0.129395,-0.964355,-0.160645,748.000000,-31.406403,-0.780106,-7.318497,748.000000,11.940979,13.877884,-25.500687,748.000000
7490.000000,-0.110352,-0.968261,-0.177246,749.000000,-31.406403,-3.587723,-7.562637,749.000000,11.640976,14.177887,-25.950684,749.000000
7500.000000,-0.123047,-0.979492,-0.204102,750.000000,-31.223297,-0.780106,-7.806778,750.000000,12.540970,14.627884,-24.450684,750.000000
7510.000000,-0.120117,-0.996582,-0.225586,751.000000,-30.979156,1.840591,-7.196426,751.000000,12.540970,14.477890,-25.050690,751.000000
7520.000000,-0.134766,-1.002441,-0.218262,752.000000,-29.941559,4.465103,-7.257462,752.000000,11.640976,14.477890,-25.050690,752.000000
7530.000000,-0.102051,-1.012207,-0.206543,753.000000,-31.162262,3.122330,-7.684708,753.000000,12.690979,13.877884,-24.450684,753.000000
7540.000000,-0.083496,-1.009277,-0.196289,754.000000,-31.589508,3.061295,-7.440567,754.000000,12.690979,16.427887,-25.950684,754.000000
7550.000000,-0.083984,-0.994140,-0.194824,755.000000,-32.505035,4.159927,-8.356094,755.000000,12.840973,16.427887,-25.950684,755.000000
7560.000000,-0.095703,-0.998535,-0.197266,756.000000,-32.810211,5.624771,-9.637833,756.000000,12.690979,16.277893,-24.300690,756.000000
7570.000000,-0.099609,-1.002441,-0.223144,757.000000,-31.955719,7.333755,-10.492325,757.000000,12.690979,15.677887,-24.450684,757.000000
7580.000000,-0.106934,-1.003906,-0.203613,758.000000,-31.040192,6.906509,-10.370255,758.000000,12.540970,15.677887,-24.450684,758.000000
7590.000000,-0.109375,-1.013672,-0.178711,759.000000,-28.720856,6.235123,-10.065079,759.000000,13.140976,14.777893,-24.600693,759.000000
7600.000000,-0.125488,-1.018066,-0.185547,760.000000,-27.866364,5.014420,-9.637833,760.000000,13.141953,17.477890,-24.600693,760.000000
7610.000000,-0.129395,-1.041992,-0.184082,761.000000,-26.096344,0.192642,-8.478165,761.000000,12.841949,17.478378,-24.600693,761.000000
7620.000000,-0.108887,-1.036621,-0.208984,762.000000,-26.584625,-4.442215,-8.539200,762.000000,12.241959,17.028381,-24.300690,762.000000
7630.000000,-0.098633,-1.040039,-0.214355,763.000000,-25.852203,-5.052567,-9.027481,763.000000,12.241959,16.428375,-24.900696,763.000000
7640.000000,-0.088379,-1.047363,-0.216797,764.000000,-27.744293,-5.784988,-9.820938,764.000000,12.091949,16.428375,-24.900696,764.000000
7650.000000,-0.070312,-1.050781,-0.241699,765.000000,-27.866364,-6.273270,-10.187149,765.000000,10.891953,16.728378,-23.250687,765.000000
7660.000000,-0.086426,-1.036133,-0.262695,766.000000,-28.964996,-5.540848,-11.102676,766.000000,12.991959,16.128372,-22.350693,766.000000
7670.000000,-0.096191,-1.041992,-0.245117,767.000000,-30.307770,-5.601883,-10.492325,767.000000,12.991959,16.128372,-22.050690,767.000000
7680.000000,-0.118164,-1.014160,-0.251465,768.000000,-31.650543,-4.747391,-10.370255,768.000000,11.041946,16.128372,-22.050690,768.000000
7690.000000,-0.126953,-1.006347,-0.275391,769.000000,-31.528473,-4.259109,-9.088516,769.000000,11.041946,17.778381,-23.550690,769.000000
7700.000000,-0.128906,-1.023926,-0.310547,770.000000,-31.955719,-6.090164,-8.539200,770.000000,12.241959,17.778381,-23.550690,770.000000
7710.000000,-0.098633,-1.024414,-0.299805,771.000000,-35.556793,-8.165359,-8.844376,771.000000,12.091949,19.128372,-23.400696,771.000000
7720.000000,-0.070312,-1.023437,-0.309570,772.000000,-39.096832,-9.508133,-9.210587,772.000000,12.091949,17.778381,-22.500687,772.000000
7730.000000,-0.087891,-1.032715,-0.336426,773.000000,-42.148590,-6.578445,-9.271622,773.000000,11.641953,17.778381,-22.500687,773.000000
7740.000000,-0.106445,-1.022949,-0.415039,774.000000,-44.712067,-2.733231,-8.478165,774.000000,12.541946,17.628372,-23.400696,774.000000
7750.000000,-0.117187,-1.024902,-0.424805,775.000000,-46.604156,-0.597000,-7.684708,775.000000,12.541946,19.728378,-22.200684,775.000000
7760.000000,-0.087402,-1.015625,-0.421875,776.000000,-47.092438,0.375748,-7.074356,776.000000,11.041946,19.728378,-22.200684,776.000000
7770.000000,-0.071289,-1.020996,-0.408691,777.000000,-47.275543,0.802994,-8.356094,777.000000,11.041946,18.978378,-22.200684,777.000000
7780.000000,-0.046387,-1.059082,-0.386230,778.000000,-47.275543,0.741959,-9.698868,778.000000,11.041946,19.728378,-21.150696,778.000000
7790.000000,-0.047852,-1.089844,-0.388672,779.000000,-47.336578,2.328873,-9.576797,779.000000,10.441956,19.728378,-21.150696,779.000000
7800.000000,-0.059570,-1.121094,-0.393555,780.000000,-47.763824,4.587173,-9.210587,780.000000,11.791946,19.878372,-21.000687,780.000000
7810.000000,-0.062012,-1.136230,-0.410156,781.000000,-47.214508,5.075455,-9.393692,781.000000,11.791946,18.978378,-21.450684,781.000000
7820.000000,-0.066895,-1.140625,-0.409180,782.000000,-47.763824,5.746841,-9.149551,782.000000,11.791946,20.778381,-21.150696,782.000000
7830.000000,-0.079102,-1.155761,-0.394531,783.000000,-47.580719,7.699966,-9.332657,783.000000,10.891953,20.778381,-21.150696,783.000000
7840.000000,-0.093262,-1.130859,-0.420410,784.000000,-47.092438,5.441666,-7.867813,784.000000,10.741959,19.878372,-21.000687,784.000000
7850.000000,-0.082031,-1.119140,-0.389160,785.000000,-46.482086,1.047134,-7.562637,785.000000,10.741959,20.028381,-21.150696,785.000000
7860.000000,-0.081055,-1.101074,-0.398437,786.000000,-46.176910,-1.268387,-7.501602,786.000000,11.641953,20.028381,-21.150696,786.000000
7870.000000,-0.065918,-1.092285,-0.416504,787.000000,-45.627594,-3.038406,-8.539200,787.000000,10.901718,20.178375,-20.550690,787.000000
7880.000000,-0.060059,-1.076660,-0.426269,788.000000,-46.298981,-5.113602,-10.126114,788.000000,10.901718,20.932770,-20.553619,788.000000
7890.000000,-0.030762,-1.043945,-0.425293,789.000000,-46.421051,-2.061844,-11.346817,789.000000,11.651718,20.932770,-20.553619,789.000000
7900.000000,-0.007812,-1.032715,-0.424805,790.000000,-47.458649,-0.780106,-13.849258,790.000000,13.001724,23.632767,-19.953613,790.000000
7910.000000,-0.001465,-1.016601,-0.436035,791.000000,-47.702789,-0.230789,-15.497208,791.000000,13.001724,21.682770,-20.253616,791.000000
7920.000000,-0.037598,-0.998535,-0.444336,792.000000,-46.726227,-0.291824,-16.351700,792.000000,11.951721,21.682770,-20.253616,792.000000
7930.000000,-0.075195,-0.986816,-0.431641,793.000000,-46.115875,-1.451492,-17.633438,793.000000,11.651718,21.382767,-19.503616,793.000000
7940.000000,-0.083008,-0.973633,-0.443359,794.000000,-46.604156,-4.381180,-17.938614,794.000000,11.651718,21.682770,-18.753616,794.000000
7950.000000,-0.076660,-0.981933,-0.449219,795.000000,-45.993805,-6.883621,-19.342422,795.000000,11.651718,21.682770,-18.753616,795.000000
7960.000000,-0.071289,-0.964844,-0.465820,796.000000,-45.749664,-10.606766,-20.318985,796.000000,10.301712,23.182770,-19.953613,796.000000
7970.000000,-0.076660,-0.970215,-0.466308,797.000000,-46.482086,-15.550613,-20.502090,797.000000,9.701721,22.582779,-18.303619,797.000000
7980.000000,-0.064453,-0.951172,-0.442383,798.000000,-47.458649,-18.175125,-21.051407,798.000000,9.701721,23.782776,-18.303619,798.000000
7990.000000,-0.017090,-0.947265,-0.458984,799.000000,-48.252106,-22.996902,-22.760391,799.000000,11.351715,23.782776,-18.303619,799.000000
8000.000000,-0.060059,-0.925781,-0.478516,800.000000,-48.007965,-21.287918,-23.004532,800.000000,10.901718,23.332779,-18.603622,800.000000
8010.000000,-0.091797,-0.924804,-0.472656,801.000000,-48.496246,-17.930984,-23.309708,801.000000,10.901718,23.182770,-18.453613,801.000000
8020.000000,-0.084961,-0.918457,-0.478516,802.000000,-47.946930,-17.869949,-21.844864,802.000000,10.451721,23.182770,-18.453613,802.000000
8030.000000,-0.097656,-0.929199,-0.490234,803.000000,-48.435211,-16.466141,-20.685196,803.000000,9.857574,24.382767,-17.403625,803.000000
8040.000000,-0.089844,-0.917969,-0.490723,804.000000,-50.205231,-13.048172,-19.769669,804.000000,9.857574,24.687164,-17.704590,804.000000
8050.000000,-0.074219,-0.912109,-0.519043,805.000000,-50.083160,-12.071609,-19.098282,805.000000,10.157578,24.687164,-17.704590,805.000000
8060.000000,-0.064453,-0.905273,-0.514160,806.000000,-50.510406,-9.508133,-18.671036,806.000000,8.507584,23.937164,-17.404602,806.000000
8070.000000,-0.042969,-0.920898,-0.479980,807.000000,-52.524567,-7.738113,-17.999649,807.000000,8.507584,24.537170,-16.204590,807.000000
8080.000000,-0.041992,-0.913086,-0.528320,808.000000,-53.379059,-3.282547,-17.206192,808.000000,9.407578,24.537170,-16.204590,808.000000
8090.000000,-0.007812,-0.882324,-0.533203,809.000000,-54.233551,0.253677,-15.985489,809.000000,8.357574,25.437164,-17.704590,809.000000
8100.000000,-0.017578,-0.893066,-0.538086,810.000000,-53.867340,3.183365,-17.328262,810.000000,8.357574,25.137161,-14.854599,810.000000
8110.000000,-0.049805,-0.881347,-0.563965,811.000000,-55.271149,4.953384,-17.633438,811.000000,9.407578,25.137161,-14.854599,811.000000
8120.000000,-0.066895,-0.851562,-0.573242,812.000000,-55.332184,5.624771,-17.755508,812.000000,8.807571,25.437164,-15.604599,812.000000
8130.000000,-0.060059,-0.850586,-0.562500,813.000000,-60.153961,0.680923,-18.854141,813.000000,8.207581,26.187164,-15.304596,813.000000
8140.000000,-0.077637,-0.835449,-0.564941,814.000000,-64.487457,-11.583328,-19.464493,814.000000,8.207581,27.537170,-15.154602,814.000000
8150.000000,-0.051758,-0.824219,-0.604980,815.000000,-69.248199,-15.794754,-19.159317,815.000000,8.507584,25.287170,-15.154602,815.000000
8160.000000,-0.052734,-0.808594,-0.557129,816.000000,-71.567535,-20.311356,-19.586563,816.000000,8.507584,27.537170,-13.654602,816.000000
8170.000000,-0.032227,-0.795410,-0.613769,817.000000,-71.811676,-21.471024,-20.685196,817.000000,10.007584,27.537170,-13.654602,817.000000
8180.000000,0.007812,-0.797851,-0.619629,818.000000,-71.811676,-20.189285,-20.196915,818.000000,8.060989,27.537170,-13.354599,818.000000
8190.000000,0.038086,-0.789551,-0.664062,819.000000,-74.131012,-15.977859,-20.380020,819.000000,8.060989,27.241074,-13.204590,819.000000
8200.000000,0.031250,-0.791015,-0.627441,820.000000,-76.389313,-10.972977,-21.600723,820.000000,6.261002,27.241074,-13.204590,820.000000
8210.000000,0.038086,-0.805664,-0.644043,821.000000,-75.595856,-7.799149,-23.370743,821.000000,6.710999,27.691071,-13.204590,821.000000
8220.000000,-0.018555,-0.804199,-0.660644,822.000000,-76.023102,-4.259109,-23.065567,822.000000,6.710999,29.791077,-11.554596,822.000000
8230.000000,-0.022461,-0.806640,-0.695801,823.000000,-77.610016,-4.137039,-22.211075,823.000000,6.560989,29.791077,-11.554596,823.000000
8240.000000,-0.043945,-0.791015,-0.668457,824.000000,-77.976227,-8.043289,-22.211075,824.000000,7.460999,28.441071,-9.904602,824.000000
8250.000000,-0.053711,-0.773437,-0.656738,825.000000,-77.121735,-8.775711,-21.356583,825.000000,7.460999,27.841080,-10.804596,825.000000
8260.000000,-0.042480,-0.771972,-0.687012,826.000000,-76.145172,-9.752274,-20.502090,826.000000,6.261002,27.841080,-10.804596,826.000000
8270.000000,-0.014160,-0.773926,-0.687988,827.000000,-73.520660,-11.461258,-18.304825,827.000000,7.160995,29.491074,-9.604599,827.000000
8280.000000,-0.035645,-0.760742,-0.696777,828.000000,-74.314117,-13.780594,-18.793106,828.000000,7.167831,28.591080,-7.954590,828.000000
8290.000000,-0.011230,-0.749512,-0.726562,829.000000,-74.131012,-14.207840,-19.220352,829.000000,7.167831,29.051819,-7.951660,829.000000
8300.000000,0.000000,-0.735840,-0.674805,830.000000,-79.013824,-14.146805,-18.976212,830.000000,5.367828,29.051819,-7.951660,830.000000
8310.000000,0.044922,-0.704590,-0.691894,831.000000,-80.417633,-12.010574,-19.525528,831.000000,5.367828,30.551819,-8.401672,831.000000
8320.000000,0.017578,-0.669433,-0.706543,832.000000,-79.074860,-10.972977,-20.135880,832.000000,5.367828,30.851822,-7.651672,832.000000
8330.000000,-0.023438,-0.667480,-0.741699,833.000000,-82.126617,-10.423660,-19.098282,833.000000,5.367828,30.851822,-7.651672,833.000000
8340.000000,-0.002441,-0.685547,-0.699219,834.000000,-82.370758,-6.944656,-20.441055,834.000000,5.517838,30.551819,-6.901672,834.000000
8350.000000,0.018066,-0.632812,-0.713379,835.000000,-80.722809,-6.334305,-20.074844,835.000000,5.517838,30.701813,-6.751663,835.000000
8360.000000,0.020020,-0.643555,-0.771484,836.000000,-77.915192,-8.775711,-20.135880,836.000000,6.567825,30.701813,-6.751663,836.000000
8370.000000,0.022949,-0.666992,-0.733887,837.000000,-76.816559,-10.118484,-20.624161,837.000000,5.667831,30.251816,-4.351669,837.000000
8380.000000,0.031738,-0.646484,-0.750000,838.000000,-75.290680,-7.310867,-20.074844,838.000000,5.667831,31.601822,-5.551666,838.000000
8390.000000,-0.016113,-0.653808,-0.787109,839.000000,-78.952789,-5.540848,-19.281387,839.000000,4.017838,31.601822,-5.551666,839.000000
8400.000000,-0.036621,-0.652344,-0.779785,840.000000,-78.830719,-6.517410,-19.586563,840.000000,5.220764,30.251816,-3.901672,840.000000
8410.000000,0.000000,-0.636230,-0.828613,841.000000,-73.764801,-12.193680,-19.708633,841.000000,5.220764,31.762558,-3.296783,841.000000
8420.000000,0.029785,-0.645019,-0.819336,842.000000,-73.886871,-16.466141,-18.793106,842.000000,4.020767,31.762558,-3.296783,842.000000
8430.000000,0.012695,-0.636719,-0.802734,843.000000,-70.957184,-14.513016,-18.548965,843.000000,3.420761,32.512558,-2.546783,843.000000
8440.000000,0.029297,-0.591308,-0.822754,844.000000,-72.910309,-11.461258,-16.962051,844.000000,3.420761,32.212555,-0.746780,844.000000
8450.000000,0.020996,-0.551269,-0.836914,845.000000,-69.492340,-10.850906,-17.328262,845.000000,4.320755,32.212555,-0.746780,845.000000
8460.000000,0.002441,-0.526855,-0.826172,846.000000,-66.196442,-10.301590,-16.962051,846.000000,4.773697,30.862564,0.453186,846.000000
8470.000000,0.005859,-0.535156,-0.866211,847.000000,-63.938141,-11.217117,-16.717911,847.000000,4.773697,32.221344,0.309052,847.000000
8480.000000,0.016602,-0.540527,-0.859375,848.000000,-62.290192,-12.315750,-17.633438,848.000000,3.123688,32.221344,0.309052,848.000000
8490.000000,0.026367,-0.538086,-0.879883,849.000000,-61.679840,-11.949539,-17.511368,849.000000,2.073685,31.621353,0.159042,849.000000
8500.000000,-0.006348,-0.550781,-0.879883,850.000000,-57.773590,-10.484695,-18.304825,850.000000,2.073685,31.621353,1.209045,850.000000
8510.000000,0.026855,-0.550781,-0.914551,851.000000,-58.506012,-9.996414,-16.962051,851.000000,4.923691,31.621353,1.209045,851.000000
8520.000000,0.018066,-0.567383,-0.923340,852.000000,-58.689117,-8.531570,-16.656876,852.000000,3.873688,31.621353,0.909042,852.000000
8530.000000,0.007812,-0.552734,-0.911621,853.000000,-55.576324,-7.982254,-14.886856,853.000000,3.873688,31.921341,2.559052,853.000000
8540.000000,-0.005371,-0.529297,-0.933594,854.000000,-56.674957,-8.226395,-13.605118,854.000000,2.073685,31.921341,2.559052,854.000000
8550.000000,-0.001953,-0.536133,-0.921386,855.000000,-55.271149,-6.761551,-13.299942,855.000000,3.123688,31.921341,4.059052,855.000000
8560.000000,0.017090,-0.484863,-0.918945,856.000000,-51.792145,-7.677078,-12.018204,856.000000,3.123688,31.321350,3.009048,856.000000
8570.000000,0.010742,-0.478516,-0.936523,857.000000,-49.228668,-6.334305,-11.957169,857.000000,3.723694,31.321350,3.009048,857.000000
8580.000000,0.010254,-0.487793,-0.948730,858.000000,-50.083160,-4.137039,-12.872696,858.000000,3.723694,31.021347,3.159042,858.000000
8590.000000,0.004883,-0.483398,-0.972656,859.000000,-48.130035,-1.756668,-12.262344,859.000000,2.823685,31.771347,4.209045,859.000000
8600.000000,0.005859,-0.469726,-0.961914,860.000000,-49.167633,-2.367020,-10.309219,860.000000,2.823685,32.371353,3.609039,860.000000
8610.000000,0.020508,-0.454101,-0.969726,861.000000,-48.862457,-2.550125,-9.576797,861.000000,2.823685,32.371353,3.609039,861.000000
8620.000000,0.011230,-0.403809,-0.928222,862.000000,-47.580719,-1.329422,-8.722305,862.000000,2.223694,32.671341,5.409042,862.000000
8630.000000,-0.007812,-0.404785,-0.938965,863.000000,-45.139313,-1.146317,-9.271622,863.000000,2.223694,31.020859,4.958557,863.000000
8640.000000,0.013672,-0.404785,-0.957031,864.000000,-42.636871,-0.902176,-9.881973,864.000000,3.723694,31.020859,4.958557,864.000000
8650.000000,0.025391,-0.398437,-0.935547,865.000000,-41.477203,-1.207352,-11.346817,865.000000,2.823685,31.770859,3.908554,865.000000
8660.000000,0.019043,-0.405273,-0.949219,866.000000,-43.003082,-0.413895,-11.407852,866.000000,2.823685,30.870865,6.458557,866.000000
8670.000000,0.021973,-0.412109,-0.959961,867.000000,-42.758942,2.023697,-12.201309,867.000000,2.673691,30.870865,6.458557,867.000000
8680.000000,0.036133,-0.396484,-0.947265,868.000000,-41.355133,2.634048,-10.614395,868.000000,2.973694,31.020859,6.608551,868.000000
8690.000000,-0.016113,-0.375976,-0.939941,869.000000,-40.622711,4.709244,-9.515762,869.000000,2.973694,31.770859,7.058563,869.000000
8700.000000,-0.013672,-0.342285,-0.945801,870.000000,-38.791656,5.563736,-8.844376,870.000000,1.923691,31.770859,7.058563,870.000000
8710.000000,-0.042480,-0.350098,-0.935547,871.000000,-35.495758,5.197525,-7.867813,871.000000,2.073685,29.970856,8.108551,871.000000
8720.000000,-0.039551,-0.323730,-0.937988,872.000000,-35.312653,3.305435,-7.745743,872.000000,2.073685,30.870865,7.958557,872.000000
8730.000000,0.023437,-0.349609,-0.952148,873.000000,-32.444000,4.587173,-7.013321,873.000000,2.223694,30.870865,7.958557,873.000000
8740.000000,0.027344,-0.348144,-0.934570,874.000000,-31.467438,7.699966,-5.121231,874.000000,1.023697,31.770859,7.808563,874.000000
8750.000000,0.015137,-0.321777,-0.913574,875.000000,-29.819489,9.408951,-3.595352,875.000000,1.023697,31.620865,10.358551,875.000000
8760.000000,0.008789,-0.307129,-0.898926,876.000000,-27.500153,9.775162,-3.351212,876.000000,2.673691,31.619888,10.357574,876.000000
8770.000000,0.010254,-0.291504,-0.901855,877.000000,-23.777008,10.080338,-2.435684,877.000000,2.223694,32.219879,7.807587,877.000000
8780.000000,0.004395,-0.296875,-0.879394,878.000000,-21.823883,9.225845,-3.839493,878.000000,2.223694,31.769882,8.407578,878.000000
8790.000000,0.020020,-0.320312,-0.875488,879.000000,-20.664215,7.150650,-4.755020,879.000000,2.223694,31.769882,8.407578,879.000000
8800.000000,0.040527,-0.294434,-0.869140,880.000000,-19.138336,8.249283,-4.205704,880.000000,2.823685,31.019882,9.157578,880.000000
8810.000000,0.041992,-0.281738,-0.883789,881.000000,-18.466949,8.981705,-1.764297,881.000000,2.823685,31.319885,9.307587,881.000000
8820.000000,0.022461,-0.293457,-0.869629,882.000000,-17.002106,10.385513,0.001907,882.000000,1.773697,31.319885,9.307587,882.000000
8830.000000,0.012695,-0.260742,-0.847168,883.000000,-16.208649,10.629654,1.283646,883.000000,0.873688,31.319885,10.057587,883.000000
8840.000000,0.015625,-0.249512,-0.844726,884.000000,-13.339996,8.615494,1.649857,884.000000,0.873688,31.019882,9.457581,884.000000
8850.000000,-0.004883,-0.251465,-0.807617,885.000000,-9.922028,6.601334,0.856400,885.000000,1.023697,31.019882,9.457581,885.000000
8860.000000,0.014160,-0.246094,-0.825683,886.000000,-7.236481,4.037857,0.001907,886.000000,1.623688,32.669876,9.607574,886.000000
8870.000000,0.044434,-0.274902,-0.838867,887.000000,-5.832672,4.343033,0.001907,887.000000,1.623688,29.969879,11.257584,887.000000
8880.000000,0.040527,-0.264160,-0.848633,888.000000,-2.475739,5.014420,1.100540,888.000000,1.773697,29.969879,11.257584,888.000000
8890.000000,0.032715,-0.291992,-0.840332,889.000000,-2.353668,5.197525,1.955032,889.000000,2.223694,30.569885,9.607574,889.000000
8900.000000,0.027832,-0.254394,-0.861328,890.000000,-0.949860,4.953384,3.847122,890.000000,1.773697,31.019882,10.957581,890.000000
8910.000000,-0.024414,-0.243164,-0.878906,891.000000,2.525330,4.709244,5.250931,891.000000,2.073685,31.319885,10.357574,891.000000
8920.000000,-0.014648,-0.246582,-0.873047,892.000000,5.149841,1.413345,6.410599,892.000000,1.623688,33.119888,10.807587,892.000000
8930.000000,-0.061035,-0.251465,-0.870117,893.000000,5.210876,-0.841141,7.631302,893.000000,1.623688,29.969879,11.557587,893.000000
8940.000000,-0.001953,-0.259277,-0.863769,894.000000,4.783630,-1.146317,8.424759,894.000000,2.823685,29.969879,11.557587,894.000000
8950.000000,0.006836,-0.270508,-0.903320,895.000000,6.309509,-2.244949,10.866165,895.000000,3.123688,31.319885,9.607574,895.000000
8960.000000,0.042969,-0.265625,-0.922363,896.000000,6.858826,-2.916336,12.392044,896.000000,3.123688,31.319885,9.607574,896.000000
8970.000000,0.055664,-0.273437,-0.923340,897.000000,9.361267,-3.526688,12.392044,897.000000,1.173691,31.319885,9.607574,897.000000
