t_ms,segment_id,packet_type,source_mode,frame_fid,note,walk_fid,walk_dt_ms,walk_exec_ms,walk_out,walk_state,walk_tilt_forward_deg,walk_pos_rad,walk_vel_rad_s,walk_tq_nm,walk_temp_c,walk_vbus_v,walk_err_code,walk_fb_age_ms,walk_typical_stride_ms,walk_effective_step_count,walk_tilt_accel_deg,walk_acc_x,walk_acc_y,walk_acc_z,walk_gyr_x,walk_gyr_y,walk_gyr_z,cfg_fid,cfg_robot_id,cfg_ble_target,cfg_gait_model,cfg_gait_mode,cfg_side_is_left,cfg_assist_pct
20,1,walk,walk,19663,,19663.0,20.0,2.0,6.0,2.0,-0.25,0.006,0.083,-0.759,37.0,25.93,0.0,18.0,3880.0,13.0,-0.69,0.01,-0.95,-0.32,3.01,0.87,1.15,600.0,,,0.0,1.0,1.0,100.0
60,1,walk,walk,19664,,19664.0,20.0,2.0,6.0,2.0,-0.24,0.006,0.081,-0.746,37.0,25.93,0.0,18.0,3880.0,13.0,-0.68,0.01,-0.96,-0.32,2.16,0.84,1.04,600.0,,,0.0,1.0,1.0,100.0
80,1,walk,walk,19665,,19665.0,20.0,2.0,6.0,2.0,-0.23,0.006,-0.005,-0.711,37.0,25.93,0.0,18.0,3880.0,13.0,-0.68,0.01,-0.96,-0.32,1.25,0.79,0.95,600.0,,,0.0,1.0,1.0,100.0
100,1,walk,walk,19666,,19666.0,20.0,2.0,6.0,2.0,-0.23,0.006,-0.058,-0.662,37.0,25.93,0.0,18.0,3880.0,13.0,-0.69,0.01,-0.96,-0.32,0.34,0.73,0.89,600.0,,,0.0,1.0,1.0,100.0
100,1,walk,walk,19667,,19667.0,20.0,2.0,6.0,2.0,-0.22,0.005,0.04,-0.657,37.0,25.93,0.0,18.0,3880.0,13.0,-0.7,0.01,-0.96,-0.32,-0.55,0.68,0.86,600.0,,,0.0,1.0,1.0,100.0
120,1,walk,walk,19668,,19668.0,20.0,2.0,6.0,2.0,-0.21,0.005,-0.009,-0.662,37.0,25.93,0.0,18.0,3880.0,13.0,-0.7,0.01,-0.96,-0.32,-1.39,0.62,0.85,600.0,,,0.0,1.0,1.0,100.0
140,1,walk,walk,19669,,19669.0,20.0,2.0,6.0,2.0,-0.2,0.004,-0.108,-0.592,37.0,25.93,0.0,18.0,3880.0,13.0,-0.71,0.01,-0.96,-0.32,-2.14,0.56,0.88,600.0,,,0.0,1.0,1.0,100.0
160,1,walk,walk,19670,,19670.0,20.0,2.0,6.0,2.0,-0.19,0.004,0.037,-0.573,37.0,25.93,0.0,18.0,3880.0,13.0,-0.71,0.01,-0.95,-0.32,-2.8,0.51,0.91,600.0,,,0.0,1.0,1.0,100.0
180,1,walk,walk,19671,,19671.0,20.0,2.0,6.0,2.0,-0.18,0.004,-0.061,-0.568,37.0,25.93,0.0,18.0,3880.0,13.0,-0.71,0.01,-0.95,-0.33,-3.33,0.47,0.96,600.0,,,0.0,1.0,1.0,100.0
240,1,walk,walk,19672,,19672.0,20.0,2.0,6.0,2.0,-0.17,0.004,0.009,-0.519,37.0,25.93,0.0,18.0,3880.0,13.0,-0.7,0.01,-0.95,-0.33,-3.75,0.45,1.01,600.0,,,0.0,1.0,1.0,100.0
240,1,walk,walk,19673,,19673.0,20.0,2.0,6.0,2.0,-0.16,0.004,-0.007,-0.494,37.0,25.93,0.0,18.0,3880.0,13.0,-0.69,0.01,-0.95,-0.33,-4.03,0.43,1.05,600.0,,,0.0,1.0,1.0,100.0
240,1,walk,walk,19674,,19674.0,20.0,2.0,6.0,2.0,-0.15,0.004,0.021,-0.515,37.0,25.9,0.0,18.0,3880.0,13.0,-0.68,0.01,-0.95,-0.34,-4.17,0.43,1.08,600.0,,,0.0,1.0,1.0,100.0
280,1,walk,walk,19675,,19675.0,20.0,2.0,6.0,2.0,-0.14,0.004,-0.054,-0.521,37.0,25.93,0.0,18.0,3880.0,13.0,-0.66,0.01,-0.95,-0.34,-4.18,0.44,1.1,600.0,,,0.0,1.0,1.0,100.0
280,1,walk,walk,19676,,19676.0,20.0,2.0,6.0,2.0,-0.13,0.004,0.03,-0.554,37.0,25.93,0.0,18.0,3880.0,13.0,-0.65,0.01,-0.95,-0.34,-4.07,0.46,1.11,600.0,,,0.0,1.0,1.0,100.0
300,1,walk,walk,19677,,19677.0,20.0,2.0,6.0,2.0,-0.12,0.004,0.042,-0.512,37.0,25.93,0.0,18.0,3880.0,13.0,-0.63,0.01,-0.95,-0.35,-3.84,0.49,1.11,600.0,,,0.0,1.0,1.0,100.0
320,1,walk,walk,19678,,19678.0,20.0,2.0,6.0,2.0,-0.12,0.004,0.093,-0.536,37.0,25.93,0.0,18.0,3880.0,13.0,-0.62,0.01,-0.95,-0.35,-3.5,0.52,1.1,600.0,,,0.0,1.0,1.0,100.0
340,1,walk,walk,19679,,19679.0,20.0,2.0,6.0,2.0,-0.11,0.004,-0.056,-0.507,37.0,25.93,0.0,18.0,3880.0,13.0,-0.61,0.01,-0.95,-0.35,-3.07,0.56,1.09,600.0,,,0.0,1.0,1.0,100.0
360,1,walk,walk,19680,,19680.0,20.0,2.0,6.0,2.0,-0.1,0.004,-0.041,-0.56,37.0,25.93,0.0,18.0,3880.0,13.0,-0.6,0.01,-0.95,-0.35,-2.58,0.6,1.07,600.0,,,0.0,1.0,1.0,100.0
400,1,walk,walk,19681,,19681.0,20.0,2.0,6.0,2.0,-0.09,0.004,-0.072,-0.535,37.0,25.93,0.0,18.0,3880.0,13.0,-0.59,0.01,-0.95,-0.36,-2.04,0.65,1.06,600.0,,,0.0,1.0,1.0,100.0
400,1,walk,walk,19682,,19682.0,20.0,2.0,6.0,2.0,-0.08,0.004,-0.085,-0.522,37.0,25.93,0.0,18.0,3880.0,13.0,-0.59,0.01,-0.95,-0.36,-1.47,0.7,1.04,600.0,,,0.0,1.0,1.0,100.0
420,1,walk,walk,19683,,19683.0,20.0,2.0,6.0,2.0,-0.07,0.004,-0.087,-0.51,37.0,25.93,0.0,18.0,3880.0,13.0,-0.58,0.01,-0.95,-0.36,-0.91,0.75,1.03,600.0,,,0.0,1.0,1.0,100.0
440,1,walk,walk,19684,,19684.0,20.0,2.0,6.0,2.0,-0.06,0.004,-0.058,-0.508,37.0,25.93,0.0,18.0,3880.0,13.0,-0.57,0.01,-0.95,-0.36,-0.37,0.8,1.01,600.0,,,0.0,1.0,1.0,100.0
460,1,walk,walk,19685,,19685.0,20.0,2.0,6.0,2.0,-0.06,0.004,0.002,-0.522,37.0,25.93,0.0,18.0,3880.0,13.0,-0.56,0.01,-0.95,-0.36,0.12,0.84,0.99,600.0,,,0.0,1.0,1.0,100.0
480,1,walk,walk,19686,,19686.0,20.0,2.0,6.0,2.0,-0.05,0.004,0.015,-0.519,37.0,25.93,0.0,18.0,3880.0,13.0,-0.55,0.01,-0.95,-0.36,0.54,0.89,0.97,600.0,,,0.0,1.0,1.0,100.0
520,1,walk,walk,19687,,19687.0,20.0,2.0,6.0,2.0,-0.04,0.004,-0.062,-0.532,37.0,25.93,0.0,18.0,3880.0,13.0,-0.54,0.01,-0.95,-0.36,0.88,0.93,0.94,600.0,,,0.0,1.0,1.0,100.0
540,1,walk,walk,19688,,19688.0,20.0,2.0,6.0,2.0,-0.03,0.004,0.009,-0.521,37.0,25.93,0.0,18.0,3880.0,13.0,-0.53,0.01,-0.95,-0.36,1.14,0.96,0.91,600.0,,,0.0,1.0,1.0,100.0
560,1,walk,walk,19689,,19689.0,20.0,2.0,6.0,2.0,-0.02,0.004,0.005,-0.513,37.0,25.93,0.0,18.0,3880.0,13.0,-0.52,0.01,-0.95,-0.36,1.31,0.99,0.88,600.0,,,0.0,1.0,1.0,100.0
560,1,walk,walk,19690,,19690.0,20.0,2.0,6.0,2.0,-0.01,0.004,0.081,-0.527,37.0,25.93,0.0,18.0,3880.0,13.0,-0.51,0.01,-0.95,-0.36,1.41,1.01,0.85,600.0,,,0.0,1.0,1.0,100.0
580,1,walk,walk,19691,,19691.0,20.0,2.0,6.0,2.0,0.0,0.004,-0.025,-0.506,37.0,25.93,0.0,18.0,3880.0,13.0,-0.51,0.01,-0.95,-0.36,1.43,1.03,0.82,600.0,,,0.0,1.0,1.0,100.0
600,1,walk,walk,19692,,19692.0,20.0,2.0,6.0,2.0,0.0,0.004,0.029,-0.519,37.0,25.9,0.0,18.0,3880.0,13.0,-0.5,0.01,-0.95,-0.35,1.41,1.05,0.79,600.0,,,0.0,1.0,1.0,100.0
640,1,walk,walk,19693,,19693.0,20.0,2.0,6.0,2.0,0.01,0.004,0.037,-0.518,37.0,25.93,0.0,18.0,3880.0,13.0,-0.5,0.01,-0.95,-0.35,1.34,1.07,0.77,600.0,,,0.0,1.0,1.0,100.0
640,1,walk,walk,19694,,19694.0,20.0,2.0,6.0,2.0,0.02,0.004,0.065,-0.521,37.0,25.93,0.0,18.0,3880.0,13.0,-0.5,0.01,-0.95,-0.35,1.26,1.09,0.75,600.0,,,0.0,1.0,1.0,100.0
660,1,walk,walk,19695,,19695.0,20.0,2.0,6.0,2.0,0.03,0.004,0.064,-0.5,37.0,25.9,0.0,18.0,3880.0,13.0,-0.5,0.01,-0.95,-0.35,1.17,1.11,0.74,600.0,,,0.0,1.0,1.0,100.0
720,1,walk,walk,19696,,19696.0,20.0,2.0,6.0,2.0,0.03,0.004,0.018,-0.503,37.0,25.93,0.0,18.0,3880.0,13.0,-0.5,0.01,-0.95,-0.35,1.11,1.12,0.73,600.0,,,0.0,1.0,1.0,100.0
720,1,walk,walk,19697,,19697.0,20.0,2.0,6.0,2.0,0.04,0.004,0.056,-0.479,37.0,25.93,0.0,18.0,3880.0,13.0,-0.5,0.01,-0.95,-0.35,1.06,1.13,0.72,600.0,,,0.0,1.0,1.0,100.0
720,1,walk,walk,19698,,19698.0,20.0,2.0,6.0,2.0,0.04,0.004,-0.072,-0.52,37.0,25.93,0.0,18.0,3880.0,13.0,-0.5,0.01,-0.95,-0.35,1.06,1.14,0.71,600.0,,,0.0,1.0,1.0,100.0
760,1,walk,walk,19699,,19699.0,20.0,2.0,6.0,2.0,0.05,0.004,0.013,-0.508,37.0,25.93,0.0,18.0,3880.0,13.0,-0.5,0.01,-0.95,-0.36,1.09,1.15,0.71,600.0,,,0.0,1.0,1.0,100.0
760,1,walk,walk,19700,,19700.0,20.0,2.0,6.0,2.0,0.06,0.004,-0.032,-0.478,37.0,25.93,0.0,18.0,3880.0,13.0,-0.5,0.01,-0.95,-0.36,1.17,1.16,0.7,600.0,,,0.0,1.0,1.0,100.0
780,1,walk,walk,19701,,19701.0,20.0,2.0,6.0,2.0,0.06,0.004,-0.064,-0.524,37.0,25.93,0.0,18.0,3880.0,13.0,-0.5,0.01,-0.95,-0.36,1.28,1.17,0.7,600.0,,,0.0,1.0,1.0,100.0
840,1,walk,walk,19702,,19702.0,20.0,2.0,6.0,2.0,0.07,0.004,0.014,-0.505,37.0,25.93,0.0,18.0,3880.0,13.0,-0.5,0.01,-0.95,-0.36,1.41,1.18,0.7,600.0,,,0.0,1.0,1.0,100.0
840,1,walk,walk,19703,,19703.0,20.0,2.0,6.0,2.0,0.07,0.004,0.05,-0.562,37.0,25.93,0.0,18.0,3880.0,13.0,-0.49,0.01,-0.95,-0.36,1.55,1.19,0.71,600.0,,,0.0,1.0,1.0,100.0
860,1,walk,walk,19704,,19704.0,20.0,2.0,6.0,2.0,0.07,0.004,-0.029,-0.518,37.0,25.93,0.0,18.0,3880.0,13.0,-0.49,0.01,-0.95,-0.36,1.7,1.18,0.71,600.0,,,0.0,1.0,1.0,100.0
900,1,walk,walk,19705,,19705.0,20.0,2.0,6.0,2.0,0.08,0.004,-0.015,-0.512,37.0,25.93,0.0,18.0,3880.0,13.0,-0.49,0.01,-0.95,-0.36,1.84,1.16,0.72,600.0,,,0.0,1.0,1.0,100.0
900,1,walk,walk,19706,,19706.0,20.0,2.0,6.0,2.0,0.08,0.004,0.062,-0.504,37.0,25.93,0.0,18.0,3880.0,13.0,-0.49,0.01,-0.95,-0.36,1.97,1.14,0.73,600.0,,,0.0,1.0,1.0,100.0
900,1,walk,walk,19707,,19707.0,20.0,2.0,6.0,2.0,0.08,0.004,-0.169,-0.502,37.0,25.93,0.0,18.0,3880.0,13.0,-0.49,0.01,-0.95,-0.36,2.09,1.11,0.73,600.0,,,0.0,1.0,1.0,100.0
920,1,walk,walk,19708,,19708.0,20.0,2.0,6.0,2.0,0.09,0.004,-0.042,-0.493,37.0,25.93,0.0,18.0,3880.0,13.0,-0.49,0.01,-0.95,-0.36,2.19,1.09,0.74,600.0,,,0.0,1.0,1.0,100.0
940,1,walk,walk,19709,,19709.0,20.0,2.0,6.0,2.0,0.09,0.004,-0.019,-0.486,37.0,25.93,0.0,18.0,3880.0,13.0,-0.48,0.01,-0.95,-0.36,2.26,1.08,0.74,600.0,,,0.0,1.0,1.0,100.0
980,1,walk,walk,19710,,19710.0,20.0,2.0,6.0,2.0,0.09,0.004,0.046,-0.517,37.0,25.93,0.0,18.0,3880.0,13.0,-0.48,0.01,-0.95,-0.36,2.31,1.06,0.74,600.0,,,0.0,1.0,1.0,100.0
1000,1,walk,walk,19711,,19711.0,20.0,2.0,6.0,2.0,0.09,0.004,-0.009,-0.507,37.0,25.93,0.0,18.0,3880.0,13.0,-0.49,0.01,-0.95,-0.35,2.33,1.05,0.74,600.0,,,0.0,1.0,1.0,100.0
1000,1,walk,walk,19712,,19712.0,20.0,2.0,6.0,2.0,0.1,0.004,0.019,-0.495,37.0,25.93,0.0,18.0,3880.0,13.0,-0.49,0.01,-0.95,-0.35,2.33,1.05,0.72,600.0,,,0.0,1.0,1.0,100.0
1020,1,walk,walk,19713,,19713.0,20.0,2.0,6.0,2.0,0.1,0.004,0.005,-0.51,37.0,25.93,0.0,18.0,3880.0,13.0,-0.49,0.01,-0.95,-0.35,2.3,1.04,0.71,600.0,,,0.0,1.0,1.0,100.0
1060,1,walk,walk,19714,,19714.0,20.0,2.0,6.0,2.0,0.1,0.004,0.061,-0.526,37.0,25.93,0.0,18.0,3880.0,13.0,-0.49,0.01,-0.95,-0.35,2.25,1.04,0.69,600.0,,,0.0,1.0,1.0,100.0
1080,1,walk,walk,19715,,19715.0,20.0,2.0,6.0,2.0,0.11,0.004,0.076,-0.487,37.0,25.93,0.0,18.0,3880.0,13.0,-0.49,0.01,-0.95,-0.35,2.17,1.03,0.68,600.0,,,0.0,1.0,1.0,100.0
1100,1,walk,walk,19716,,19716.0,20.0,2.0,6.0,2.0,0.11,0.004,-0.04,-0.504,37.0,25.93,0.0,18.0,3880.0,13.0,-0.49,0.01,-0.95,-0.35,2.08,1.02,0.66,600.0,,,0.0,1.0,1.0,100.0
1120,1,walk,walk,19717,,19717.0,20.0,2.0,6.0,2.0,0.11,0.004,0.08,-0.511,37.0,25.93,0.0,18.0,3880.0,13.0,-0.48,0.01,-0.95,-0.35,1.97,1.01,0.64,600.0,,,0.0,1.0,1.0,100.0
1120,1,walk,walk,19718,,19718.0,20.0,2.0,6.0,2.0,0.11,0.004,0.022,-0.508,37.0,25.93,0.0,18.0,3880.0,13.0,-0.48,0.01,-0.95,-0.35,1.87,0.99,0.63,600.0,,,0.0,1.0,1.0,100.0
1140,1,walk,walk,19719,,19719.0,20.0,2.0,6.0,2.0,0.11,0.004,-0.007,-0.471,37.0,25.93,0.0,18.0,3880.0,13.0,-0.48,0.01,-0.95,-0.35,1.76,0.97,0.62,600.0,,,0.0,1.0,1.0,100.0
1160,1,walk,walk,19720,,19720.0,20.0,2.0,6.0,2.0,0.12,0.004,-0.032,-0.495,37.0,25.93,0.0,18.0,3880.0,13.0,-0.48,0.01,-0.95,-0.35,1.67,0.94,0.61,600.0,,,0.0,1.0,1.0,100.0
1200,1,walk,walk,19721,,19721.0,20.0,2.0,6.0,2.0,0.12,0.004,0.041,-0.52,37.0,25.93,0.0,18.0,3880.0,13.0,-0.48,0.01,-0.95,-0.35,1.59,0.91,0.6,600.0,,,0.0,1.0,1.0,100.0
1220,1,walk,walk,19722,,19722.0,20.0,2.0,6.0,2.0,0.12,0.004,0.034,-0.542,37.0,25.93,0.0,18.0,3880.0,13.0,-0.49,0.01,-0.95,-0.35,1.53,0.88,0.6,600.0,,,0.0,1.0,1.0,100.0
1220,1,walk,walk,19723,,19723.0,20.0,2.0,6.0,2.0,0.12,0.004,-0.025,-0.498,37.0,25.93,0.0,18.0,3880.0,13.0,-0.49,0.01,-0.95,-0.35,1.48,0.84,0.6,600.0,,,0.0,1.0,1.0,100.0
1240,1,walk,walk,19724,,19724.0,20.0,2.0,6.0,2.0,0.12,0.004,-0.007,-0.511,37.0,25.93,0.0,18.0,3880.0,13.0,-0.49,0.01,-0.95,-0.35,1.45,0.8,0.59,600.0,,,0.0,1.0,1.0,100.0
1260,1,walk,walk,19725,,19725.0,20.0,2.0,6.0,2.0,0.12,0.004,0.033,-0.492,37.0,25.93,0.0,18.0,3880.0,13.0,-0.49,0.01,-0.95,-0.35,1.43,0.76,0.59,600.0,,,0.0,1.0,1.0,100.0
1280,1,walk,walk,19726,,19726.0,20.0,2.0,6.0,2.0,0.12,0.004,-0.065,-0.494,37.0,25.93,0.0,18.0,3880.0,13.0,-0.49,0.01,-0.95,-0.35,1.42,0.71,0.58,600.0,,,0.0,1.0,1.0,100.0
1300,1,walk,walk,19727,,19727.0,20.0,2.0,6.0,2.0,0.12,0.004,-0.01,-0.537,37.0,25.93,0.0,18.0,3880.0,13.0,-0.49,0.01,-0.95,-0.35,1.41,0.67,0.58,600.0,,,0.0,1.0,1.0,100.0
1320,1,walk,walk,19728,,19728.0,20.0,2.0,6.0,2.0,0.12,0.004,-0.028,-0.524,37.0,25.93,0.0,18.0,3880.0,13.0,-0.49,0.01,-0.95,-0.35,1.4,0.65,0.57,600.0,,,0.0,1.0,1.0,100.0
1380,1,walk,walk,19729,,19729.0,20.0,2.0,6.0,2.0,0.12,0.004,0.068,-0.538,37.0,25.93,0.0,18.0,3880.0,13.0,-0.49,0.01,-0.95,-0.35,1.39,0.64,0.57,600.0,,,0.0,1.0,1.0,100.0
1380,1,walk,walk,19730,,19730.0,20.0,2.0,6.0,2.0,0.12,0.004,0.018,-0.508,37.0,25.93,0.0,18.0,3880.0,13.0,-0.49,0.01,-0.95,-0.35,1.38,0.64,0.57,600.0,,,0.0,1.0,1.0,100.0
1380,1,walk,walk,19731,,19731.0,20.0,2.0,6.0,2.0,0.12,0.004,-0.036,-0.508,37.0,25.93,0.0,18.0,3880.0,13.0,-0.49,0.01,-0.95,-0.35,1.37,0.66,0.57,600.0,,,0.0,1.0,1.0,100.0
1420,1,walk,walk,19732,,19732.0,20.0,2.0,6.0,2.0,0.12,0.004,0.002,-0.499,37.0,25.93,0.0,18.0,3880.0,13.0,-0.5,0.01,-0.95,-0.35,1.36,0.69,0.58,600.0,,,0.0,1.0,1.0,100.0
1420,1,walk,walk,19733,,19733.0,20.0,2.0,6.0,2.0,0.12,0.004,-0.006,-0.5,37.0,25.93,0.0,18.0,3880.0,13.0,-0.5,0.01,-0.95,-0.35,1.35,0.72,0.58,600.0,,,0.0,1.0,1.0,100.0
1440,1,walk,walk,19734,,19734.0,20.0,2.0,6.0,2.0,0.12,0.004,-0.014,-0.503,37.0,25.93,0.0,18.0,3880.0,13.0,-0.5,0.01,-0.95,-0.35,1.35,0.77,0.58,600.0,,,0.0,1.0,1.0,100.0
1460,1,walk,walk,19735,,19735.0,20.0,2.0,6.0,2.0,0.12,0.004,-0.079,-0.492,37.0,25.93,0.0,18.0,3880.0,13.0,-0.51,0.01,-0.95,-0.35,1.34,0.82,0.58,600.0,,,0.0,1.0,1.0,100.0
1480,1,walk,walk,19736,,19736.0,20.0,2.0,6.0,2.0,0.12,0.004,-0.029,-0.508,37.0,25.9,0.0,18.0,3880.0,13.0,-0.51,0.01,-0.95,-0.35,1.35,0.86,0.58,600.0,,,0.0,1.0,1.0,100.0
1500,1,walk,walk,19737,,19737.0,20.0,2.0,6.0,2.0,0.12,0.004,0.011,-0.493,37.0,25.93,0.0,18.0,3880.0,13.0,-0.51,0.01,-0.95,-0.35,1.35,0.89,0.58,600.0,,,0.0,1.0,1.0,100.0
1540,1,walk,walk,19738,,19738.0,20.0,2.0,6.0,2.0,0.12,0.004,-0.052,-0.51,37.0,25.93,0.0,18.0,3880.0,13.0,-0.51,0.01,-0.95,-0.35,1.37,0.91,0.58,600.0,,,0.0,1.0,1.0,100.0
1540,1,walk,walk,19739,,19739.0,20.0,2.0,6.0,2.0,0.12,0.004,0.065,-0.5,37.0,25.93,0.0,18.0,3880.0,13.0,-0.51,0.01,-0.95,-0.35,1.38,0.92,0.59,600.0,,,0.0,1.0,1.0,100.0
1560,1,walk,walk,19740,,19740.0,20.0,2.0,6.0,2.0,0.12,0.004,-0.046,-0.475,37.0,25.93,0.0,18.0,3880.0,13.0,-0.51,0.01,-0.95,-0.35,1.39,0.94,0.6,600.0,,,0.0,1.0,1.0,100.0
1580,1,walk,walk,19741,,19741.0,20.0,2.0,6.0,2.0,0.12,0.004,-0.049,-0.518,37.0,25.93,0.0,18.0,3880.0,13.0,-0.51,0.01,-0.95,-0.35,1.4,0.94,0.62,600.0,,,0.0,1.0,1.0,100.0
1600,1,walk,walk,19742,,19742.0,20.0,2.0,6.0,2.0,0.12,0.004,0.044,-0.551,37.0,25.93,0.0,18.0,3880.0,13.0,-0.51,0.01,-0.95,-0.35,1.41,0.94,0.64,600.0,,,0.0,1.0,1.0,100.0
1620,1,walk,walk,19743,,19743.0,20.0,2.0,6.0,2.0,0.12,0.004,0.01,-0.479,37.0,25.93,0.0,18.0,3880.0,13.0,-0.51,0.01,-0.95,-0.35,1.41,0.93,0.66,600.0,,,0.0,1.0,1.0,100.0
1640,1,walk,walk,19744,,19744.0,20.0,2.0,6.0,2.0,0.12,0.004,0.003,-0.544,37.0,25.93,0.0,18.0,3880.0,13.0,-0.52,0.01,-0.95,-0.35,1.41,0.92,0.67,600.0,,,0.0,1.0,1.0,100.0
1680,1,walk,walk,19745,,19745.0,20.0,2.0,6.0,2.0,0.12,0.004,-0.066,-0.506,37.0,25.93,0.0,18.0,3880.0,13.0,-0.52,0.01,-0.95,-0.35,1.4,0.91,0.68,600.0,,,0.0,1.0,1.0,100.0
1700,1,walk,walk,19746,,19746.0,20.0,2.0,6.0,2.0,0.11,0.004,0.108,-0.524,37.0,25.93,0.0,18.0,3880.0,13.0,-0.52,0.01,-0.95,-0.35,1.4,0.92,0.69,600.0,,,0.0,1.0,1.0,100.0
1720,1,walk,walk,19747,,19747.0,20.0,2.0,6.0,2.0,0.11,0.004,-0.042,-0.502,37.0,25.93,0.0,18.0,3880.0,13.0,-0.52,0.01,-0.95,-0.35,1.39,0.93,0.7,600.0,,,0.0,1.0,1.0,100.0
1720,1,walk,walk,19748,,19748.0,20.0,2.0,6.0,2.0,0.11,0.004,-0.085,-0.485,37.0,25.93,0.0,18.0,3880.0,13.0,-0.52,0.01,-0.95,-0.35,1.39,0.95,0.7,600.0,,,0.0,1.0,1.0,100.0
1740,1,walk,walk,19749,,19749.0,20.0,2.0,6.0,2.0,0.11,0.004,-0.015,-0.514,37.0,25.93,0.0,18.0,3880.0,13.0,-0.52,0.01,-0.95,-0.35,1.38,0.97,0.71,600.0,,,0.0,1.0,1.0,100.0
1780,1,walk,walk,19750,,19750.0,20.0,2.0,6.0,2.0,0.11,0.004,0.033,-0.519,37.0,25.93,0.0,18.0,3880.0,13.0,-0.52,0.01,-0.95,-0.35,1.38,0.98,0.71,600.0,,,0.0,1.0,1.0,100.0
1780,1,walk,walk,19751,,19751.0,20.0,2.0,6.0,2.0,0.11,0.004,0.026,-0.516,37.0,25.93,0.0,18.0,3880.0,13.0,-0.52,0.01,-0.95,-0.35,1.38,0.98,0.71,600.0,,,0.0,1.0,1.0,100.0
1820,1,walk,walk,19752,,19752.0,20.0,2.0,6.0,2.0,0.11,0.004,-0.073,-0.475,37.0,25.9,0.0,18.0,3880.0,13.0,-0.52,0.01,-0.95,-0.35,1.39,0.98,0.7,600.0,,,0.0,1.0,1.0,100.0
1840,1,walk,walk,19753,,19753.0,20.0,2.0,6.0,2.0,0.11,0.004,-0.038,-0.511,37.0,25.93,0.0,18.0,3880.0,13.0,-0.52,0.01,-0.95,-0.35,1.4,0.97,0.7,600.0,,,0.0,1.0,1.0,100.0
1920,1,walk,walk,19754,,19754.0,20.0,2.0,6.0,2.0,0.11,0.004,0.058,-0.505,37.0,25.93,0.0,18.0,3880.0,13.0,-0.52,0.01,-0.95,-0.35,1.41,0.97,0.69,600.0,,,0.0,1.0,1.0,100.0
1920,1,walk,walk,19755,,19755.0,20.0,2.0,6.0,2.0,0.11,0.004,-0.013,-0.505,37.0,25.93,0.0,18.0,3880.0,13.0,-0.51,0.01,-0.95,-0.35,1.43,0.96,0.69,600.0,,,0.0,1.0,1.0,100.0
1920,1,walk,walk,19756,,19756.0,20.0,2.0,6.0,2.0,0.11,0.004,0.07,-0.526,37.0,25.93,0.0,18.0,3880.0,13.0,-0.51,0.01,-0.95,-0.35,1.44,0.96,0.68,600.0,,,0.0,1.0,1.0,100.0
1920,1,walk,walk,19757,,19757.0,20.0,2.0,6.0,2.0,0.11,0.004,0.011,-0.505,37.0,25.93,0.0,18.0,3880.0,13.0,-0.51,0.01,-0.95,-0.35,1.45,0.96,0.68,600.0,,,0.0,1.0,1.0,100.0
1940,1,walk,walk,19758,,19758.0,20.0,2.0,6.0,2.0,0.12,0.004,0.081,-0.495,37.0,25.93,0.0,18.0,3880.0,13.0,-0.5,0.01,-0.95,-0.35,1.46,0.97,0.68,600.0,,,0.0,1.0,1.0,100.0
1940,1,walk,walk,19759,,19759.0,20.0,2.0,6.0,2.0,0.12,0.004,0.014,-0.54,37.0,25.93,0.0,18.0,3880.0,13.0,-0.5,0.01,-0.95,-0.35,1.46,0.97,0.68,600.0,,,0.0,1.0,1.0,100.0
1960,1,walk,walk,19760,,19760.0,20.0,2.0,6.0,2.0,0.12,0.004,-0.08,-0.515,37.0,25.93,0.0,18.0,3880.0,13.0,-0.49,0.01,-0.95,-0.35,1.46,0.98,0.68,600.0,,,0.0,1.0,1.0,100.0
1980,1,walk,walk,19761,,19761.0,20.0,2.0,6.0,2.0,0.12,0.004,-0.018,-0.505,37.0,25.93,0.0,18.0,3880.0,13.0,-0.49,0.01,-0.95,-0.35,1.45,1.0,0.68,600.0,,,0.0,1.0,1.0,100.0
2020,1,walk,walk,19762,,19762.0,20.0,2.0,6.0,2.0,0.12,0.004,0.061,-0.508,37.0,25.93,0.0,18.0,3880.0,13.0,-0.49,0.01,-0.95,-0.35,1.44,1.01,0.68,600.0,,,0.0,1.0,1.0,100.0
2020,1,walk,walk,19763,,19763.0,20.0,2.0,6.0,2.0,0.12,0.004,0.052,-0.532,37.0,25.9,0.0,18.0,3880.0,13.0,-0.49,0.01,-0.95,-0.35,1.42,1.03,0.68,600.0,,,0.0,1.0,1.0,100.0
2040,1,walk,walk,19764,,19764.0,20.0,2.0,6.0,2.0,0.12,0.004,0.037,-0.496,37.0,25.93,0.0,18.0,3880.0,13.0,-0.49,0.01,-0.95,-0.35,1.41,1.05,0.68,600.0,,,0.0,1.0,1.0,100.0
2060,1,walk,walk,19765,,19765.0,20.0,2.0,6.0,2.0,0.12,0.004,-0.026,-0.522,37.0,25.93,0.0,18.0,3880.0,13.0,-0.49,0.01,-0.95,-0.35,1.4,1.07,0.69,600.0,,,0.0,1.0,1.0,100.0
2080,1,walk,walk,19766,,19766.0,20.0,2.0,6.0,2.0,0.12,0.004,-0.058,-0.508,37.0,25.93,0.0,18.0,3880.0,13.0,-0.49,0.01,-0.95,-0.35,1.4,1.09,0.69,600.0,,,0.0,1.0,1.0,100.0
2120,1,walk,walk,19767,,19767.0,20.0,2.0,6.0,2.0,0.12,0.004,0.029,-0.499,37.0,25.93,0.0,18.0,3880.0,13.0,-0.49,0.01,-0.95,-0.35,1.4,1.11,0.69,600.0,,,0.0,1.0,1.0,100.0
2140,1,walk,walk,19768,,19768.0,20.0,2.0,6.0,2.0,0.12,0.004,-0.005,-0.494,37.0,25.93,0.0,18.0,3880.0,13.0,-0.49,0.01,-0.95,-0.35,1.4,1.13,0.69,600.0,,,0.0,1.0,1.0,100.0
2160,1,walk,walk,19769,,19769.0,20.0,2.0,6.0,2.0,0.12,0.004,-0.066,-0.514,37.0,25.93,0.0,18.0,3880.0,13.0,-0.49,0.01,-0.95,-0.35,1.41,1.16,0.7,600.0,,,0.0,1.0,1.0,100.0
2180,1,walk,walk,19770,,19770.0,20.0,2.0,6.0,2.0,0.13,0.004,-0.014,-0.512,37.0,25.93,0.0,18.0,3880.0,13.0,-0.48,0.01,-0.95,-0.35,1.42,1.19,0.7,600.0,,,0.0,1.0,1.0,100.0
2200,1,walk,walk,19771,,19771.0,20.0,2.0,6.0,2.0,0.13,0.004,0.015,-0.516,37.0,25.93,0.0,18.0,3880.0,13.0,-0.48,0.01,-0.95,-0.35,1.43,1.23,0.71,600.0,,,0.0,1.0,1.0,100.0
2200,1,walk,walk,19772,,19772.0,20.0,2.0,6.0,2.0,0.13,0.004,-0.092,-0.506,37.0,25.93,0.0,18.0,3880.0,13.0,-0.47,0.01,-0.95,-0.35,1.44,1.26,0.72,600.0,,,0.0,1.0,1.0,100.0
2220,1,walk,walk,19773,,19773.0,20.0,2.0,6.0,2.0,0.13,0.004,0.03,-0.514,37.0,25.93,0.0,18.0,3880.0,13.0,-0.47,0.01,-0.95,-0.35,1.45,1.28,0.72,600.0,,,0.0,1.0,1.0,100.0
2260,1,walk,walk,19774,,19774.0,20.0,2.0,6.0,2.0,0.13,0.004,0.009,-0.505,37.0,25.93,0.0,18.0,3880.0,13.0,-0.46,0.01,-0.95,-0.35,1.46,1.3,0.73,600.0,,,0.0,1.0,1.0,100.0
2260,1,walk,walk,19775,,19775.0,20.0,2.0,6.0,2.0,0.13,0.004,0.01,-0.487,37.0,25.93,0.0,18.0,3880.0,13.0,-0.46,0.01,-0.95,-0.35,1.47,1.3,0.73,600.0,,,0.0,1.0,1.0,100.0
2280,1,walk,walk,19776,,19776.0,20.0,2.0,6.0,2.0,0.13,0.004,-0.03,-0.521,37.0,25.93,0.0,18.0,3880.0,13.0,-0.45,0.01,-0.95,-0.35,1.48,1.29,0.73,600.0,,,0.0,1.0,1.0,100.0
2300,1,walk,walk,19777,,19777.0,20.0,2.0,6.0,2.0,0.13,0.004,-0.032,-0.501,37.0,25.93,0.0,18.0,3880.0,13.0,-0.45,0.01,-0.95,-0.35,1.49,1.27,0.73,600.0,,,0.0,1.0,1.0,100.0
2340,1,walk,walk,19778,,19778.0,20.0,2.0,6.0,2.0,0.13,0.004,0.002,-0.531,37.0,25.93,0.0,18.0,3880.0,13.0,-0.45,0.01,-0.95,-0.35,1.5,1.23,0.73,600.0,,,0.0,1.0,1.0,100.0
2360,1,walk,walk,19779,,19779.0,20.0,2.0,6.0,2.0,0.14,0.004,-0.054,-0.521,37.0,25.93,0.0,18.0,3880.0,13.0,-0.45,0.01,-0.95,-0.35,1.51,1.2,0.72,600.0,,,0.0,1.0,1.0,100.0
2360,1,walk,walk,19780,,19780.0,20.0,2.0,6.0,2.0,0.14,0.004,0.072,-0.512,37.0,25.93,0.0,18.0,3880.0,13.0,-0.45,0.01,-0.95,-0.35,1.51,1.16,0.72,600.0,,,0.0,1.0,1.0,100.0
2380,1,walk,walk,19781,,19781.0,20.0,2.0,6.0,2.0,0.14,0.004,-0.022,-0.523,37.0,25.93,0.0,18.0,3880.0,13.0,-0.45,0.01,-0.95,-0.35,1.51,1.12,0.71,600.0,,,0.0,1.0,1.0,100.0
2420,1,walk,walk,19782,,19782.0,20.0,2.0,6.0,2.0,0.14,0.004,0.066,-0.484,37.0,25.93,0.0,18.0,3880.0,13.0,-0.45,0.01,-0.95,-0.35,1.51,1.07,0.7,600.0,,,0.0,1.0,1.0,100.0
2440,1,walk,walk,19783,,19783.0,20.0,2.0,6.0,2.0,0.14,0.004,-0.032,-0.5,37.0,25.93,0.0,18.0,3880.0,13.0,-0.45,0.01,-0.95,-0.35,1.51,1.03,0.68,600.0,,,0.0,1.0,1.0,100.0
2440,1,walk,walk,19784,,19784.0,20.0,2.0,6.0,2.0,0.14,0.004,-0.05,-0.529,37.0,25.93,0.0,18.0,3880.0,13.0,-0.45,0.01,-0.95,-0.35,1.51,0.99,0.67,600.0,,,0.0,1.0,1.0,100.0
2460,1,walk,walk,19785,,19785.0,20.0,2.0,6.0,2.0,0.15,0.004,0.001,-0.506,37.0,25.93,0.0,18.0,3880.0,13.0,-0.45,0.01,-0.95,-0.35,1.5,0.94,0.66,600.0,,,0.0,1.0,1.0,100.0
2520,1,walk,walk,19786,,19786.0,20.0,2.0,6.0,2.0,0.15,0.004,-0.103,-0.505,37.0,25.9,0.0,18.0,3880.0,13.0,-0.46,0.01,-0.95,-0.35,1.49,0.9,0.64,600.0,,,0.0,1.0,1.0,100.0
2520,1,walk,walk,19787,,19787.0,20.0,2.0,6.0,2.0,0.15,0.004,0.046,-0.527,37.0,25.93,0.0,18.0,3880.0,13.0,-0.46,0.01,-0.95,-0.35,1.47,0.87,0.64,600.0,,,0.0,1.0,1.0,100.0
2520,1,walk,walk,19788,,19788.0,20.0,2.0,6.0,2.0,0.15,0.004,-0.007,-0.511,37.0,25.93,0.0,18.0,3880.0,13.0,-0.47,0.01,-0.95,-0.35,1.46,0.85,0.63,600.0,,,0.0,1.0,1.0,100.0
2560,1,walk,walk,19789,,19789.0,20.0,2.0,6.0,2.0,0.15,0.004,-0.029,-0.498,37.0,25.93,0.0,18.0,3880.0,13.0,-0.47,0.01,-0.95,-0.35,1.44,0.84,0.63,600.0,,,0.0,1.0,1.0,100.0
2560,1,walk,walk,19790,,19790.0,20.0,2.0,6.0,2.0,0.15,0.004,0.08,-0.514,37.0,25.93,0.0,18.0,3880.0,13.0,-0.48,0.01,-0.95,-0.35,1.43,0.83,0.63,600.0,,,0.0,1.0,1.0,100.0
2580,1,walk,walk,19791,,19791.0,20.0,2.0,6.0,2.0,0.16,0.004,-0.048,-0.519,37.0,25.93,0.0,18.0,3880.0,13.0,-0.48,0.01,-0.95,-0.35,1.42,0.83,0.63,600.0,,,0.0,1.0,1.0,100.0
2620,1,walk,walk,19792,,19792.0,20.0,2.0,6.0,2.0,0.16,0.004,0.056,-0.525,37.0,25.93,0.0,18.0,3880.0,13.0,-0.49,0.01,-0.95,-0.35,1.41,0.82,0.62,600.0,,,0.0,1.0,1.0,100.0
2640,1,walk,walk,19793,,19793.0,20.0,2.0,6.0,2.0,0.16,0.004,-0.072,-0.511,37.0,25.93,0.0,18.0,3880.0,13.0,-0.49,0.01,-0.95,-0.35,1.41,0.81,0.62,600.0,,,0.0,1.0,1.0,100.0
2660,1,walk,walk,19794,,19794.0,20.0,2.0,6.0,2.0,0.16,0.004,-0.021,-0.527,37.0,25.93,0.0,18.0,3880.0,13.0,-0.49,0.01,-0.95,-0.35,1.42,0.8,0.62,600.0,,,0.0,1.0,1.0,100.0
2660,1,walk,walk,19795,,19795.0,20.0,2.0,6.0,2.0,0.16,0.004,0.018,-0.513,37.0,25.93,0.0,18.0,3880.0,13.0,-0.5,0.01,-0.95,-0.35,1.42,0.78,0.62,600.0,,,0.0,1.0,1.0,100.0
2700,1,walk,walk,19796,,19796.0,20.0,2.0,6.0,2.0,0.16,0.004,0.048,-0.495,37.0,25.93,0.0,18.0,3880.0,13.0,-0.5,0.01,-0.95,-0.35,1.44,0.78,0.63,600.0,,,0.0,1.0,1.0,100.0
2720,1,walk,walk,19797,,19797.0,20.0,2.0,6.0,2.0,0.16,0.004,-0.052,-0.511,37.0,25.93,0.0,18.0,3880.0,13.0,-0.5,0.01,-0.95,-0.35,1.45,0.79,0.64,600.0,,,0.0,1.0,1.0,100.0
2740,1,walk,walk,19798,,19798.0,20.0,2.0,6.0,2.0,0.16,0.004,0.073,-0.506,37.0,25.93,0.0,18.0,3880.0,13.0,-0.5,0.01,-0.95,-0.35,1.47,0.8,0.65,600.0,,,0.0,1.0,1.0,100.0
2740,1,walk,walk,19799,,19799.0,20.0,2.0,6.0,2.0,0.16,0.004,0.022,-0.501,37.0,25.93,0.0,18.0,3880.0,13.0,-0.5,0.01,-0.95,-0.35,1.48,0.82,0.66,600.0,,,0.0,1.0,1.0,100.0
2760,1,walk,walk,19800,,19800.0,20.0,2.0,6.0,2.0,0.16,0.004,0.001,-0.538,37.0,25.93,0.0,18.0,3880.0,13.0,-0.5,0.01,-0.95,-0.35,1.5,0.84,0.66,600.0,,,0.0,1.0,1.0,100.0
2820,1,walk,walk,19801,,19801.0,20.0,2.0,6.0,2.0,0.16,0.004,-0.036,-0.515,37.0,25.93,0.0,18.0,3880.0,13.0,-0.5,0.01,-0.95,-0.35,1.52,0.86,0.66,600.0,,,0.0,1.0,1.0,100.0
2820,1,walk,walk,19802,,19802.0,20.0,2.0,6.0,2.0,0.16,0.004,-0.077,-0.497,37.0,25.93,0.0,18.0,3880.0,13.0,-0.5,0.01,-0.95,-0.35,1.53,0.88,0.67,600.0,,,0.0,1.0,1.0,100.0
2820,1,walk,walk,19803,,19803.0,20.0,2.0,6.0,2.0,0.16,0.004,-0.06,-0.554,37.0,25.93,0.0,18.0,3880.0,13.0,-0.5,0.01,-0.95,-0.35,1.55,0.9,0.67,600.0,,,0.0,1.0,1.0,100.0
2860,1,walk,walk,19804,,19804.0,20.0,2.0,6.0,2.0,0.16,0.004,0.073,-0.52,37.0,25.93,0.0,18.0,3880.0,13.0,-0.5,0.01,-0.95,-0.35,1.56,0.92,0.67,600.0,,,0.0,1.0,1.0,100.0
2860,1,walk,walk,19805,,19805.0,20.0,2.0,6.0,2.0,0.16,0.004,-0.05,-0.502,37.0,25.93,0.0,18.0,3880.0,13.0,-0.5,0.01,-0.95,-0.35,1.57,0.93,0.67,600.0,,,0.0,1.0,1.0,100.0
2900,1,walk,walk,19806,,19806.0,20.0,2.0,6.0,2.0,0.16,0.004,-0.011,-0.52,37.0,25.93,0.0,18.0,3880.0,13.0,-0.5,0.01,-0.95,-0.35,1.58,0.93,0.67,600.0,,,0.0,1.0,1.0,100.0
2920,1,walk,walk,19807,,19807.0,20.0,2.0,6.0,2.0,0.16,0.004,0.001,-0.523,37.0,25.93,0.0,18.0,3880.0,13.0,-0.5,0.01,-0.95,-0.35,1.59,0.92,0.66,600.0,,,0.0,1.0,1.0,100.0
2920,1,walk,walk,19808,,19808.0,20.0,2.0,6.0,2.0,0.16,0.004,-0.015,-0.528,37.0,25.93,0.0,18.0,3880.0,13.0,-0.5,0.01,-0.95,-0.35,1.59,0.91,0.65,600.0,,,0.0,1.0,1.0,100.0
2940,1,walk,walk,19809,,19809.0,20.0,2.0,6.0,2.0,0.16,0.004,-0.032,-0.523,37.0,25.93,0.0,18.0,3880.0,13.0,-0.5,0.01,-0.95,-0.35,1.59,0.9,0.65,600.0,,,0.0,1.0,1.0,100.0
2980,1,walk,walk,19810,,19810.0,20.0,2.0,6.0,2.0,0.16,0.004,-0.057,-0.551,37.0,25.93,0.0,18.0,3880.0,13.0,-0.49,0.01,-0.95,-0.35,1.58,0.88,0.64,600.0,,,0.0,1.0,1.0,100.0
2980,1,walk,walk,19811,,19811.0,20.0,2.0,6.0,2.0,0.16,0.004,0.037,-0.524,37.0,25.93,0.0,18.0,3880.0,13.0,-0.49,0.01,-0.95,-0.35,1.56,0.87,0.63,600.0,,,0.0,1.0,1.0,100.0
3000,1,walk,walk,19812,,19812.0,20.0,2.0,6.0,2.0,0.16,0.004,-0.048,-0.537,37.0,25.93,0.0,18.0,3880.0,13.0,-0.49,0.01,-0.95,-0.35,1.54,0.86,0.61,600.0,,,0.0,1.0,1.0,100.0
3020,1,walk,walk,19813,,19813.0,20.0,2.0,6.0,2.0,0.16,0.004,-0.038,-0.536,37.0,25.93,0.0,18.0,3880.0,13.0,-0.49,0.01,-0.95,-0.35,1.51,0.85,0.6,600.0,,,0.0,1.0,1.0,100.0
3040,1,walk,walk,19814,,19814.0,20.0,2.0,6.0,2.0,0.16,0.004,-0.046,-0.513,37.0,25.93,0.0,18.0,3880.0,13.0,-0.49,0.01,-0.95,-0.35,1.49,0.85,0.59,600.0,,,0.0,1.0,1.0,100.0
3060,1,walk,walk,19815,,19815.0,20.0,2.0,6.0,2.0,0.16,0.004,-0.034,-0.522,37.0,25.93,0.0,18.0,3880.0,13.0,-0.49,0.01,-0.95,-0.35,1.46,0.84,0.59,600.0,,,0.0,1.0,1.0,100.0
3080,1,walk,walk,19816,,19816.0,20.0,2.0,6.0,2.0,0.16,0.004,-0.072,-0.513,37.0,25.93,0.0,18.0,3880.0,13.0,-0.49,0.01,-0.95,-0.35,1.45,0.83,0.58,600.0,,,0.0,1.0,1.0,100.0
3120,1,walk,walk,19817,,19817.0,20.0,2.0,6.0,2.0,0.15,0.004,-0.1,-0.499,37.0,25.93,0.0,18.0,3880.0,13.0,-0.49,0.01,-0.95,-0.35,1.43,0.82,0.59,600.0,,,0.0,1.0,1.0,100.0
3140,1,walk,walk,19818,,19818.0,20.0,2.0,6.0,2.0,0.15,0.004,-0.033,-0.484,37.0,25.93,0.0,18.0,3880.0,13.0,-0.49,0.01,-0.95,-0.35,1.41,0.82,0.59,600.0,,,0.0,1.0,1.0,100.0
3160,1,walk,walk,19819,,19819.0,20.0,2.0,6.0,2.0,0.15,0.004,-0.069,-0.521,37.0,25.93,0.0,18.0,3880.0,13.0,-0.5,0.01,-0.95,-0.35,1.4,0.82,0.6,600.0,,,0.0,1.0,1.0,100.0
3160,1,walk,walk,19820,,19820.0,20.0,2.0,6.0,2.0,0.15,0.004,0.072,-0.544,37.0,25.93,0.0,18.0,3880.0,13.0,-0.5,0.01,-0.95,-0.35,1.4,0.83,0.61,600.0,,,0.0,1.0,1.0,100.0
3180,1,walk,walk,19821,,19821.0,20.0,2.0,6.0,2.0,0.15,0.004,-0.065,-0.546,37.0,25.93,0.0,18.0,3880.0,13.0,-0.5,0.01,-0.95,-0.35,1.39,0.84,0.62,600.0,,,0.0,1.0,1.0,100.0
3220,1,walk,walk,19822,,19822.0,20.0,2.0,6.0,2.0,0.15,0.004,0.007,-0.497,37.0,25.9,0.0,18.0,3880.0,13.0,-0.5,0.01,-0.95,-0.35,1.39,0.85,0.63,600.0,,,0.0,1.0,1.0,100.0
3220,1,walk,walk,19823,,19823.0,20.0,2.0,6.0,2.0,0.15,0.004,-0.038,-0.561,37.0,25.93,0.0,18.0,3880.0,13.0,-0.51,0.01,-0.95,-0.35,1.39,0.87,0.63,600.0,,,0.0,1.0,1.0,100.0
3240,1,walk,walk,19824,,19824.0,20.0,2.0,6.0,2.0,0.15,0.004,0.103,-0.535,37.0,25.93,0.0,18.0,3880.0,13.0,-0.51,0.01,-0.95,-0.35,1.39,0.89,0.64,600.0,,,0.0,1.0,1.0,100.0
3300,1,walk,walk,19825,,19825.0,20.0,2.0,6.0,2.0,0.15,0.004,0.06,-0.53,37.0,25.93,0.0,18.0,3880.0,13.0,-0.52,0.01,-0.95,-0.35,1.38,0.91,0.64,600.0,,,0.0,1.0,1.0,100.0
3300,1,walk,walk,19826,,19826.0,20.0,2.0,6.0,2.0,0.15,0.004,-0.053,-0.538,37.0,25.93,0.0,18.0,3880.0,13.0,-0.52,0.01,-0.95,-0.35,1.38,0.93,0.64,600.0,,,0.0,1.0,1.0,100.0
3300,1,walk,walk,19827,,19827.0,20.0,2.0,6.0,2.0,0.15,0.004,0.06,-0.518,37.0,25.93,0.0,18.0,3880.0,13.0,-0.52,0.01,-0.95,-0.35,1.37,0.94,0.65,600.0,,,0.0,1.0,1.0,100.0
3320,1,walk,walk,19828,,19828.0,20.0,2.0,6.0,2.0,0.15,0.004,0.017,-0.509,37.0,25.93,0.0,18.0,3880.0,13.0,-0.52,0.01,-0.95,-0.35,1.37,0.96,0.65,600.0,,,0.0,1.0,1.0,100.0
3340,1,walk,walk,19829,,19829.0,20.0,2.0,6.0,2.0,0.15,0.004,0.001,-0.535,37.0,25.93,0.0,18.0,3880.0,13.0,-0.52,0.01,-0.95,-0.35,1.36,0.98,0.67,600.0,,,0.0,1.0,1.0,100.0
3360,1,walk,walk,19830,,19830.0,20.0,2.0,6.0,2.0,0.15,0.004,-0.013,-0.538,37.0,25.93,0.0,18.0,3880.0,13.0,-0.52,0.01,-0.95,-0.35,1.36,1.0,0.68,600.0,,,0.0,1.0,1.0,100.0
3400,1,walk,walk,19831,,19831.0,20.0,2.0,6.0,2.0,0.14,0.004,0.061,-0.556,37.0,25.93,0.0,18.0,3880.0,13.0,-0.52,0.01,-0.95,-0.35,1.37,1.03,0.7,600.0,,,0.0,1.0,1.0,100.0
3420,1,walk,walk,19832,,19832.0,20.0,2.0,6.0,2.0,0.14,0.004,-0.025,-0.56,37.0,25.93,0.0,18.0,3880.0,13.0,-0.51,0.01,-0.95,-0.35,1.38,1.06,0.71,600.0,,,0.0,1.0,1.0,100.0
3460,1,walk,walk,19833,,19833.0,20.0,2.0,6.0,2.0,0.14,0.004,0.038,-0.548,37.0,25.93,0.0,18.0,3880.0,13.0,-0.51,0.01,-0.95,-0.35,1.4,1.09,0.72,600.0,,,0.0,1.0,1.0,100.0
3460,1,walk,walk,19834,,19834.0,20.0,2.0,6.0,2.0,0.14,0.004,-0.045,-0.508,37.0,25.93,0.0,18.0,3880.0,13.0,-0.5,0.01,-0.95,-0.35,1.42,1.12,0.73,600.0,,,0.0,1.0,1.0,100.0
3460,1,walk,walk,19835,,19835.0,20.0,2.0,6.0,2.0,0.14,0.004,-0.013,-0.575,37.0,25.93,0.0,18.0,3880.0,13.0,-0.5,0.01,-0.95,-0.35,1.44,1.15,0.73,600.0,,,0.0,1.0,1.0,100.0
3480,1,walk,walk,19836,,19836.0,20.0,2.0,6.0,2.0,0.14,0.004,0.005,-0.516,37.0,25.93,0.0,18.0,3880.0,13.0,-0.49,0.01,-0.95,-0.35,1.45,1.17,0.72,600.0,,,0.0,1.0,1.0,100.0
3520,1,walk,walk,19837,,19837.0,20.0,2.0,6.0,2.0,0.14,0.004,0.019,-0.518,37.0,25.93,0.0,18.0,3880.0,13.0,-0.49,0.01,-0.95,-0.35,1.46,1.19,0.71,600.0,,,0.0,1.0,1.0,100.0
3520,1,walk,walk,19838,,19838.0,20.0,2.0,6.0,2.0,0.14,0.004,-0.03,-0.518,37.0,25.93,0.0,18.0,3880.0,13.0,-0.49,0.01,-0.95,-0.35,1.46,1.21,0.7,600.0,,,0.0,1.0,1.0,100.0
3540,1,walk,walk,19839,,19839.0,20.0,2.0,6.0,2.0,0.14,0.004,0.1,-0.512,37.0,25.93,0.0,18.0,3880.0,13.0,-0.49,0.01,-0.95,-0.35,1.45,1.22,0.68,600.0,,,0.0,1.0,1.0,100.0
3580,1,walk,walk,19840,,19840.0,20.0,2.0,6.0,2.0,0.14,0.004,0.057,-0.558,37.0,25.93,0.0,18.0,3880.0,13.0,-0.49,0.01,-0.95,-0.35,1.44,1.23,0.67,600.0,,,0.0,1.0,1.0,100.0
3600,1,walk,walk,19841,,19841.0,20.0,2.0,6.0,2.0,0.14,0.004,0.041,-0.504,37.0,25.93,0.0,18.0,3880.0,13.0,-0.49,0.01,-0.95,-0.35,1.42,1.24,0.66,600.0,,,0.0,1.0,1.0,100.0
3620,1,walk,walk,19842,,19842.0,20.0,2.0,6.0,2.0,0.14,0.004,0.019,-0.504,37.0,25.93,0.0,18.0,3880.0,13.0,-0.49,0.01,-0.95,-0.35,1.41,1.24,0.65,600.0,,,0.0,1.0,1.0,100.0
3620,1,walk,walk,19843,,19843.0,20.0,2.0,6.0,2.0,0.14,0.004,-0.057,-0.513,37.0,25.93,0.0,18.0,3880.0,13.0,-0.49,0.01,-0.95,-0.35,1.39,1.25,0.64,600.0,,,0.0,1.0,1.0,100.0
3640,1,walk,walk,19844,,19844.0,20.0,2.0,6.0,2.0,0.14,0.004,0.042,-0.504,37.0,25.93,0.0,18.0,3880.0,13.0,-0.49,0.01,-0.95,-0.35,1.39,1.25,0.64,600.0,,,0.0,1.0,1.0,100.0
3660,1,walk,walk,19845,,19845.0,20.0,2.0,6.0,2.0,0.14,0.004,0.042,-0.508,37.0,25.93,0.0,18.0,3880.0,13.0,-0.49,0.01,-0.95,-0.35,1.39,1.23,0.63,600.0,,,0.0,1.0,1.0,100.0
3700,1,walk,walk,19846,,19846.0,20.0,2.0,6.0,2.0,0.15,0.004,0.041,-0.538,37.0,25.93,0.0,18.0,3880.0,13.0,-0.49,0.01,-0.95,-0.35,1.39,1.21,0.63,600.0,,,0.0,1.0,1.0,100.0
3700,1,walk,walk,19847,,19847.0,20.0,2.0,6.0,2.0,0.15,0.004,0.037,-0.522,37.0,25.93,0.0,18.0,3880.0,13.0,-0.48,0.01,-0.95,-0.35,1.4,1.17,0.63,600.0,,,0.0,1.0,1.0,100.0
3720,1,walk,walk,19848,,19848.0,20.0,2.0,6.0,2.0,0.15,0.004,-0.034,-0.509,37.0,25.93,0.0,18.0,3880.0,13.0,-0.48,0.01,-0.95,-0.35,1.4,1.13,0.62,600.0,,,0.0,1.0,1.0,100.0
3780,1,walk,walk,19849,,19849.0,20.0,2.0,6.0,2.0,0.15,0.004,0.022,-0.501,37.0,25.93,0.0,18.0,3880.0,13.0,-0.48,0.01,-0.95,-0.35,1.41,1.09,0.62,600.0,,,0.0,1.0,1.0,100.0
3780,1,walk,walk,19850,,19850.0,20.0,2.0,6.0,2.0,0.15,0.004,-0.081,-0.529,37.0,25.93,0.0,18.0,3880.0,13.0,-0.48,0.01,-0.95,-0.35,1.41,1.05,0.61,600.0,,,0.0,1.0,1.0,100.0
3780,1,walk,walk,19851,,19851.0,20.0,2.0,6.0,2.0,0.15,0.004,-0.009,-0.512,37.0,25.93,0.0,18.0,3880.0,13.0,-0.47,0.01,-0.95,-0.35,1.41,1.03,0.6,600.0,,,0.0,1.0,1.0,100.0
3800,1,walk,walk,19852,,19852.0,20.0,2.0,6.0,2.0,0.15,0.004,-0.076,-0.522,37.0,25.93,0.0,18.0,3880.0,13.0,-0.47,0.01,-0.95,-0.35,1.41,1.02,0.6,600.0,,,0.0,1.0,1.0,100.0
3820,1,walk,walk,19853,,19853.0,20.0,2.0,6.0,2.0,0.15,0.004,-0.108,-0.512,37.0,25.93,0.0,18.0,3880.0,13.0,-0.47,0.01,-0.95,-0.35,1.41,1.01,0.59,600.0,,,0.0,1.0,1.0,100.0
3840,1,walk,walk,19854,,19854.0,20.0,2.0,6.0,2.0,0.15,0.004,-0.022,-0.564,37.0,25.93,0.0,18.0,3880.0,13.0,-0.47,0.01,-0.95,-0.35,1.41,1.0,0.59,600.0,,,0.0,1.0,1.0,100.0
3860,1,walk,walk,19855,,19855.0,20.0,2.0,6.0,2.0,0.15,0.004,-0.091,-0.541,37.0,25.93,0.0,18.0,3880.0,13.0,-0.47,0.01,-0.95,-0.35,1.41,0.99,0.59,600.0,,,0.0,1.0,1.0,100.0
3880,1,walk,walk,19856,,19856.0,20.0,2.0,6.0,2.0,0.15,0.004,0.019,-0.497,37.0,25.93,0.0,18.0,3880.0,13.0,-0.47,0.01,-0.95,-0.35,1.4,0.99,0.6,600.0,,,0.0,1.0,1.0,100.0
3940,1,walk,walk,19857,,19857.0,20.0,2.0,6.0,2.0,0.15,0.004,-0.042,-0.49,37.0,25.93,0.0,18.0,3880.0,13.0,-0.48,0.01,-0.95,-0.35,1.4,0.99,0.6,600.0,,,0.0,1.0,1.0,100.0
3940,1,walk,walk,19858,,19858.0,20.0,2.0,6.0,2.0,0.15,0.004,0.091,-0.512,37.0,25.93,0.0,18.0,3880.0,13.0,-0.48,0.01,-0.95,-0.35,1.39,0.98,0.61,600.0,,,0.0,1.0,1.0,100.0
3940,1,walk,walk,19859,,19859.0,20.0,2.0,6.0,2.0,0.15,0.004,0.023,-0.495,37.0,25.93,0.0,18.0,3880.0,13.0,-0.48,0.01,-0.95,-0.35,1.39,0.97,0.61,600.0,,,0.0,1.0,1.0,100.0
3960,1,walk,walk,19860,,19860.0,20.0,2.0,6.0,2.0,0.15,0.004,0.005,-0.47,37.0,25.93,0.0,18.0,3880.0,13.0,-0.48,0.01,-0.95,-0.35,1.38,0.97,0.62,600.0,,,0.0,1.0,1.0,100.0
3980,1,walk,walk,19861,,19861.0,20.0,2.0,6.0,2.0,0.15,0.004,-0.05,-0.518,37.0,25.9,0.0,18.0,3880.0,13.0,-0.48,0.01,-0.95,-0.35,1.38,0.97,0.63,600.0,,,0.0,1.0,1.0,100.0
4000,1,walk,walk,19862,,19862.0,20.0,2.0,6.0,2.0,0.14,0.004,0.126,-0.531,37.0,25.93,0.0,18.0,3880.0,13.0,-0.49,0.01,-0.95,-0.35,1.37,0.97,0.64,600.0,,,0.0,1.0,1.0,100.0
4020,1,walk,walk,19863,,19863.0,20.0,2.0,6.0,2.0,0.14,0.004,0.01,-0.526,37.0,25.93,0.0,18.0,3880.0,13.0,-0.49,0.01,-0.95,-0.35,1.37,0.97,0.65,600.0,,,0.0,1.0,1.0,100.0
4040,1,walk,walk,19864,,19864.0,20.0,2.0,6.0,2.0,0.14,0.004,0.014,-0.506,37.0,25.93,0.0,18.0,3880.0,13.0,-0.49,0.01,-0.95,-0.35,1.37,0.97,0.66,600.0,,,0.0,1.0,1.0,100.0
4080,1,walk,walk,19865,,19865.0,20.0,2.0,6.0,2.0,0.14,0.004,0.017,-0.513,37.0,25.93,0.0,18.0,3880.0,13.0,-0.48,0.01,-0.95,-0.35,1.37,0.96,0.66,600.0,,,0.0,1.0,1.0,100.0
4100,1,walk,walk,19866,,19866.0,20.0,2.0,6.0,2.0,0.14,0.004,-0.056,-0.487,37.0,25.93,0.0,18.0,3880.0,13.0,-0.48,0.01,-0.95,-0.35,1.37,0.96,0.66,600.0,,,0.0,1.0,1.0,100.0
4120,1,walk,walk,19867,,19867.0,20.0,2.0,6.0,2.0,0.14,0.004,0.017,-0.522,37.0,25.93,0.0,18.0,3880.0,13.0,-0.48,0.01,-0.95,-0.35,1.37,0.96,0.65,600.0,,,0.0,1.0,1.0,100.0
4120,1,walk,walk,19868,,19868.0,20.0,2.0,6.0,2.0,0.14,0.004,0.044,-0.55,37.0,25.93,0.0,18.0,3880.0,13.0,-0.48,0.01,-0.95,-0.35,1.37,0.96,0.64,600.0,,,0.0,1.0,1.0,100.0
4140,1,walk,walk,19869,,19869.0,20.0,2.0,6.0,2.0,0.14,0.004,-0.041,-0.561,37.0,25.93,0.0,18.0,3880.0,13.0,-0.48,0.01,-0.95,-0.35,1.37,0.96,0.63,600.0,,,0.0,1.0,1.0,100.0
4160,1,walk,walk,19870,,19870.0,20.0,2.0,6.0,2.0,0.14,0.004,0.036,-0.481,37.0,25.93,0.0,18.0,3880.0,13.0,-0.48,0.01,-0.95,-0.35,1.37,0.95,0.63,600.0,,,0.0,1.0,1.0,100.0
4180,1,walk,walk,19871,,19871.0,20.0,2.0,6.0,2.0,0.14,0.004,0.015,-0.556,37.0,25.93,0.0,18.0,3880.0,13.0,-0.49,0.01,-0.95,-0.35,1.37,0.95,0.64,600.0,,,0.0,1.0,1.0,100.0
4200,1,walk,walk,19872,,19872.0,20.0,2.0,6.0,2.0,0.14,0.004,-0.009,-0.544,37.0,25.93,0.0,18.0,3880.0,13.0,-0.49,0.01,-0.95,-0.35,1.37,0.94,0.67,600.0,,,0.0,1.0,1.0,100.0
4260,1,walk,walk,19873,,19873.0,20.0,2.0,6.0,2.0,0.14,0.004,0.028,-0.496,37.0,25.93,0.0,18.0,3880.0,13.0,-0.49,0.01,-0.95,-0.35,1.37,0.93,0.7,600.0,,,0.0,1.0,1.0,100.0
4260,1,walk,walk,19874,,19874.0,20.0,2.0,6.0,2.0,0.14,0.004,0.044,-0.513,37.0,25.93,0.0,18.0,3880.0,13.0,-0.49,0.01,-0.95,-0.35,1.37,0.93,0.74,600.0,,,0.0,1.0,1.0,100.0
4260,1,walk,walk,19875,,19875.0,20.0,2.0,6.0,2.0,0.14,0.004,0.042,-0.526,37.0,25.93,0.0,18.0,3880.0,13.0,-0.49,0.01,-0.95,-0.35,1.39,0.93,0.77,600.0,,,0.0,1.0,1.0,100.0
4280,1,walk,walk,19876,,19876.0,20.0,2.0,6.0,2.0,0.14,0.004,-0.03,-0.505,37.0,25.93,0.0,18.0,3880.0,13.0,-0.48,0.01,-0.95,-0.35,1.4,0.93,0.79,600.0,,,0.0,1.0,1.0,100.0
4300,1,walk,walk,19877,,19877.0,20.0,2.0,6.0,2.0,0.14,0.004,0.113,-0.538,37.0,25.93,0.0,18.0,3880.0,13.0,-0.48,0.01,-0.95,-0.35,1.42,0.94,0.79,600.0,,,0.0,1.0,1.0,100.0
4320,1,walk,walk,19878,,19878.0,20.0,2.0,6.0,2.0,0.14,0.004,0.022,-0.524,37.0,25.93,0.0,18.0,3880.0,13.0,-0.47,0.01,-0.95,-0.35,1.45,0.95,0.78,600.0,,,0.0,1.0,1.0,100.0
4340,1,walk,walk,19879,,19879.0,20.0,2.0,6.0,2.0,0.14,0.004,-0.076,-0.516,37.0,25.93,0.0,18.0,3880.0,13.0,-0.46,0.01,-0.95,-0.35,1.47,0.96,0.76,600.0,,,0.0,1.0,1.0,100.0
4360,1,walk,walk,19880,,19880.0,20.0,2.0,6.0,2.0,0.14,0.004,-0.011,-0.543,37.0,25.93,0.0,18.0,3880.0,13.0,-0.47,0.01,-0.95,-0.35,1.49,0.98,0.73,600.0,,,0.0,1.0,1.0,100.0
4380,1,walk,walk,19881,,19881.0,20.0,2.0,6.0,2.0,0.15,0.004,-0.05,-0.517,37.0,25.93,0.0,18.0,3880.0,13.0,-0.47,0.01,-0.95,-0.35,1.5,0.99,0.71,600.0,,,0.0,1.0,1.0,100.0
4420,1,walk,walk,19882,,19882.0,20.0,2.0,6.0,2.0,0.15,0.004,0.001,-0.509,37.0,25.93,0.0,18.0,3880.0,13.0,-0.48,0.01,-0.95,-0.35,1.5,1.0,0.71,600.0,,,0.0,1.0,1.0,100.0
4420,1,walk,walk,19883,,19883.0,20.0,2.0,6.0,2.0,0.15,0.004,-0.084,-0.495,37.0,25.93,0.0,18.0,3880.0,13.0,-0.49,0.01,-0.95,-0.35,1.5,1.01,0.72,600.0,,,0.0,1.0,1.0,100.0
4440,1,walk,walk,19884,,19884.0,20.0,2.0,6.0,2.0,0.15,0.004,0.042,-0.509,37.0,25.93,0.0,18.0,3880.0,13.0,-0.5,0.01,-0.95,-0.35,1.51,1.01,0.75,600.0,,,0.0,1.0,1.0,100.0
4460,1,walk,walk,19885,,19885.0,20.0,2.0,6.0,2.0,0.15,0.004,0.038,-0.51,37.0,25.93,0.0,18.0,3880.0,13.0,-0.51,0.01,-0.95,-0.35,1.51,1.01,0.78,600.0,,,0.0,1.0,1.0,100.0
4480,1,walk,walk,19886,,19886.0,20.0,2.0,6.0,2.0,0.15,0.004,-0.041,-0.494,37.0,25.93,0.0,18.0,3880.0,13.0,-0.51,0.01,-0.95,-0.35,1.53,0.99,0.81,600.0,,,0.0,1.0,1.0,100.0
4500,1,walk,walk,19887,,19887.0,20.0,2.0,6.0,2.0,0.15,0.004,-0.018,-0.504,37.0,25.93,0.0,18.0,3880.0,13.0,-0.51,0.01,-0.95,-0.35,1.56,0.97,0.82,600.0,,,0.0,1.0,1.0,100.0
4520,1,walk,walk,19888,,19888.0,20.0,2.0,6.0,2.0,0.16,0.004,-0.015,-0.549,37.0,25.93,0.0,18.0,3880.0,13.0,-0.5,0.01,-0.95,-0.35,1.59,0.95,0.82,600.0,,,0.0,1.0,1.0,100.0
4580,1,walk,walk,19889,,19889.0,20.0,2.0,6.0,2.0,0.16,0.004,-0.003,-0.553,37.0,25.93,0.0,18.0,3880.0,13.0,-0.49,0.01,-0.95,-0.35,1.62,0.94,0.8,600.0,,,0.0,1.0,1.0,100.0
4580,1,walk,walk,19890,,19890.0,20.0,2.0,6.0,2.0,0.16,0.004,-0.048,-0.557,37.0,25.93,0.0,18.0,3880.0,13.0,-0.48,0.01,-0.95,-0.35,1.64,0.93,0.76,600.0,,,0.0,1.0,1.0,100.0
4600,1,walk,walk,19891,,19891.0,20.0,2.0,6.0,2.0,0.16,0.004,0.069,-0.522,37.0,25.93,0.0,18.0,3880.0,13.0,-0.47,0.01,-0.95,-0.35,1.65,0.94,0.73,600.0,,,0.0,1.0,1.0,100.0
4600,1,walk,walk,19892,,19892.0,20.0,2.0,6.0,2.0,0.16,0.004,-0.017,-0.51,37.0,25.93,0.0,18.0,3880.0,13.0,-0.47,0.01,-0.95,-0.35,1.64,0.96,0.7,600.0,,,0.0,1.0,1.0,100.0
4620,1,walk,walk,19893,,19893.0,20.0,2.0,6.0,2.0,0.16,0.004,-0.057,-0.54,37.0,25.93,0.0,18.0,3880.0,13.0,-0.48,0.01,-0.95,-0.35,1.61,0.98,0.68,600.0,,,0.0,1.0,1.0,100.0
4680,1,walk,walk,19894,,19894.0,20.0,2.0,6.0,2.0,0.17,0.004,0.007,-0.495,37.0,25.93,0.0,18.0,3880.0,13.0,-0.48,0.01,-0.95,-0.35,1.58,0.99,0.68,600.0,,,0.0,1.0,1.0,100.0
4700,1,walk,walk,19895,,19895.0,20.0,2.0,6.0,2.0,0.17,0.004,-0.005,-0.512,37.0,25.93,0.0,18.0,3880.0,13.0,-0.49,0.01,-0.95,-0.35,1.54,1.01,0.68,600.0,,,0.0,1.0,1.0,100.0
4700,1,walk,walk,19896,,19896.0,20.0,2.0,6.0,2.0,0.17,0.004,-0.001,-0.521,37.0,25.93,0.0,18.0,3880.0,13.0,-0.5,0.01,-0.95,-0.35,1.51,1.02,0.69,600.0,,,0.0,1.0,1.0,100.0
4740,1,walk,walk,19897,,19897.0,20.0,2.0,6.0,2.0,0.17,0.004,0.006,-0.529,37.0,25.93,0.0,18.0,3880.0,13.0,-0.5,0.01,-0.95,-0.35,1.5,1.02,0.7,600.0,,,0.0,1.0,1.0,100.0
4740,1,walk,walk,19898,,19898.0,20.0,2.0,6.0,2.0,0.17,0.004,0.005,-0.53,37.0,25.93,0.0,18.0,3880.0,13.0,-0.5,0.01,-0.95,-0.35,1.49,1.02,0.71,600.0,,,0.0,1.0,1.0,100.0
4740,1,walk,walk,19899,,19899.0,20.0,2.0,6.0,2.0,0.17,0.004,-0.113,-0.508,37.0,25.93,0.0,18.0,3880.0,13.0,-0.49,0.01,-0.95,-0.35,1.5,1.01,0.7,600.0,,,0.0,1.0,1.0,100.0
4760,1,walk,walk,19900,,19900.0,20.0,2.0,6.0,2.0,0.17,0.004,-0.006,-0.544,37.0,25.93,0.0,18.0,3880.0,13.0,-0.49,0.01,-0.95,-0.35,1.52,1.0,0.68,600.0,,,0.0,1.0,1.0,100.0
4780,1,walk,walk,19901,,19901.0,20.0,2.0,6.0,2.0,0.18,0.004,-0.022,-0.536,37.0,25.93,0.0,18.0,3880.0,13.0,-0.49,0.01,-0.95,-0.35,1.54,0.99,0.66,600.0,,,0.0,1.0,1.0,100.0
4800,1,walk,walk,19902,,19902.0,20.0,2.0,6.0,2.0,0.18,0.004,0.066,-0.5,37.0,25.93,0.0,18.0,3880.0,13.0,-0.49,0.01,-0.95,-0.35,1.56,0.97,0.65,600.0,,,0.0,1.0,1.0,100.0
4840,1,walk,walk,19903,,19903.0,20.0,2.0,6.0,2.0,0.18,0.004,0.009,-0.518,37.0,25.93,0.0,18.0,3880.0,13.0,-0.49,0.01,-0.95,-0.35,1.56,0.96,0.64,600.0,,,0.0,1.0,1.0,100.0
4860,1,walk,walk,19904,,19904.0,20.0,2.0,6.0,2.0,0.18,0.004,-0.019,-0.501,37.0,25.93,0.0,18.0,3880.0,13.0,-0.5,0.01,-0.95,-0.35,1.56,0.94,0.65,600.0,,,0.0,1.0,1.0,100.0
4880,1,walk,walk,19905,,19905.0,20.0,2.0,6.0,2.0,0.18,0.004,-0.025,-0.502,37.0,25.93,0.0,18.0,3880.0,13.0,-0.5,0.01,-0.95,-0.35,1.56,0.93,0.67,600.0,,,0.0,1.0,1.0,100.0
4900,1,walk,walk,19906,,19906.0,20.0,2.0,6.0,2.0,0.18,0.004,0.005,-0.478,37.0,25.93,0.0,18.0,3880.0,13.0,-0.51,0.01,-0.95,-0.35,1.55,0.92,0.7,600.0,,,0.0,1.0,1.0,100.0
4900,1,walk,walk,19907,,19907.0,20.0,2.0,6.0,2.0,0.18,0.004,0.005,-0.505,37.0,25.93,0.0,18.0,3880.0,13.0,-0.51,0.01,-0.95,-0.35,1.56,0.92,0.73,600.0,,,0.0,1.0,1.0,100.0
4920,1,walk,walk,19908,,19908.0,20.0,2.0,6.0,2.0,0.18,0.004,-0.073,-0.486,37.0,25.93,0.0,18.0,3880.0,13.0,-0.5,0.01,-0.95,-0.35,1.57,0.92,0.75,600.0,,,0.0,1.0,1.0,100.0
4940,1,walk,walk,19909,,19909.0,20.0,2.0,6.0,2.0,0.18,0.004,0.014,-0.499,37.0,25.93,0.0,18.0,3880.0,13.0,-0.49,0.01,-0.95,-0.35,1.58,0.93,0.75,600.0,,,0.0,1.0,1.0,100.0
4960,1,walk,walk,19910,,19910.0,20.0,2.0,6.0,2.0,0.18,0.004,0.052,-0.524,37.0,25.93,0.0,18.0,3880.0,13.0,-0.47,0.01,-0.95,-0.35,1.61,0.95,0.73,600.0,,,0.0,1.0,1.0,100.0
4980,1,walk,walk,19911,,19911.0,20.0,2.0,6.0,2.0,0.18,0.004,0.056,-0.588,37.0,25.93,0.0,18.0,3880.0,13.0,-0.46,0.01,-0.95,-0.35,1.63,0.98,0.69,600.0,,,0.0,1.0,1.0,100.0
5000,1,walk,walk,19912,,19912.0,20.0,2.0,6.0,2.0,0.18,0.004,-0.049,-0.525,37.0,25.93,0.0,18.0,3880.0,13.0,-0.45,0.01,-0.95,-0.35,1.64,1.0,0.65,600.0,,,0.0,1.0,1.0,100.0
5040,1,walk,walk,19913,,19913.0,20.0,2.0,6.0,2.0,0.18,0.004,0.003,-0.562,37.0,25.93,0.0,18.0,3880.0,13.0,-0.45,0.01,-0.95,-0.35,1.64,1.02,0.61,600.0,,,0.0,1.0,1.0,100.0
5060,1,walk,walk,19914,,19914.0,20.0,2.0,6.0,2.0,0.18,0.004,-0.036,-0.513,37.0,25.93,0.0,18.0,3880.0,13.0,-0.45,0.01,-0.95,-0.35,1.62,1.03,0.6,600.0,,,0.0,1.0,1.0,100.0
5100,1,walk,walk,19915,,19915.0,20.0,2.0,6.0,2.0,0.18,0.004,-0.057,-0.528,37.0,25.93,0.0,18.0,3880.0,13.0,-0.47,0.01,-0.95,-0.35,1.6,1.03,0.6,600.0,,,0.0,1.0,1.0,100.0
5100,1,walk,walk,19916,,19916.0,20.0,2.0,6.0,2.0,0.18,0.004,0.073,-0.491,37.0,25.93,0.0,18.0,3880.0,13.0,-0.48,0.01,-0.95,-0.35,1.57,1.01,0.64,600.0,,,0.0,1.0,1.0,100.0
5100,1,walk,walk,19917,,19917.0,20.0,2.0,6.0,2.0,0.18,0.004,0.023,-0.507,37.0,25.93,0.0,18.0,3880.0,13.0,-0.49,0.01,-0.95,-0.35,1.55,0.99,0.68,600.0,,,0.0,1.0,1.0,100.0
5140,1,walk,walk,19918,,19918.0,20.0,2.0,6.0,2.0,0.18,0.004,-0.029,-0.534,37.0,25.93,0.0,18.0,3880.0,13.0,-0.5,0.01,-0.95,-0.35,1.53,0.97,0.73,600.0,,,0.0,1.0,1.0,100.0
5140,1,walk,walk,19919,,19919.0,20.0,2.0,6.0,2.0,0.18,0.004,-0.017,-0.503,37.0,25.93,0.0,18.0,3880.0,13.0,-0.51,0.01,-0.95,-0.35,1.53,0.95,0.77,600.0,,,0.0,1.0,1.0,100.0
5160,1,walk,walk,19920,,19920.0,20.0,2.0,6.0,2.0,0.18,0.004,-0.007,-0.493,37.0,25.93,0.0,18.0,3880.0,13.0,-0.5,0.01,-0.95,-0.35,1.55,0.95,0.79,600.0,,,0.0,1.0,1.0,100.0
5220,1,walk,walk,19921,,19921.0,20.0,2.0,6.0,2.0,0.18,0.004,0.034,-0.526,37.0,25.93,0.0,18.0,3880.0,13.0,-0.5,0.01,-0.95,-0.35,1.57,0.95,0.78,600.0,,,0.0,1.0,1.0,100.0
5220,1,walk,walk,19922,,19922.0,20.0,2.0,6.0,2.0,0.18,0.004,-0.019,-0.581,37.0,25.93,0.0,18.0,3880.0,13.0,-0.49,0.01,-0.95,-0.35,1.58,0.97,0.76,600.0,,,0.0,1.0,1.0,100.0
5220,1,walk,walk,19923,,19923.0,20.0,2.0,6.0,2.0,0.18,0.004,-0.006,-0.549,37.0,25.93,0.0,18.0,3880.0,13.0,-0.48,0.01,-0.95,-0.35,1.59,0.99,0.73,600.0,,,0.0,1.0,1.0,100.0
5240,1,walk,walk,19924,,19924.0,20.0,2.0,6.0,2.0,0.18,0.004,0.006,-0.553,37.0,25.93,0.0,18.0,3880.0,13.0,-0.48,0.01,-0.95,-0.35,1.58,1.02,0.69,600.0,,,0.0,1.0,1.0,100.0
5280,1,walk,walk,19925,,19925.0,20.0,2.0,6.0,2.0,0.18,0.004,-0.01,-0.559,37.0,25.93,0.0,18.0,3880.0,13.0,-0.48,0.01,-0.95,-0.35,1.55,1.05,0.66,600.0,,,0.0,1.0,1.0,100.0
5300,1,walk,walk,19926,,19926.0,20.0,2.0,6.0,2.0,0.18,0.004,-0.054,-0.558,37.0,25.93,0.0,18.0,3880.0,13.0,-0.49,0.01,-0.95,-0.35,1.51,1.06,0.64,600.0,,,0.0,1.0,1.0,100.0
5320,1,walk,walk,19927,,19927.0,20.0,2.0,6.0,2.0,0.18,0.004,-0.041,-0.503,37.0,25.93,0.0,18.0,3880.0,13.0,-0.5,0.01,-0.95,-0.35,1.45,1.06,0.64,600.0,,,0.0,1.0,1.0,100.0
5340,1,walk,walk,19928,,19928.0,20.0,2.0,6.0,2.0,0.18,0.004,-0.017,-0.53,37.0,25.93,0.0,18.0,3880.0,13.0,-0.5,0.01,-0.95,-0.35,1.4,1.05,0.64,600.0,,,0.0,1.0,1.0,100.0
5360,1,walk,walk,19929,,19929.0,20.0,2.0,6.0,2.0,0.18,0.004,-0.075,-0.501,37.0,25.93,0.0,18.0,3880.0,13.0,-0.51,0.01,-0.95,-0.35,1.36,1.04,0.66,600.0,,,0.0,1.0,1.0,100.0
5360,1,walk,walk,19930,,19930.0,20.0,2.0,6.0,2.0,0.18,0.004,0.093,-0.549,37.0,25.93,0.0,18.0,3880.0,13.0,-0.51,0.01,-0.95,-0.35,1.32,1.02,0.67,600.0,,,0.0,1.0,1.0,100.0
5380,1,walk,walk,19931,,19931.0,20.0,2.0,6.0,2.0,0.18,0.004,-0.109,-0.544,37.0,25.93,0.0,18.0,3880.0,13.0,-0.51,0.01,-0.95,-0.35,1.31,1.01,0.68,600.0,,,0.0,1.0,1.0,100.0
5400,1,walk,walk,19932,,19932.0,20.0,2.0,6.0,2.0,0.18,0.004,0.042,-0.504,37.0,25.93,0.0,18.0,3880.0,13.0,-0.51,0.01,-0.95,-0.35,1.31,1.01,0.69,600.0,,,0.0,1.0,1.0,100.0
5420,1,walk,walk,19933,,19933.0,20.0,2.0,6.0,2.0,0.18,0.004,0.041,-0.527,37.0,25.93,0.0,18.0,3880.0,13.0,-0.5,0.01,-0.95,-0.35,1.32,1.01,0.69,600.0,,,0.0,1.0,1.0,100.0
5440,1,walk,walk,19934,,19934.0,20.0,2.0,6.0,2.0,0.18,0.004,-0.021,-0.521,37.0,25.93,0.0,18.0,3880.0,13.0,-0.5,0.01,-0.95,-0.35,1.33,1.02,0.68,600.0,,,0.0,1.0,1.0,100.0
5460,1,walk,walk,19935,,19935.0,20.0,2.0,6.0,2.0,0.18,0.004,0.072,-0.534,37.0,25.93,0.0,18.0,3880.0,13.0,-0.49,0.01,-0.95,-0.35,1.35,1.02,0.67,600.0,,,0.0,1.0,1.0,100.0
5500,1,walk,walk,19936,,19936.0,20.0,2.0,6.0,2.0,0.18,0.004,0.019,-0.485,37.0,25.93,0.0,18.0,3880.0,13.0,-0.49,0.01,-0.95,-0.35,1.36,1.02,0.65,600.0,,,0.0,1.0,1.0,100.0
5520,1,walk,walk,19937,,19937.0,20.0,2.0,6.0,2.0,0.18,0.004,-0.009,-0.52,37.0,25.93,0.0,18.0,3880.0,13.0,-0.48,0.01,-0.95,-0.35,1.37,1.01,0.64,600.0,,,0.0,1.0,1.0,100.0
5540,1,walk,walk,19938,,19938.0,20.0,2.0,6.0,2.0,0.18,0.004,0.072,-0.507,37.0,25.93,0.0,18.0,3880.0,13.0,-0.48,0.01,-0.95,-0.35,1.36,0.99,0.63,600.0,,,0.0,1.0,1.0,100.0
5540,1,walk,walk,19939,,19939.0,20.0,2.0,6.0,2.0,0.18,0.004,-0.048,-0.517,37.0,25.93,0.0,18.0,3880.0,13.0,-0.48,0.01,-0.95,-0.35,1.36,0.98,0.63,600.0,,,0.0,1.0,1.0,100.0
5600,1,walk,walk,19940,,19940.0,20.0,2.0,6.0,2.0,0.18,0.004,-0.009,-0.513,37.0,25.93,0.0,18.0,3880.0,13.0,-0.49,0.01,-0.95,-0.35,1.35,0.95,0.64,600.0,,,0.0,1.0,1.0,100.0
5600,1,walk,walk,19941,,19941.0,20.0,2.0,6.0,2.0,0.18,0.004,0.112,-0.52,37.0,25.93,0.0,18.0,3880.0,13.0,-0.49,0.01,-0.95,-0.35,1.34,0.93,0.65,600.0,,,0.0,1.0,1.0,100.0
5620,1,walk,walk,19942,,19942.0,20.0,2.0,6.0,2.0,0.18,0.004,-0.036,-0.487,37.0,25.9,0.0,18.0,3880.0,13.0,-0.49,0.01,-0.95,-0.35,1.35,0.91,0.67,600.0,,,0.0,1.0,1.0,100.0
5620,1,walk,walk,19943,,19943.0,20.0,2.0,6.0,2.0,0.18,0.004,-0.034,-0.491,37.0,25.93,0.0,18.0,3880.0,13.0,-0.49,0.01,-0.95,-0.35,1.36,0.89,0.69,600.0,,,0.0,1.0,1.0,100.0
5640,1,walk,walk,19944,,19944.0,20.0,2.0,6.0,2.0,0.18,0.004,-0.092,-0.527,37.0,25.93,0.0,18.0,3880.0,13.0,-0.48,0.01,-0.95,-0.35,1.38,0.87,0.7,600.0,,,0.0,1.0,1.0,100.0
5660,1,walk,walk,19945,,19945.0,20.0,2.0,6.0,2.0,0.18,0.004,-0.002,-0.521,37.0,25.93,0.0,18.0,3880.0,13.0,-0.48,0.01,-0.95,-0.35,1.42,0.86,0.7,600.0,,,0.0,1.0,1.0,100.0
5700,1,walk,walk,19946,,19946.0,20.0,2.0,6.0,2.0,0.18,0.004,0.038,-0.506,37.0,25.93,0.0,18.0,3880.0,13.0,-0.47,0.01,-0.95,-0.35,1.46,0.86,0.69,600.0,,,0.0,1.0,1.0,100.0
5720,1,walk,walk,19947,,19947.0,20.0,2.0,6.0,2.0,0.18,0.004,0.041,-0.505,37.0,25.93,0.0,18.0,3880.0,13.0,-0.47,0.01,-0.95,-0.35,1.5,0.86,0.67,600.0,,,0.0,1.0,1.0,100.0
5720,1,walk,walk,19948,,19948.0,20.0,2.0,6.0,2.0,0.18,0.004,0.007,-0.589,37.0,25.93,0.0,18.0,3880.0,13.0,-0.47,0.01,-0.95,-0.35,1.53,0.87,0.66,600.0,,,0.0,1.0,1.0,100.0
5740,1,walk,walk,19949,,19949.0,20.0,2.0,6.0,2.0,0.18,0.004,0.01,-0.557,37.0,25.93,0.0,18.0,3880.0,13.0,-0.47,0.01,-0.95,-0.35,1.54,0.88,0.64,600.0,,,0.0,1.0,1.0,100.0
5760,1,walk,walk,19950,,19950.0,20.0,2.0,6.0,2.0,0.18,0.004,0.058,-0.518,37.0,25.93,0.0,18.0,3880.0,13.0,-0.48,0.01,-0.95,-0.35,1.54,0.89,0.64,600.0,,,0.0,1.0,1.0,100.0
5800,1,walk,walk,19951,,19951.0,20.0,2.0,6.0,2.0,0.18,0.004,-0.042,-0.534,37.0,25.93,0.0,18.0,3880.0,13.0,-0.49,0.01,-0.95,-0.35,1.53,0.9,0.63,600.0,,,0.0,1.0,1.0,100.0
5800,1,walk,walk,19952,,19952.0,20.0,2.0,6.0,2.0,0.18,0.004,-0.025,-0.552,37.0,25.93,0.0,18.0,3880.0,13.0,-0.5,0.01,-0.95,-0.35,1.51,0.9,0.64,600.0,,,0.0,1.0,1.0,100.0
5820,1,walk,walk,19953,,19953.0,20.0,2.0,6.0,2.0,0.18,0.004,-0.034,-0.545,37.0,25.93,0.0,18.0,3880.0,13.0,-0.51,0.01,-0.95,-0.35,1.49,0.89,0.64,600.0,,,0.0,1.0,1.0,100.0
5880,1,walk,walk,19954,,19954.0,20.0,2.0,6.0,2.0,0.18,0.004,-0.187,-0.516,37.0,25.93,0.0,18.0,3880.0,13.0,-0.51,0.01,-0.95,-0.35,1.49,0.89,0.65,600.0,,,0.0,1.0,1.0,100.0
5880,1,walk,walk,19955,,19955.0,20.0,2.0,6.0,2.0,0.18,0.004,0.011,-0.522,37.0,25.93,0.0,18.0,3880.0,13.0,-0.52,0.01,-0.95,-0.35,1.49,0.89,0.65,600.0,,,0.0,1.0,1.0,100.0
5900,1,walk,walk,19956,,19956.0,20.0,2.0,6.0,2.0,0.18,0.004,-0.066,-0.521,37.0,25.93,0.0,18.0,3880.0,13.0,-0.52,0.01,-0.95,-0.35,1.51,0.88,0.65,600.0,,,0.0,1.0,1.0,100.0
5920,1,walk,walk,19957,,19957.0,20.0,2.0,6.0,2.0,0.18,0.004,0.037,-0.526,37.0,25.93,0.0,18.0,3880.0,13.0,-0.53,0.01,-0.95,-0.35,1.54,0.88,0.66,600.0,,,0.0,1.0,1.0,100.0
5920,1,walk,walk,19958,,19958.0,20.0,2.0,6.0,2.0,0.18,0.004,0.006,-0.506,37.0,25.93,0.0,18.0,3880.0,13.0,-0.53,0.01,-0.95,-0.35,1.56,0.87,0.67,600.0,,,0.0,1.0,1.0,100.0
5960,1,walk,walk,19959,,19959.0,20.0,2.0,6.0,2.0,0.18,0.004,-0.03,-0.556,37.0,25.93,0.0,18.0,3880.0,13.0,-0.53,0.01,-0.95,-0.35,1.57,0.86,0.68,600.0,,,0.0,1.0,1.0,100.0
5980,1,walk,walk,19960,,19960.0,20.0,2.0,6.0,2.0,0.18,0.004,-0.029,-0.512,37.0,25.93,0.0,18.0,3880.0,13.0,-0.54,0.01,-0.95,-0.35,1.54,0.85,0.7,600.0,,,0.0,1.0,1.0,100.0
6020,1,walk,walk,19961,,19961.0,20.0,2.0,6.0,2.0,0.18,0.004,-0.002,-0.532,37.0,25.93,0.0,18.0,3880.0,13.0,-0.54,0.01,-0.95,-0.35,1.49,0.85,0.72,600.0,,,0.0,1.0,1.0,100.0
6080,1,walk,walk,19962,,19962.0,20.0,2.0,6.0,2.0,0.17,0.004,-0.061,-0.518,37.0,25.93,0.0,18.0,3880.0,13.0,-0.54,0.01,-0.95,-0.34,1.4,0.85,0.73,600.0,,,0.0,1.0,1.0,100.0
6080,1,walk,walk,19963,,19963.0,20.0,2.0,6.0,2.0,0.17,0.004,-0.007,-0.512,37.0,25.93,0.0,18.0,3880.0,13.0,-0.53,0.01,-0.95,-0.34,1.31,0.86,0.73,600.0,,,0.0,1.0,1.0,100.0
6080,1,walk,walk,19964,,19964.0,20.0,2.0,6.0,2.0,0.17,0.004,0.002,-0.5,37.0,25.93,0.0,18.0,3880.0,13.0,-0.53,0.01,-0.95,-0.34,1.21,0.87,0.72,600.0,,,0.0,1.0,1.0,100.0
6080,1,walk,walk,19965,,19965.0,20.0,2.0,6.0,2.0,0.17,0.004,-0.045,-0.519,37.0,25.93,0.0,18.0,3880.0,13.0,-0.52,0.01,-0.95,-0.34,1.14,0.89,0.7,600.0,,,0.0,1.0,1.0,100.0
6080,1,walk,walk,19966,,19966.0,20.0,2.0,6.0,2.0,0.17,0.004,0.013,-0.508,37.0,25.93,0.0,18.0,3880.0,13.0,-0.51,0.01,-0.95,-0.35,1.09,0.91,0.66,600.0,,,0.0,1.0,1.0,100.0
6100,1,walk,walk,19967,,19967.0,20.0,2.0,6.0,2.0,0.17,0.004,-0.065,-0.516,37.0,25.93,0.0,18.0,3880.0,13.0,-0.51,0.01,-0.95,-0.35,1.08,0.93,0.62,600.0,,,0.0,1.0,1.0,100.0
6120,1,walk,walk,19968,,19968.0,20.0,2.0,6.0,2.0,0.17,0.004,-0.026,-0.521,37.0,25.93,0.0,18.0,3880.0,13.0,-0.51,0.01,-0.95,-0.35,1.12,0.95,0.59,600.0,,,0.0,1.0,1.0,100.0
6140,1,walk,walk,19969,,19969.0,20.0,2.0,6.0,2.0,0.17,0.004,0.062,-0.523,37.0,25.93,0.0,18.0,3880.0,13.0,-0.52,0.01,-0.95,-0.35,1.19,0.97,0.57,600.0,,,0.0,1.0,1.0,100.0
6160,1,walk,walk,19970,,19970.0,20.0,2.0,6.0,2.0,0.17,0.004,0.064,-0.497,37.0,25.9,0.0,18.0,3880.0,13.0,-0.52,0.01,-0.95,-0.35,1.3,0.98,0.56,600.0,,,0.0,1.0,1.0,100.0
6180,1,walk,walk,19971,,19971.0,20.0,2.0,6.0,2.0,0.17,0.004,-0.021,-0.489,37.0,25.93,0.0,18.0,3880.0,13.0,-0.53,0.01,-0.95,-0.35,1.42,0.99,0.57,600.0,,,0.0,1.0,1.0,100.0
6220,1,walk,walk,19972,,19972.0,20.0,2.0,6.0,2.0,0.17,0.004,0.028,-0.551,37.0,25.93,0.0,18.0,3880.0,13.0,-0.54,0.01,-0.95,-0.35,1.54,1.0,0.6,600.0,,,0.0,1.0,1.0,100.0
6220,1,walk,walk,19973,,19973.0,20.0,2.0,6.0,2.0,0.17,0.004,-0.026,-0.506,37.0,25.93,0.0,18.0,3880.0,13.0,-0.54,0.01,-0.95,-0.35,1.64,1.01,0.64,600.0,,,0.0,1.0,1.0,100.0
6240,1,walk,walk,19974,,19974.0,20.0,2.0,6.0,2.0,0.17,0.004,0.013,-0.494,37.0,25.93,0.0,18.0,3880.0,13.0,-0.54,0.01,-0.95,-0.35,1.72,1.02,0.68,600.0,,,0.0,1.0,1.0,100.0
6260,1,walk,walk,19975,,19975.0,20.0,2.0,6.0,2.0,0.17,0.004,0.049,-0.512,37.0,25.93,0.0,18.0,3880.0,13.0,-0.53,0.01,-0.95,-0.35,1.77,1.02,0.72,600.0,,,0.0,1.0,1.0,100.0
6300,1,walk,walk,19976,,19976.0,20.0,2.0,6.0,2.0,0.16,0.004,-0.046,-0.521,37.0,25.93,0.0,18.0,3880.0,13.0,-0.52,0.01,-0.95,-0.35,1.78,1.02,0.74,600.0,,,0.0,1.0,1.0,100.0
6320,1,walk,walk,19977,,19977.0,20.0,2.0,6.0,2.0,0.16,0.004,-0.03,-0.551,37.0,25.93,0.0,18.0,3880.0,13.0,-0.51,0.01,-0.95,-0.35,1.76,1.02,0.74,600.0,,,0.0,1.0,1.0,100.0
6340,1,walk,walk,19978,,19978.0,20.0,2.0,6.0,2.0,0.16,0.004,0.084,-0.53,37.0,25.93,0.0,18.0,3880.0,13.0,-0.5,0.01,-0.95,-0.35,1.72,1.0,0.72,600.0,,,0.0,1.0,1.0,100.0
6360,1,walk,walk,19979,,19979.0,20.0,2.0,6.0,2.0,0.16,0.004,-0.053,-0.519,37.0,25.93,0.0,18.0,3880.0,13.0,-0.49,0.01,-0.95,-0.34,1.67,0.98,0.7,600.0,,,0.0,1.0,1.0,100.0
6360,1,walk,walk,19980,,19980.0,20.0,2.0,6.0,2.0,0.16,0.004,0.033,-0.508,37.0,25.93,0.0,18.0,3880.0,13.0,-0.49,0.01,-0.95,-0.34,1.6,0.96,0.66,600.0,,,0.0,1.0,1.0,100.0
6400,1,walk,walk,19981,,19981.0,20.0,2.0,6.0,2.0,0.16,0.004,-0.06,-0.525,37.0,25.93,0.0,18.0,3880.0,13.0,-0.49,0.01,-0.95,-0.34,1.53,0.93,0.63,600.0,,,0.0,1.0,1.0,100.0
6420,1,walk,walk,19982,,19982.0,20.0,2.0,6.0,2.0,0.16,0.004,-0.044,-0.507,37.0,25.93,0.0,18.0,3880.0,13.0,-0.49,0.01,-0.95,-0.34,1.45,0.9,0.62,600.0,,,0.0,1.0,1.0,100.0
6420,1,walk,walk,19983,,19983.0,20.0,2.0,6.0,2.0,0.16,0.004,0.003,-0.495,37.0,25.93,0.0,18.0,3880.0,13.0,-0.5,0.01,-0.95,-0.34,1.37,0.87,0.6,600.0,,,0.0,1.0,1.0,100.0
6440,1,walk,walk,19984,,19984.0,20.0,2.0,6.0,2.0,0.16,0.004,0.023,-0.505,37.0,25.93,0.0,18.0,3880.0,13.0,-0.5,0.01,-0.95,-0.34,1.29,0.84,0.6,600.0,,,0.0,1.0,1.0,100.0
6460,1,walk,walk,19985,,19985.0,20.0,2.0,6.0,2.0,0.16,0.004,0.061,-0.51,37.0,25.93,0.0,18.0,3880.0,13.0,-0.5,0.01,-0.95,-0.34,1.22,0.81,0.6,600.0,,,0.0,1.0,1.0,100.0
6480,1,walk,walk,19986,,19986.0,20.0,2.0,6.0,2.0,0.16,0.004,0.023,-0.544,37.0,25.93,0.0,18.0,3880.0,13.0,-0.5,0.01,-0.95,-0.34,1.16,0.8,0.59,600.0,,,0.0,1.0,1.0,100.0
6540,1,walk,walk,19987,,19987.0,20.0,2.0,6.0,2.0,0.16,0.004,-0.04,-0.499,37.0,25.93,0.0,18.0,3880.0,13.0,-0.5,0.01,-0.95,-0.35,1.12,0.8,0.59,600.0,,,0.0,1.0,1.0,100.0
6540,1,walk,walk,19988,,19988.0,20.0,2.0,6.0,2.0,0.16,0.004,0.002,-0.511,37.0,25.93,0.0,18.0,3880.0,13.0,-0.5,0.01,-0.95,-0.35,1.11,0.81,0.59,600.0,,,0.0,1.0,1.0,100.0
6540,1,walk,walk,19989,,19989.0,20.0,2.0,6.0,2.0,0.16,0.004,-0.077,-0.559,37.0,25.93,0.0,18.0,3880.0,13.0,-0.5,0.01,-0.95,-0.35,1.12,0.84,0.58,600.0,,,0.0,1.0,1.0,100.0
6560,1,walk,walk,19990,,19990.0,20.0,2.0,6.0,2.0,0.16,0.004,0.015,-0.499,37.0,25.93,0.0,18.0,3880.0,13.0,-0.5,0.01,-0.95,-0.35,1.16,0.86,0.58,600.0,,,0.0,1.0,1.0,100.0
6580,1,walk,walk,19991,,19991.0,20.0,2.0,6.0,2.0,0.15,0.004,0.038,-0.507,37.0,25.93,0.0,18.0,3880.0,13.0,-0.49,0.01,-0.95,-0.35,1.23,0.88,0.58,600.0,,,0.0,1.0,1.0,100.0
6600,1,walk,walk,19992,,19992.0,20.0,2.0,6.0,2.0,0.15,0.004,0.036,-0.494,37.0,25.93,0.0,18.0,3880.0,13.0,-0.49,0.01,-0.95,-0.35,1.31,0.89,0.58,600.0,,,0.0,1.0,1.0,100.0
6640,1,walk,walk,19993,,19993.0,20.0,2.0,6.0,2.0,0.15,0.004,-0.023,-0.528,37.0,25.93,0.0,18.0,3880.0,13.0,-0.49,0.01,-0.95,-0.35,1.39,0.89,0.58,600.0,,,0.0,1.0,1.0,100.0
6660,1,walk,walk,19994,,19994.0,20.0,2.0,6.0,2.0,0.15,0.004,0.002,-0.568,37.0,25.93,0.0,18.0,3880.0,13.0,-0.49,0.01,-0.95,-0.35,1.46,0.89,0.59,600.0,,,0.0,1.0,1.0,100.0
6680,1,walk,walk,19995,,19995.0,20.0,2.0,6.0,2.0,0.15,0.004,-0.068,-0.498,37.0,25.93,0.0,18.0,3880.0,13.0,-0.49,0.01,-0.95,-0.35,1.52,0.88,0.59,600.0,,,0.0,1.0,1.0,100.0
6680,1,walk,walk,19996,,19996.0,20.0,2.0,6.0,2.0,0.15,0.004,0.042,-0.519,37.0,25.93,0.0,18.0,3880.0,13.0,-0.48,0.01,-0.95,-0.35,1.55,0.87,0.6,600.0,,,0.0,1.0,1.0,100.0
6700,1,walk,walk,19997,,19997.0,20.0,2.0,6.0,2.0,0.15,0.004,-0.077,-0.495,37.0,25.93,0.0,18.0,3880.0,13.0,-0.48,0.01,-0.95,-0.35,1.56,0.85,0.61,600.0,,,0.0,1.0,1.0,100.0
6720,1,walk,walk,19998,,19998.0,20.0,2.0,6.0,2.0,0.15,0.004,0.009,-0.55,37.0,25.93,0.0,18.0,3880.0,13.0,-0.48,0.01,-0.95,-0.35,1.54,0.82,0.61,600.0,,,0.0,1.0,1.0,100.0
6740,1,walk,walk,19999,,19999.0,20.0,2.0,6.0,2.0,0.15,0.004,-0.056,-0.541,37.0,25.93,0.0,18.0,3880.0,13.0,-0.47,0.01,-0.95,-0.35,1.5,0.8,0.61,600.0,,,0.0,1.0,1.0,100.0
6760,1,walk,walk,20000,,20000.0,20.0,2.0,6.0,2.0,0.15,0.004,0.013,-0.513,37.0,25.93,0.0,18.0,3880.0,13.0,-0.46,0.01,-0.95,-0.35,1.45,0.78,0.61,600.0,,,0.0,1.0,1.0,100.0
6780,1,walk,walk,20001,,20001.0,20.0,2.0,6.0,2.0,0.14,0.004,0.022,-0.492,37.0,25.93,0.0,18.0,3880.0,13.0,-0.46,0.01,-0.95,-0.35,1.41,0.76,0.61,600.0,,,0.0,1.0,1.0,100.0
6840,1,walk,walk,20002,,20002.0,20.0,2.0,6.0,2.0,0.14,0.004,0.009,-0.555,37.0,25.93,0.0,18.0,3880.0,13.0,-0.45,0.01,-0.95,-0.35,1.37,0.76,0.61,600.0,,,0.0,1.0,1.0,100.0
6840,1,walk,walk,20003,,20003.0,20.0,2.0,6.0,2.0,0.14,0.004,0.002,-0.526,37.0,25.93,0.0,18.0,3880.0,13.0,-0.44,0.01,-0.95,-0.35,1.33,0.76,0.59,600.0,,,0.0,1.0,1.0,100.0
6840,1,walk,walk,20004,,20004.0,20.0,2.0,6.0,2.0,0.14,0.004,0.025,-0.549,37.0,25.93,0.0,18.0,3880.0,13.0,-0.44,0.01,-0.95,-0.35,1.32,0.77,0.57,600.0,,,0.0,1.0,1.0,100.0
6880,1,walk,walk,20005,,20005.0,20.0,2.0,6.0,2.0,0.14,0.004,-0.018,-0.546,37.0,25.93,0.0,18.0,3880.0,13.0,-0.44,0.01,-0.95,-0.35,1.31,0.79,0.55,600.0,,,0.0,1.0,1.0,100.0
6880,1,walk,walk,20006,,20006.0,20.0,2.0,6.0,2.0,0.14,0.004,-0.009,-0.533,37.0,25.93,0.0,18.0,3880.0,13.0,-0.45,0.01,-0.95,-0.35,1.32,0.81,0.53,600.0,,,0.0,1.0,1.0,100.0
6920,1,walk,walk,20007,,20007.0,20.0,2.0,6.0,2.0,0.14,0.004,0.01,-0.531,37.0,25.9,0.0,18.0,3880.0,13.0,-0.46,0.01,-0.95,-0.35,1.33,0.82,0.52,600.0,,,0.0,1.0,1.0,100.0
6940,1,walk,walk,20008,,20008.0,20.0,2.0,6.0,2.0,0.14,0.004,0.032,-0.52,37.0,25.93,0.0,18.0,3880.0,13.0,-0.47,0.01,-0.95,-0.35,1.35,0.82,0.52,600.0,,,0.0,1.0,1.0,100.0
6960,1,walk,walk,20009,,20009.0,20.0,2.0,6.0,2.0,0.14,0.004,-0.006,-0.512,37.0,25.93,0.0,18.0,3880.0,13.0,-0.48,0.01,-0.95,-0.35,1.36,0.82,0.53,600.0,,,0.0,1.0,1.0,100.0
6980,1,walk,walk,20010,,20010.0,20.0,2.0,6.0,2.0,0.14,0.004,-0.049,-0.529,37.0,25.93,0.0,18.0,3880.0,13.0,-0.49,0.01,-0.95,-0.35,1.38,0.82,0.56,600.0,,,0.0,1.0,1.0,100.0
7000,1,walk,walk,20011,,20011.0,20.0,2.0,6.0,2.0,0.14,0.004,-0.01,-0.506,37.0,25.93,0.0,18.0,3880.0,13.0,-0.5,0.01,-0.95,-0.35,1.4,0.81,0.59,600.0,,,0.0,1.0,1.0,100.0
7000,1,walk,walk,20012,,20012.0,20.0,2.0,6.0,2.0,0.14,0.004,0.122,-0.498,37.0,25.93,0.0,18.0,3880.0,13.0,-0.5,0.01,-0.95,-0.35,1.42,0.82,0.61,600.0,,,0.0,1.0,1.0,100.0
7020,1,walk,walk,20013,,20013.0,20.0,2.0,6.0,2.0,0.14,0.004,-0.057,-0.504,37.0,25.93,0.0,18.0,3880.0,13.0,-0.5,0.01,-0.95,-0.35,1.44,0.83,0.64,600.0,,,0.0,1.0,1.0,100.0
7060,1,walk,walk,20014,,20014.0,20.0,2.0,6.0,2.0,0.14,0.004,0.017,-0.52,37.0,25.93,0.0,18.0,3880.0,13.0,-0.49,0.01,-0.95,-0.35,1.46,0.84,0.65,600.0,,,0.0,1.0,1.0,100.0
7060,1,walk,walk,20015,,20015.0,20.0,2.0,6.0,2.0,0.13,0.004,-0.01,-0.57,37.0,25.93,0.0,18.0,3880.0,13.0,-0.49,0.01,-0.95,-0.35,1.49,0.86,0.64,600.0,,,0.0,1.0,1.0,100.0
7080,1,walk,walk,20016,,20016.0,20.0,2.0,6.0,2.0,0.13,0.004,-0.065,-0.554,37.0,25.93,0.0,18.0,3880.0,13.0,-0.48,0.01,-0.95,-0.35,1.51,0.88,0.62,600.0,,,0.0,1.0,1.0,100.0
7100,1,walk,walk,20017,,20017.0,20.0,2.0,6.0,2.0,0.13,0.004,0.013,-0.555,37.0,25.93,0.0,18.0,3880.0,13.0,-0.47,0.01,-0.95,-0.35,1.51,0.91,0.59,600.0,,,0.0,1.0,1.0,100.0
7140,1,walk,walk,20018,,20018.0,20.0,2.0,6.0,2.0,0.13,0.004,0.041,-0.504,37.0,25.93,0.0,18.0,3880.0,13.0,-0.47,0.01,-0.95,-0.35,1.51,0.94,0.55,600.0,,,0.0,1.0,1.0,100.0
7160,1,walk,walk,20019,,20019.0,20.0,2.0,6.0,2.0,0.13,0.004,-0.062,-0.537,37.0,25.93,0.0,18.0,3880.0,13.0,-0.47,0.01,-0.95,-0.35,1.5,0.96,0.52,600.0,,,0.0,1.0,1.0,100.0
7160,1,walk,walk,20020,,20020.0,20.0,2.0,6.0,2.0,0.13,0.004,-0.054,-0.52,37.0,25.9,0.0,18.0,3880.0,13.0,-0.47,0.01,-0.95,-0.34,1.48,0.98,0.5,600.0,,,0.0,1.0,1.0,100.0
7180,1,walk,walk,20021,,20021.0,20.0,2.0,6.0,2.0,0.13,0.004,-0.002,-0.481,37.0,25.93,0.0,18.0,3880.0,13.0,-0.48,0.01,-0.95,-0.34,1.44,0.98,0.5,600.0,,,0.0,1.0,1.0,100.0
7200,1,walk,walk,20022,,20022.0,20.0,2.0,6.0,2.0,0.13,0.004,-0.013,-0.535,37.0,25.93,0.0,18.0,3880.0,13.0,-0.49,0.01,-0.95,-0.34,1.41,0.97,0.52,600.0,,,0.0,1.0,1.0,100.0
7220,1,walk,walk,20023,,20023.0,20.0,2.0,6.0,2.0,0.13,0.004,0.07,-0.522,37.0,25.93,0.0,18.0,3880.0,13.0,-0.5,0.01,-0.95,-0.34,1.38,0.95,0.55,600.0,,,0.0,1.0,1.0,100.0
7240,1,walk,walk,20024,,20024.0,20.0,2.0,6.0,2.0,0.13,0.004,-0.013,-0.533,37.0,25.93,0.0,18.0,3880.0,13.0,-0.5,0.01,-0.95,-0.35,1.36,0.92,0.59,600.0,,,0.0,1.0,1.0,100.0
7260,1,walk,walk,20025,,20025.0,20.0,2.0,6.0,2.0,0.13,0.004,0.034,-0.518,37.0,25.93,0.0,18.0,3880.0,13.0,-0.5,0.01,-0.95,-0.35,1.37,0.89,0.63,600.0,,,0.0,1.0,1.0,100.0
7320,1,walk,walk,20026,,20026.0,20.0,2.0,6.0,2.0,0.13,0.004,0.011,-0.522,37.0,25.93,0.0,18.0,3880.0,13.0,-0.5,0.01,-0.95,-0.35,1.39,0.86,0.66,600.0,,,0.0,1.0,1.0,100.0
7320,1,walk,walk,20027,,20027.0,20.0,2.0,6.0,2.0,0.12,0.004,-0.025,-0.525,37.0,25.93,0.0,18.0,3880.0,13.0,-0.49,0.01,-0.95,-0.35,1.43,0.84,0.67,600.0,,,0.0,1.0,1.0,100.0
7340,1,walk,walk,20028,,20028.0,20.0,2.0,6.0,2.0,0.12,0.004,0.01,-0.534,37.0,25.93,0.0,18.0,3880.0,13.0,-0.48,0.01,-0.95,-0.35,1.47,0.82,0.66,600.0,,,0.0,1.0,1.0,100.0
7360,1,walk,walk,20029,,20029.0,20.0,2.0,6.0,2.0,0.12,0.004,0.038,-0.582,37.0,25.93,0.0,18.0,3880.0,13.0,-0.47,0.01,-0.95,-0.35,1.5,0.81,0.64,600.0,,,0.0,1.0,1.0,100.0
7360,1,walk,walk,20030,,20030.0,20.0,2.0,6.0,2.0,0.12,0.004,-0.005,-0.545,37.0,25.93,0.0,18.0,3880.0,13.0,-0.47,0.01,-0.95,-0.35,1.52,0.8,0.61,600.0,,,0.0,1.0,1.0,100.0
7380,1,walk,walk,20031,,20031.0,20.0,2.0,6.0,2.0,0.12,0.004,-0.021,-0.557,37.0,25.93,0.0,18.0,3880.0,13.0,-0.47,0.01,-0.95,-0.35,1.52,0.78,0.58,600.0,,,0.0,1.0,1.0,100.0
7420,1,walk,walk,20032,,20032.0,20.0,2.0,6.0,2.0,0.12,0.004,0.029,-0.54,37.0,25.93,0.0,18.0,3880.0,13.0,-0.47,0.01,-0.95,-0.35,1.5,0.76,0.56,600.0,,,0.0,1.0,1.0,100.0
7440,1,walk,walk,20033,,20033.0,20.0,2.0,6.0,2.0,0.12,0.004,0.019,-0.517,37.0,25.93,0.0,18.0,3880.0,13.0,-0.48,0.01,-0.95,-0.35,1.47,0.75,0.56,600.0,,,0.0,1.0,1.0,100.0
7460,1,walk,walk,20034,,20034.0,20.0,2.0,6.0,2.0,0.12,0.004,0.007,-0.499,37.0,25.93,0.0,18.0,3880.0,13.0,-0.49,0.01,-0.95,-0.35,1.42,0.73,0.57,600.0,,,0.0,1.0,1.0,100.0
7480,1,walk,walk,20035,,20035.0,20.0,2.0,6.0,2.0,0.12,0.004,-0.066,-0.521,37.0,25.93,0.0,18.0,3880.0,13.0,-0.49,0.01,-0.95,-0.34,1.38,0.72,0.59,600.0,,,0.0,1.0,1.0,100.0
7480,1,walk,walk,20036,,20036.0,20.0,2.0,6.0,2.0,0.12,0.004,0.058,-0.507,37.0,25.93,0.0,18.0,3880.0,13.0,-0.5,0.01,-0.95,-0.35,1.35,0.71,0.62,600.0,,,0.0,1.0,1.0,100.0
7500,1,walk,walk,20037,,20037.0,20.0,2.0,6.0,2.0,0.12,0.004,-0.009,-0.549,37.0,25.93,0.0,18.0,3880.0,13.0,-0.5,0.01,-0.95,-0.35,1.33,0.71,0.65,600.0,,,0.0,1.0,1.0,100.0
7520,1,walk,walk,20038,,20038.0,20.0,2.0,6.0,2.0,0.12,0.004,0.085,-0.537,37.0,25.93,0.0,18.0,3880.0,13.0,-0.5,0.01,-0.95,-0.35,1.34,0.72,0.67,600.0,,,0.0,1.0,1.0,100.0
7540,1,walk,walk,20039,,20039.0,20.0,2.0,6.0,2.0,0.12,0.004,-0.029,-0.512,37.0,25.93,0.0,18.0,3880.0,13.0,-0.49,0.01,-0.95,-0.35,1.36,0.73,0.67,600.0,,,0.0,1.0,1.0,100.0
7560,1,walk,walk,20040,,20040.0,20.0,2.0,6.0,2.0,0.12,0.004,-0.002,-0.543,37.0,25.93,0.0,18.0,3880.0,13.0,-0.49,0.01,-0.95,-0.35,1.39,0.76,0.67,600.0,,,0.0,1.0,1.0,100.0
7580,1,walk,walk,20041,,20041.0,20.0,2.0,6.0,2.0,0.12,0.004,-0.104,-0.523,37.0,25.93,0.0,18.0,3880.0,13.0,-0.49,0.01,-0.95,-0.35,1.41,0.8,0.66,600.0,,,0.0,1.0,1.0,100.0
7620,1,walk,walk,20042,,20042.0,20.0,2.0,6.0,2.0,0.12,0.004,-0.038,-0.514,37.0,25.93,0.0,18.0,3880.0,13.0,-0.49,0.01,-0.95,-0.35,1.44,0.85,0.65,600.0,,,0.0,1.0,1.0,100.0
7640,1,walk,walk,20043,,20043.0,20.0,2.0,6.0,2.0,0.12,0.004,-0.005,-0.56,37.0,25.93,0.0,18.0,3880.0,13.0,-0.5,0.01,-0.95,-0.35,1.44,0.9,0.65,600.0,,,0.0,1.0,1.0,100.0
7660,1,walk,walk,20044,,20044.0,20.0,2.0,6.0,2.0,0.12,0.004,0.064,-0.513,37.0,25.9,0.0,18.0,3880.0,13.0,-0.5,0.01,-0.95,-0.35,1.45,0.94,0.66,600.0,,,0.0,1.0,1.0,100.0
7660,1,walk,walk,20045,,20045.0,20.0,2.0,6.0,2.0,0.12,0.004,0.073,-0.505,37.0,25.93,0.0,18.0,3880.0,13.0,-0.51,0.01,-0.95,-0.35,1.45,0.99,0.68,600.0,,,0.0,1.0,1.0,100.0
7680,1,walk,walk,20046,,20046.0,20.0,2.0,6.0,2.0,0.12,0.004,0.097,-0.515,37.0,25.93,0.0,18.0,3880.0,13.0,-0.52,0.01,-0.95,-0.35,1.45,1.03,0.7,600.0,,,0.0,1.0,1.0,100.0
7700,1,walk,walk,20047,,20047.0,20.0,2.0,6.0,2.0,0.12,0.004,-0.002,-0.562,37.0,25.93,0.0,18.0,3880.0,13.0,-0.53,0.01,-0.95,-0.35,1.46,1.06,0.72,600.0,,,0.0,1.0,1.0,100.0
7720,1,walk,walk,20048,,20048.0,20.0,2.0,6.0,2.0,0.12,0.004,0.017,-0.513,37.0,25.93,0.0,18.0,3880.0,13.0,-0.53,0.01,-0.95,-0.35,1.48,1.09,0.74,600.0,,,0.0,1.0,1.0,100.0
7740,1,walk,walk,20049,,20049.0,20.0,2.0,6.0,2.0,0.12,0.004,-0.015,-0.519,37.0,25.93,0.0,18.0,3880.0,13.0,-0.52,0.01,-0.95,-0.35,1.52,1.11,0.74,600.0,,,0.0,1.0,1.0,100.0
7800,1,walk,walk,20050,,20050.0,20.0,2.0,6.0,2.0,0.12,0.004,-0.03,-0.556,37.0,25.93,0.0,18.0,3880.0,13.0,-0.51,0.01,-0.95,-0.35,1.56,1.13,0.72,600.0,,,0.0,1.0,1.0,100.0
7800,1,walk,walk,20051,,20051.0,20.0,2.0,6.0,2.0,0.12,0.004,-0.115,-0.533,37.0,25.93,0.0,18.0,3880.0,13.0,-0.51,0.01,-0.95,-0.35,1.61,1.14,0.7,600.0,,,0.0,1.0,1.0,100.0
7800,1,walk,walk,20052,,20052.0,20.0,2.0,6.0,2.0,0.12,0.004,0.122,-0.518,37.0,25.93,0.0,18.0,3880.0,13.0,-0.5,0.01,-0.95,-0.35,1.65,1.13,0.67,600.0,,,0.0,1.0,1.0,100.0
7820,1,walk,walk,20053,,20053.0,20.0,2.0,6.0,2.0,0.12,0.004,-0.029,-0.511,37.0,25.93,0.0,18.0,3880.0,13.0,-0.49,0.01,-0.95,-0.35,1.67,1.12,0.64,600.0,,,0.0,1.0,1.0,100.0
7840,1,walk,walk,20054,,20054.0,20.0,2.0,6.0,2.0,0.12,0.004,0.083,-0.562,37.0,25.93,0.0,18.0,3880.0,13.0,-0.49,0.01,-0.95,-0.35,1.68,1.1,0.61,600.0,,,0.0,1.0,1.0,100.0
7860,1,walk,walk,20055,,20055.0,20.0,2.0,6.0,2.0,0.12,0.004,-0.005,-0.571,37.0,25.93,0.0,18.0,3880.0,13.0,-0.48,0.01,-0.95,-0.35,1.67,1.06,0.6,600.0,,,0.0,1.0,1.0,100.0
7900,1,walk,walk,20056,,20056.0,20.0,2.0,6.0,2.0,0.12,0.004,0.002,-0.505,37.0,25.93,0.0,18.0,3880.0,13.0,-0.48,0.01,-0.95,-0.34,1.63,1.02,0.59,600.0,,,0.0,1.0,1.0,100.0
7920,1,walk,walk,20057,,20057.0,20.0,2.0,6.0,2.0,0.12,0.004,0.001,-0.533,37.0,25.93,0.0,18.0,3880.0,13.0,-0.48,0.01,-0.95,-0.34,1.59,1.0,0.6,600.0,,,0.0,1.0,1.0,100.0
7940,1,walk,walk,20058,,20058.0,20.0,2.0,6.0,2.0,0.12,0.004,0.135,-0.523,37.0,25.93,0.0,18.0,3880.0,13.0,-0.48,0.01,-0.95,-0.34,1.55,0.98,0.61,600.0,,,0.0,1.0,1.0,100.0
7960,1,walk,walk,20059,,20059.0,20.0,2.0,6.0,2.0,0.13,0.004,-0.006,-0.569,37.0,25.93,0.0,18.0,3880.0,13.0,-0.48,0.01,-0.95,-0.34,1.52,0.98,0.62,600.0,,,0.0,1.0,1.0,100.0
7960,1,walk,walk,20060,,20060.0,20.0,2.0,6.0,2.0,0.13,0.004,0.011,-0.509,37.0,25.93,0.0,18.0,3880.0,13.0,-0.48,0.01,-0.95,-0.34,1.5,0.99,0.63,600.0,,,0.0,1.0,1.0,100.0
7980,1,walk,walk,20061,,20061.0,20.0,2.0,6.0,2.0,0.13,0.004,-0.056,-0.518,37.0,25.93,0.0,18.0,3880.0,13.0,-0.47,0.01,-0.95,-0.34,1.49,1.0,0.63,600.0,,,0.0,1.0,1.0,100.0
8000,1,walk,walk,20062,,20062.0,20.0,2.0,6.0,2.0,0.13,0.004,0.171,-0.523,37.0,25.93,0.0,18.0,3880.0,13.0,-0.47,0.01,-0.95,-0.34,1.5,1.02,0.64,600.0,,,0.0,1.0,1.0,100.0
8020,1,walk,walk,20063,,20063.0,20.0,2.0,6.0,2.0,0.13,0.004,-0.056,-0.549,37.0,25.93,0.0,18.0,3880.0,13.0,-0.47,0.01,-0.95,-0.34,1.51,1.04,0.63,600.0,,,0.0,1.0,1.0,100.0
8040,1,walk,walk,20064,,20064.0,20.0,2.0,6.0,2.0,0.13,0.004,-0.015,-0.533,37.0,25.93,0.0,18.0,3880.0,13.0,-0.48,0.01,-0.95,-0.35,1.53,1.04,0.63,600.0,,,0.0,1.0,1.0,100.0
8060,1,walk,walk,20065,,20065.0,20.0,2.0,6.0,2.0,0.13,0.004,-0.001,-0.513,37.0,25.93,0.0,18.0,3880.0,13.0,-0.48,0.01,-0.95,-0.35,1.54,1.03,0.62,600.0,,,0.0,1.0,1.0,100.0
8100,1,walk,walk,20066,,20066.0,20.0,2.0,6.0,2.0,0.13,0.004,-0.026,-0.54,37.0,25.93,0.0,18.0,3880.0,13.0,-0.49,0.01,-0.95,-0.35,1.54,1.0,0.62,600.0,,,0.0,1.0,1.0,100.0
8120,1,walk,walk,20067,,20067.0,20.0,2.0,6.0,2.0,0.13,0.004,0.023,-0.526,37.0,25.93,0.0,18.0,3880.0,13.0,-0.49,0.01,-0.95,-0.34,1.54,0.97,0.62,600.0,,,0.0,1.0,1.0,100.0
8140,1,walk,walk,20068,,20068.0,20.0,2.0,6.0,2.0,0.13,0.004,0.005,-0.514,37.0,25.93,0.0,18.0,3880.0,13.0,-0.5,0.01,-0.95,-0.34,1.53,0.95,0.62,600.0,,,0.0,1.0,1.0,100.0
8140,1,walk,walk,20069,,20069.0,20.0,2.0,6.0,2.0,0.13,0.004,0.057,-0.507,37.0,25.93,0.0,18.0,3880.0,13.0,-0.5,0.01,-0.95,-0.34,1.52,0.92,0.63,600.0,,,0.0,1.0,1.0,100.0
8160,1,walk,walk,20070,,20070.0,20.0,2.0,6.0,2.0,0.13,0.004,0.028,-0.547,37.0,25.93,0.0,18.0,3880.0,13.0,-0.5,0.01,-0.95,-0.34,1.51,0.91,0.64,600.0,,,0.0,1.0,1.0,100.0
8180,1,walk,walk,20071,,20071.0,20.0,2.0,6.0,2.0,0.13,0.004,-0.06,-0.53,37.0,25.93,0.0,18.0,3880.0,13.0,-0.5,0.01,-0.95,-0.34,1.5,0.91,0.65,600.0,,,0.0,1.0,1.0,100.0
8200,1,walk,walk,20072,,20072.0,20.0,2.0,6.0,2.0,0.13,0.004,0.023,-0.516,37.0,25.93,0.0,18.0,3880.0,13.0,-0.5,0.01,-0.95,-0.34,1.48,0.91,0.65,600.0,,,0.0,1.0,1.0,100.0
8220,1,walk,walk,20073,,20073.0,20.0,2.0,6.0,2.0,0.13,0.004,0.092,-0.51,37.0,25.93,0.0,18.0,3880.0,13.0,-0.49,0.01,-0.95,-0.34,1.47,0.91,0.65,600.0,,,0.0,1.0,1.0,100.0
8280,1,walk,walk,20074,,20074.0,20.0,2.0,6.0,2.0,0.13,0.004,0.014,-0.555,37.0,25.93,0.0,18.0,3880.0,13.0,-0.49,0.01,-0.95,-0.34,1.46,0.92,0.64,600.0,,,0.0,1.0,1.0,100.0
8280,1,walk,walk,20075,,20075.0,20.0,2.0,6.0,2.0,0.13,0.004,0.079,-0.544,37.0,25.93,0.0,18.0,3880.0,13.0,-0.49,0.01,-0.95,-0.34,1.45,0.94,0.63,600.0,,,0.0,1.0,1.0,100.0
8280,1,walk,walk,20076,,20076.0,20.0,2.0,6.0,2.0,0.13,0.004,-0.028,-0.527,37.0,25.93,0.0,18.0,3880.0,13.0,-0.48,0.01,-0.95,-0.34,1.44,0.94,0.63,600.0,,,0.0,1.0,1.0,100.0
8300,1,walk,walk,20077,,20077.0,20.0,2.0,6.0,2.0,0.13,0.004,0.044,-0.547,37.0,25.93,0.0,18.0,3880.0,13.0,-0.48,0.01,-0.95,-0.34,1.43,0.94,0.63,600.0,,,0.0,1.0,1.0,100.0
8320,1,walk,walk,20078,,20078.0,20.0,2.0,6.0,2.0,0.13,0.004,-0.072,-0.534,37.0,25.93,0.0,18.0,3880.0,13.0,-0.48,0.01,-0.95,-0.34,1.42,0.94,0.63,600.0,,,0.0,1.0,1.0,100.0
8340,1,walk,walk,20079,,20079.0,20.0,2.0,6.0,2.0,0.13,0.004,0.009,-0.519,37.0,25.93,0.0,18.0,3880.0,13.0,-0.48,0.01,-0.95,-0.34,1.41,0.93,0.63,600.0,,,0.0,1.0,1.0,100.0
8360,1,walk,walk,20080,,20080.0,20.0,2.0,6.0,2.0,0.13,0.004,-0.011,-0.509,37.0,25.93,0.0,18.0,3880.0,13.0,-0.48,0.01,-0.95,-0.34,1.39,0.92,0.63,600.0,,,0.0,1.0,1.0,100.0
8380,1,walk,walk,20081,,20081.0,20.0,2.0,6.0,2.0,0.13,0.004,-0.014,-0.568,37.0,25.93,0.0,18.0,3880.0,13.0,-0.48,0.01,-0.95,-0.34,1.38,0.91,0.63,600.0,,,0.0,1.0,1.0,100.0
8400,1,walk,walk,20082,,20082.0,20.0,2.0,6.0,2.0,0.13,0.004,0.013,-0.534,37.0,25.93,0.0,18.0,3880.0,13.0,-0.47,0.01,-0.95,-0.34,1.37,0.9,0.63,600.0,,,0.0,1.0,1.0,100.0
8440,1,walk,walk,20083,,20083.0,20.0,2.0,6.0,2.0,0.13,0.004,-0.042,-0.511,37.0,25.93,0.0,18.0,3880.0,13.0,-0.47,0.01,-0.95,-0.34,1.36,0.88,0.63,600.0,,,0.0,1.0,1.0,100.0
8440,1,walk,walk,20084,,20084.0,20.0,2.0,6.0,2.0,0.13,0.004,0.03,-0.517,37.0,25.93,0.0,18.0,3880.0,13.0,-0.47,0.01,-0.95,-0.34,1.36,0.85,0.62,600.0,,,0.0,1.0,1.0,100.0
8460,1,walk,walk,20085,,20085.0,20.0,2.0,6.0,2.0,0.13,0.004,-0.018,-0.523,37.0,25.93,0.0,18.0,3880.0,13.0,-0.47,0.01,-0.95,-0.34,1.35,0.84,0.62,600.0,,,0.0,1.0,1.0,100.0
8520,1,walk,walk,20086,,20086.0,20.0,2.0,6.0,2.0,0.13,0.004,-0.017,-0.498,37.0,25.93,0.0,18.0,3880.0,13.0,-0.47,0.01,-0.95,-0.34,1.35,0.83,0.62,600.0,,,0.0,1.0,1.0,100.0
8520,1,walk,walk,20087,,20087.0,20.0,2.0,6.0,2.0,0.13,0.004,-0.049,-0.5,37.0,25.93,0.0,18.0,3880.0,13.0,-0.47,0.01,-0.95,-0.34,1.35,0.84,0.62,600.0,,,0.0,1.0,1.0,100.0
8520,1,walk,walk,20088,,20088.0,20.0,2.0,6.0,2.0,0.13,0.004,0.03,-0.511,37.0,25.93,0.0,18.0,3880.0,13.0,-0.47,0.01,-0.95,-0.34,1.35,0.84,0.63,600.0,,,0.0,1.0,1.0,100.0
8560,1,walk,walk,20089,,20089.0,20.0,2.0,6.0,2.0,0.13,0.004,-0.087,-0.51,37.0,25.93,0.0,18.0,3880.0,13.0,-0.47,0.01,-0.95,-0.34,1.35,0.85,0.64,600.0,,,0.0,1.0,1.0,100.0
8580,1,walk,walk,20090,,20090.0,20.0,2.0,6.0,2.0,0.13,0.004,-0.104,-0.53,37.0,25.93,0.0,18.0,3880.0,13.0,-0.47,0.01,-0.95,-0.34,1.36,0.85,0.65,600.0,,,0.0,1.0,1.0,100.0
8600,1,walk,walk,20091,,20091.0,20.0,2.0,6.0,2.0,0.13,0.004,-0.041,-0.536,37.0,25.93,0.0,18.0,3880.0,13.0,-0.47,0.01,-0.95,-0.34,1.36,0.86,0.65,600.0,,,0.0,1.0,1.0,100.0
8600,1,walk,walk,20092,,20092.0,20.0,2.0,6.0,2.0,0.13,0.004,0.113,-0.521,37.0,25.93,0.0,18.0,3880.0,13.0,-0.47,0.01,-0.95,-0.34,1.35,0.87,0.66,600.0,,,0.0,1.0,1.0,100.0
8620,1,walk,walk,20093,,20093.0,20.0,2.0,6.0,2.0,0.13,0.004,0.065,-0.515,37.0,25.93,0.0,18.0,3880.0,13.0,-0.47,0.01,-0.95,-0.34,1.35,0.88,0.67,600.0,,,0.0,1.0,1.0,100.0
8640,1,walk,walk,20094,,20094.0,20.0,2.0,6.0,2.0,0.13,0.004,-0.037,-0.517,37.0,25.93,0.0,18.0,3880.0,13.0,-0.47,0.01,-0.95,-0.34,1.34,0.89,0.67,600.0,,,0.0,1.0,1.0,100.0
8660,1,walk,walk,20095,,20095.0,20.0,2.0,6.0,2.0,0.13,0.004,0.026,-0.535,37.0,25.93,0.0,18.0,3880.0,13.0,-0.47,0.01,-0.95,-0.34,1.33,0.9,0.66,600.0,,,0.0,1.0,1.0,100.0
8700,1,walk,walk,20096,,20096.0,20.0,2.0,6.0,2.0,0.13,0.004,0.001,-0.504,37.0,25.93,0.0,18.0,3880.0,13.0,-0.47,0.01,-0.95,-0.34,1.32,0.91,0.66,600.0,,,0.0,1.0,1.0,100.0
8720,1,walk,walk,20097,,20097.0,20.0,2.0,6.0,2.0,0.13,0.004,-0.046,-0.527,37.0,25.93,0.0,18.0,3880.0,13.0,-0.47,0.01,-0.95,-0.34,1.31,0.89,0.65,600.0,,,0.0,1.0,1.0,100.0
8740,1,walk,walk,20098,,20098.0,20.0,2.0,6.0,2.0,0.13,0.004,0.034,-0.512,37.0,25.93,0.0,18.0,3880.0,13.0,-0.47,0.01,-0.95,-0.34,1.3,0.87,0.64,600.0,,,0.0,1.0,1.0,100.0
8760,1,walk,walk,20099,,20099.0,20.0,2.0,6.0,2.0,0.13,0.004,-0.007,-0.546,37.0,25.93,0.0,18.0,3880.0,13.0,-0.47,0.01,-0.95,-0.34,1.3,0.85,0.63,600.0,,,0.0,1.0,1.0,100.0
8780,1,walk,walk,20100,,20100.0,20.0,2.0,6.0,2.0,0.13,0.004,-0.038,-0.536,37.0,25.93,0.0,18.0,3880.0,13.0,-0.47,0.01,-0.95,-0.34,1.3,0.83,0.62,600.0,,,0.0,1.0,1.0,100.0
8800,1,walk,walk,20101,,20101.0,20.0,2.0,6.0,2.0,0.13,0.004,-0.002,-0.518,37.0,25.93,0.0,18.0,3880.0,13.0,-0.47,0.01,-0.95,-0.34,1.3,0.82,0.61,600.0,,,0.0,1.0,1.0,100.0
8800,1,walk,walk,20102,,20102.0,20.0,2.0,6.0,2.0,0.13,0.004,0.006,-0.541,37.0,25.93,0.0,18.0,3880.0,13.0,-0.47,0.01,-0.95,-0.34,1.3,0.83,0.6,600.0,,,0.0,1.0,1.0,100.0
8820,1,walk,walk,20103,,20103.0,20.0,2.0,6.0,2.0,0.13,0.004,-0.06,-0.503,37.0,25.93,0.0,18.0,3880.0,13.0,-0.46,0.01,-0.95,-0.34,1.31,0.84,0.6,600.0,,,0.0,1.0,1.0,100.0
8840,1,walk,walk,20104,,20104.0,20.0,2.0,6.0,2.0,0.14,0.004,-0.046,-0.502,37.0,25.93,0.0,18.0,3880.0,13.0,-0.46,0.01,-0.95,-0.34,1.32,0.85,0.6,600.0,,,0.0,1.0,1.0,100.0
8860,1,walk,walk,20105,,20105.0,20.0,2.0,6.0,2.0,0.14,0.004,-0.066,-0.514,37.0,25.93,0.0,18.0,3880.0,13.0,-0.45,0.01,-0.95,-0.34,1.34,0.86,0.59,600.0,,,0.0,1.0,1.0,100.0
8920,1,walk,walk,20106,,20106.0,20.0,2.0,6.0,2.0,0.14,0.004,-0.064,-0.516,37.0,25.93,0.0,18.0,3880.0,13.0,-0.45,0.01,-0.95,-0.34,1.35,0.88,0.59,600.0,,,0.0,1.0,1.0,100.0
8920,1,walk,walk,20107,,20107.0,20.0,2.0,6.0,2.0,0.14,0.004,-0.011,-0.567,37.0,25.93,0.0,18.0,3880.0,13.0,-0.45,0.01,-0.95,-0.34,1.35,0.9,0.59,600.0,,,0.0,1.0,1.0,100.0
8920,1,walk,walk,20108,,20108.0,20.0,2.0,6.0,2.0,0.14,0.004,0.04,-0.52,37.0,25.93,0.0,18.0,3880.0,13.0,-0.45,0.01,-0.95,-0.34,1.36,0.91,0.59,600.0,,,0.0,1.0,1.0,100.0
8940,1,walk,walk,20109,,20109.0,20.0,2.0,6.0,2.0,0.14,0.004,-0.028,-0.544,37.0,25.93,0.0,18.0,3880.0,13.0,-0.45,0.01,-0.95,-0.34,1.36,0.92,0.59,600.0,,,0.0,1.0,1.0,100.0
8960,1,walk,walk,20110,,20110.0,20.0,2.0,6.0,2.0,0.14,0.004,-0.01,-0.499,37.0,25.93,0.0,18.0,3880.0,13.0,-0.45,0.01,-0.95,-0.34,1.36,0.93,0.6,600.0,,,0.0,1.0,1.0,100.0
8980,1,walk,walk,20111,,20111.0,20.0,2.0,6.0,2.0,0.14,0.004,0.013,-0.489,37.0,25.93,0.0,18.0,3880.0,13.0,-0.45,0.01,-0.95,-0.34,1.35,0.95,0.61,600.0,,,0.0,1.0,1.0,100.0
9000,1,walk,walk,20112,,20112.0,20.0,2.0,6.0,2.0,0.14,0.004,0.081,-0.507,37.0,25.93,0.0,18.0,3880.0,13.0,-0.45,0.01,-0.95,-0.34,1.35,0.96,0.62,600.0,,,0.0,1.0,1.0,100.0
9020,1,walk,walk,20113,,20113.0,20.0,2.0,6.0,2.0,0.14,0.004,-0.023,-0.501,37.0,25.93,0.0,18.0,3880.0,13.0,-0.45,0.01,-0.95,-0.34,1.34,0.96,0.64,600.0,,,0.0,1.0,1.0,100.0
9060,1,walk,walk,20114,,20114.0,20.0,2.0,6.0,2.0,0.14,0.004,0.046,-0.516,37.0,25.93,0.0,18.0,3880.0,13.0,-0.46,0.01,-0.95,-0.34,1.33,0.95,0.66,600.0,,,0.0,1.0,1.0,100.0
9080,1,walk,walk,20115,,20115.0,20.0,2.0,6.0,2.0,0.14,0.004,0.017,-0.524,37.0,25.93,0.0,18.0,3880.0,13.0,-0.46,0.01,-0.95,-0.34,1.32,0.95,0.67,600.0,,,0.0,1.0,1.0,100.0
9080,1,walk,walk,20116,,20116.0,20.0,2.0,6.0,2.0,0.14,0.004,-0.037,-0.544,37.0,25.93,0.0,18.0,3880.0,13.0,-0.46,0.01,-0.95,-0.34,1.32,0.94,0.67,600.0,,,0.0,1.0,1.0,100.0
9100,1,walk,walk,20117,,20117.0,20.0,2.0,6.0,2.0,0.14,0.004,0.011,-0.491,37.0,25.93,0.0,18.0,3880.0,13.0,-0.46,0.01,-0.95,-0.34,1.31,0.93,0.68,600.0,,,0.0,1.0,1.0,100.0
9120,1,walk,walk,20118,,20118.0,20.0,2.0,6.0,2.0,0.14,0.004,0.025,-0.514,37.0,25.93,0.0,18.0,3880.0,13.0,-0.46,0.01,-0.95,-0.34,1.31,0.91,0.68,600.0,,,0.0,1.0,1.0,100.0
9180,1,walk,walk,20119,,20119.0,20.0,2.0,6.0,2.0,0.14,0.004,0.058,-0.55,37.0,25.9,0.0,18.0,3880.0,13.0,-0.47,0.01,-0.95,-0.34,1.3,0.89,0.67,600.0,,,0.0,1.0,1.0,100.0
9180,1,walk,walk,20120,,20120.0,20.0,2.0,6.0,2.0,0.14,0.004,-0.023,-0.525,37.0,25.93,0.0,18.0,3880.0,13.0,-0.47,0.01,-0.95,-0.35,1.3,0.87,0.67,600.0,,,0.0,1.0,1.0,100.0
9200,1,walk,walk,20121,,20121.0,20.0,2.0,6.0,2.0,0.14,0.004,-0.093,-0.533,37.0,25.93,0.0,18.0,3880.0,13.0,-0.47,0.01,-0.95,-0.35,1.3,0.85,0.66,600.0,,,0.0,1.0,1.0,100.0
9240,1,walk,walk,20122,,20122.0,20.0,2.0,6.0,2.0,0.14,0.004,-0.037,-0.515,37.0,25.9,0.0,18.0,3880.0,13.0,-0.47,0.01,-0.95,-0.35,1.3,0.83,0.66,600.0,,,0.0,1.0,1.0,100.0
9240,1,walk,walk,20123,,20123.0,20.0,2.0,6.0,2.0,0.14,0.004,-0.054,-0.497,37.0,25.93,0.0,18.0,3880.0,13.0,-0.47,0.01,-0.95,-0.35,1.3,0.81,0.65,600.0,,,0.0,1.0,1.0,100.0
9240,1,walk,walk,20124,,20124.0,20.0,2.0,6.0,2.0,0.14,0.004,0.001,-0.526,37.0,25.93,0.0,18.0,3880.0,13.0,-0.47,0.01,-0.95,-0.35,1.31,0.79,0.64,600.0,,,0.0,1.0,1.0,100.0
9260,1,walk,walk,20125,,20125.0,20.0,2.0,6.0,2.0,0.14,0.004,-0.023,-0.551,37.0,25.9,0.0,18.0,3880.0,13.0,-0.47,0.01,-0.95,-0.35,1.32,0.77,0.63,600.0,,,0.0,1.0,1.0,100.0
9280,1,walk,walk,20126,,20126.0,20.0,2.0,6.0,2.0,0.14,0.004,-0.049,-0.516,37.0,25.93,0.0,18.0,3880.0,13.0,-0.47,0.01,-0.95,-0.35,1.32,0.75,0.62,600.0,,,0.0,1.0,1.0,100.0
9300,1,walk,walk,20127,,20127.0,20.0,2.0,6.0,2.0,0.14,0.004,-0.044,-0.515,37.0,25.93,0.0,18.0,3880.0,13.0,-0.47,0.01,-0.95,-0.35,1.32,0.73,0.61,600.0,,,0.0,1.0,1.0,100.0
9320,1,walk,walk,20128,,20128.0,20.0,2.0,6.0,2.0,0.14,0.004,0.05,-0.508,37.0,25.93,0.0,18.0,3880.0,13.0,-0.46,0.01,-0.95,-0.35,1.32,0.72,0.6,600.0,,,0.0,1.0,1.0,100.0
9340,1,walk,walk,20129,,20129.0,20.0,2.0,6.0,2.0,0.14,0.004,-0.06,-0.493,37.0,25.93,0.0,18.0,3880.0,13.0,-0.46,0.01,-0.95,-0.35,1.32,0.7,0.6,600.0,,,0.0,1.0,1.0,100.0
9360,1,walk,walk,20130,,20130.0,20.0,2.0,6.0,2.0,0.14,0.004,0.021,-0.552,37.0,25.93,0.0,18.0,3880.0,13.0,-0.46,0.01,-0.95,-0.35,1.31,0.69,0.6,600.0,,,0.0,1.0,1.0,100.0
9400,1,walk,walk,20131,,20131.0,20.0,2.0,6.0,2.0,0.14,0.004,-0.028,-0.516,37.0,25.93,0.0,18.0,3880.0,13.0,-0.46,0.01,-0.95,-0.35,1.3,0.68,0.6,600.0,,,0.0,1.0,1.0,100.0
9400,1,walk,walk,20132,,20132.0,20.0,2.0,6.0,2.0,0.14,0.004,-0.038,-0.515,37.0,25.93,0.0,18.0,3880.0,13.0,-0.46,0.01,-0.95,-0.35,1.29,0.67,0.6,600.0,,,0.0,1.0,1.0,100.0
9420,1,walk,walk,20133,,20133.0,20.0,2.0,6.0,2.0,0.15,0.004,-0.026,-0.496,36.0,25.93,0.0,18.0,3880.0,13.0,-0.46,0.01,-0.95,-0.35,1.28,0.67,0.61,600.0,,,0.0,1.0,1.0,100.0
9440,1,walk,walk,20134,,20134.0,20.0,2.0,6.0,2.0,0.15,0.004,-0.072,-0.54,37.0,25.93,0.0,18.0,3880.0,13.0,-0.46,0.01,-0.95,-0.35,1.27,0.68,0.62,600.0,,,0.0,1.0,1.0,100.0
9480,1,walk,walk,20135,,20135.0,20.0,2.0,6.0,2.0,0.15,0.004,0.034,-0.512,37.0,25.93,0.0,18.0,3880.0,13.0,-0.46,0.01,-0.95,-0.35,1.26,0.7,0.63,600.0,,,0.0,1.0,1.0,100.0
9500,1,walk,walk,20136,,20136.0,20.0,2.0,6.0,2.0,0.15,0.004,-0.017,-0.552,36.0,25.93,0.0,18.0,3880.0,13.0,-0.46,0.01,-0.95,-0.35,1.26,0.73,0.63,600.0,,,0.0,1.0,1.0,100.0
9520,1,walk,walk,20137,,20137.0,20.0,2.0,6.0,2.0,0.15,0.004,0.057,-0.49,37.0,25.93,0.0,18.0,3880.0,13.0,-0.46,0.01,-0.95,-0.35,1.27,0.75,0.63,600.0,,,0.0,1.0,1.0,100.0
9540,1,walk,walk,20138,,20138.0,20.0,2.0,6.0,2.0,0.15,0.004,0.001,-0.523,37.0,25.9,0.0,18.0,3880.0,13.0,-0.46,0.01,-0.95,-0.35,1.29,0.77,0.62,600.0,,,0.0,1.0,1.0,100.0
9540,1,walk,walk,20139,,20139.0,20.0,2.0,6.0,2.0,0.15,0.004,-0.03,-0.515,36.0,25.93,0.0,18.0,3880.0,13.0,-0.47,0.01,-0.95,-0.35,1.31,0.79,0.61,600.0,,,0.0,1.0,1.0,100.0
9580,1,walk,walk,20140,,20140.0,20.0,2.0,6.0,2.0,0.15,0.004,0.091,-0.503,37.0,25.93,0.0,18.0,3880.0,13.0,-0.47,0.01,-0.95,-0.35,1.33,0.8,0.6,600.0,,,0.0,1.0,1.0,100.0
9580,1,walk,walk,20141,,20141.0,20.0,2.0,6.0,2.0,0.15,0.004,0.029,-0.51,37.0,25.93,0.0,18.0,3880.0,13.0,-0.47,0.01,-0.95,-0.35,1.35,0.81,0.6,600.0,,,0.0,1.0,1.0,100.0
9600,1,walk,walk,20142,,20142.0,20.0,2.0,6.0,2.0,0.15,0.004,0.006,-0.572,37.0,25.93,0.0,18.0,3880.0,13.0,-0.47,0.01,-0.95,-0.35,1.37,0.82,0.6,600.0,,,0.0,1.0,1.0,100.0
9620,1,walk,walk,20143,,20143.0,20.0,2.0,6.0,2.0,0.15,0.004,-0.009,-0.491,36.0,25.93,0.0,18.0,3880.0,13.0,-0.48,0.01,-0.95,-0.35,1.39,0.82,0.61,600.0,,,0.0,1.0,1.0,100.0
9640,1,walk,walk,20144,,20144.0,20.0,2.0,6.0,2.0,0.15,0.004,-0.005,-0.512,37.0,25.93,0.0,18.0,3880.0,13.0,-0.48,0.01,-0.95,-0.35,1.4,0.83,0.61,600.0,,,0.0,1.0,1.0,100.0
9660,1,walk,walk,20145,,20145.0,20.0,2.0,6.0,2.0,0.15,0.004,-0.054,-0.511,36.0,25.93,0.0,18.0,3880.0,13.0,-0.48,0.01,-0.95,-0.35,1.41,0.84,0.61,600.0,,,0.0,1.0,1.0,100.0
9720,1,walk,walk,20146,,20146.0,20.0,2.0,6.0,2.0,0.15,0.004,-0.015,-0.538,36.0,25.93,0.0,18.0,3880.0,13.0,-0.48,0.01,-0.95,-0.35,1.41,0.85,0.61,600.0,,,0.0,1.0,1.0,100.0
9720,1,walk,walk,20147,,20147.0,20.0,2.0,6.0,2.0,0.15,0.004,-0.005,-0.534,37.0,25.93,0.0,18.0,3880.0,13.0,-0.48,0.01,-0.95,-0.35,1.41,0.86,0.61,600.0,,,0.0,1.0,1.0,100.0
9720,1,walk,walk,20148,,20148.0,20.0,2.0,6.0,2.0,0.14,0.004,0.075,-0.502,36.0,25.93,0.0,18.0,3880.0,13.0,-0.48,0.01,-0.95,-0.35,1.4,0.88,0.61,600.0,,,0.0,1.0,1.0,100.0
9760,1,walk,walk,20149,,20149.0,20.0,2.0,6.0,2.0,0.14,0.004,-0.077,-0.515,36.0,25.93,0.0,18.0,3880.0,13.0,-0.48,0.01,-0.95,-0.35,1.39,0.89,0.6,600.0,,,0.0,1.0,1.0,100.0
9760,1,walk,walk,20150,,20150.0,20.0,2.0,6.0,2.0,0.14,0.004,0.06,-0.542,37.0,25.93,0.0,18.0,3880.0,13.0,-0.47,0.01,-0.95,-0.35,1.38,0.9,0.6,600.0,,,0.0,1.0,1.0,100.0
9800,1,walk,walk,20151,,20151.0,20.0,2.0,6.0,2.0,0.14,0.004,-0.002,-0.522,36.0,25.93,0.0,18.0,3880.0,13.0,-0.47,0.01,-0.95,-0.35,1.37,0.91,0.59,600.0,,,0.0,1.0,1.0,100.0
9820,1,walk,walk,20152,,20152.0,20.0,2.0,6.0,2.0,0.14,0.004,0.049,-0.527,36.0,25.93,0.0,18.0,3880.0,13.0,-0.46,0.01,-0.95,-0.35,1.36,0.93,0.6,600.0,,,0.0,1.0,1.0,100.0
9840,1,walk,walk,20153,,20153.0,20.0,2.0,6.0,2.0,0.14,0.004,0.014,-0.531,36.0,25.93,0.0,18.0,3880.0,13.0,-0.46,0.01,-0.95,-0.35,1.36,0.96,0.6,600.0,,,0.0,1.0,1.0,100.0
9860,1,walk,walk,20154,,20154.0,20.0,2.0,6.0,2.0,0.14,0.004,-0.044,-0.511,36.0,25.93,0.0,18.0,3880.0,13.0,-0.46,0.01,-0.95,-0.35,1.35,0.99,0.61,600.0,,,0.0,1.0,1.0,100.0
9880,1,walk,walk,20155,,20155.0,20.0,2.0,6.0,2.0,0.14,0.004,0.033,-0.56,36.0,25.93,0.0,18.0,3880.0,13.0,-0.46,0.01,-0.95,-0.35,1.35,1.02,0.62,600.0,,,0.0,1.0,1.0,100.0
9880,1,walk,walk,20156,,20156.0,20.0,2.0,6.0,2.0,0.14,0.004,-0.015,-0.508,36.0,25.93,0.0,18.0,3880.0,13.0,-0.45,0.01,-0.95,-0.35,1.36,1.03,0.62,600.0,,,0.0,1.0,1.0,100.0
9900,1,walk,walk,20157,,20157.0,20.0,2.0,6.0,2.0,0.14,0.004,0.006,-0.519,36.0,25.93,0.0,18.0,3880.0,13.0,-0.45,0.01,-0.95,-0.35,1.36,1.04,0.62,600.0,,,0.0,1.0,1.0,100.0
9940,1,walk,walk,20158,,20158.0,20.0,2.0,6.0,2.0,0.14,0.004,0.089,-0.503,36.0,25.93,0.0,18.0,3880.0,13.0,-0.45,0.01,-0.95,-0.35,1.37,1.04,0.63,600.0,,,0.0,1.0,1.0,100.0
9940,1,walk,walk,20159,,20159.0,20.0,2.0,6.0,2.0,0.14,0.004,-0.011,-0.504,37.0,25.93,0.0,18.0,3880.0,13.0,-0.45,0.01,-0.95,-0.35,1.38,1.04,0.63,600.0,,,0.0,1.0,1.0,100.0
9960,1,walk,walk,20160,,20160.0,20.0,2.0,6.0,2.0,0.14,0.004,0.036,-0.564,36.0,25.93,0.0,18.0,3880.0,13.0,-0.45,0.01,-0.95,-0.35,1.39,1.03,0.63,600.0,,,0.0,1.0,1.0,100.0
10020,1,walk,walk,20161,,20161.0,20.0,2.0,6.0,2.0,0.14,0.004,0.109,-0.506,36.0,25.93,0.0,18.0,3880.0,13.0,-0.45,0.01,-0.95,-0.35,1.4,1.02,0.63,600.0,,,0.0,1.0,1.0,100.0
10020,1,walk,walk,20162,,20162.0,20.0,2.0,6.0,2.0,0.14,0.004,-0.01,-0.48,36.0,25.93,0.0,18.0,3880.0,13.0,-0.45,0.01,-0.95,-0.35,1.41,1.01,0.63,600.0,,,0.0,1.0,1.0,100.0
10020,1,walk,walk,20163,,20163.0,20.0,2.0,6.0,2.0,0.14,0.004,-0.034,-0.521,36.0,25.93,0.0,18.0,3880.0,13.0,-0.46,0.01,-0.95,-0.35,1.42,0.99,0.63,600.0,,,0.0,1.0,1.0,100.0
10060,1,walk,walk,20164,,20164.0,20.0,2.0,6.0,2.0,0.14,0.004,0.026,-0.534,36.0,25.93,0.0,18.0,3880.0,13.0,-0.46,0.01,-0.95,-0.35,1.43,0.97,0.62,600.0,,,0.0,1.0,1.0,100.0
10060,1,walk,walk,20165,,20165.0,20.0,2.0,6.0,2.0,0.14,0.004,0.009,-0.524,36.0,25.93,0.0,18.0,3880.0,13.0,-0.46,0.01,-0.95,-0.35,1.44,0.95,0.62,600.0,,,0.0,1.0,1.0,100.0
10100,1,walk,walk,20166,,20166.0,20.0,2.0,6.0,2.0,0.14,0.004,0.033,-0.494,36.0,25.93,0.0,18.0,3880.0,13.0,-0.47,0.01,-0.95,-0.35,1.45,0.93,0.61,600.0,,,0.0,1.0,1.0,100.0
10120,1,walk,walk,20167,,20167.0,20.0,2.0,6.0,2.0,0.14,0.004,-0.003,-0.501,36.0,25.93,0.0,18.0,3880.0,13.0,-0.48,0.01,-0.95,-0.35,1.44,0.92,0.61,600.0,,,0.0,1.0,1.0,100.0
10120,1,walk,walk,20168,,20168.0,20.0,2.0,6.0,2.0,0.14,0.004,0.002,-0.494,36.0,25.93,0.0,18.0,3880.0,13.0,-0.48,0.01,-0.95,-0.35,1.44,0.89,0.62,600.0,,,0.0,1.0,1.0,100.0
10140,1,walk,walk,20169,,20169.0,20.0,2.0,6.0,2.0,0.14,0.004,-0.05,-0.505,36.0,25.93,0.0,18.0,3880.0,13.0,-0.49,0.01,-0.95,-0.35,1.43,0.87,0.62,600.0,,,0.0,1.0,1.0,100.0
10180,1,walk,walk,20170,,20170.0,20.0,2.0,6.0,2.0,0.14,0.004,0.017,-0.486,36.0,25.93,0.0,18.0,3880.0,13.0,-0.49,0.01,-0.95,-0.35,1.42,0.85,0.63,600.0,,,0.0,1.0,1.0,100.0
10220,1,walk,walk,20171,,20171.0,20.0,2.0,6.0,2.0,0.14,0.004,-0.054,-0.512,36.0,25.93,0.0,18.0,3880.0,13.0,-0.49,0.01,-0.95,-0.35,1.42,0.83,0.63,600.0,,,0.0,1.0,1.0,100.0
10220,1,walk,walk,20172,,20172.0,20.0,2.0,6.0,2.0,0.14,0.004,-0.018,-0.52,36.0,25.93,0.0,18.0,3880.0,13.0,-0.5,0.01,-0.95,-0.35,1.41,0.82,0.64,600.0,,,0.0,1.0,1.0,100.0
10240,1,walk,walk,20173,,20173.0,20.0,2.0,6.0,2.0,0.14,0.004,0.12,-0.548,36.0,25.93,0.0,18.0,3880.0,13.0,-0.5,0.01,-0.95,-0.35,1.41,0.81,0.65,600.0,,,0.0,1.0,1.0,100.0
10240,1,walk,walk,20174,,20174.0,20.0,2.0,6.0,2.0,0.14,0.004,-0.065,-0.519,36.0,25.93,0.0,18.0,3880.0,13.0,-0.49,0.01,-0.95,-0.35,1.41,0.8,0.65,600.0,,,0.0,1.0,1.0,100.0
10260,1,walk,walk,20175,,20175.0,20.0,2.0,6.0,2.0,0.14,0.004,0.042,-0.51,36.0,25.93,0.0,18.0,3880.0,13.0,-0.49,0.01,-0.95,-0.35,1.42,0.8,0.65,600.0,,,0.0,1.0,1.0,100.0
10280,1,walk,walk,20176,,20176.0,20.0,2.0,6.0,2.0,0.14,0.004,-0.019,-0.493,36.0,25.93,0.0,18.0,3880.0,13.0,-0.48,0.01,-0.95,-0.35,1.42,0.82,0.64,600.0,,,0.0,1.0,1.0,100.0
10320,1,walk,walk,20177,,20177.0,20.0,2.0,6.0,2.0,0.14,0.004,-0.014,-0.515,36.0,25.93,0.0,18.0,3880.0,13.0,-0.47,0.01,-0.95,-0.35,1.43,0.83,0.63,600.0,,,0.0,1.0,1.0,100.0
10340,1,walk,walk,20178,,20178.0,20.0,2.0,6.0,2.0,0.14,0.004,-0.068,-0.507,36.0,25.93,0.0,18.0,3880.0,13.0,-0.46,0.01,-0.95,-0.35,1.45,0.86,0.61,600.0,,,0.0,1.0,1.0,100.0
10340,1,walk,walk,20179,,20179.0,20.0,2.0,6.0,2.0,0.14,0.004,-0.045,-0.519,36.0,25.93,0.0,18.0,3880.0,13.0,-0.45,0.01,-0.95,-0.35,1.45,0.89,0.59,600.0,,,0.0,1.0,1.0,100.0
10360,1,walk,walk,20180,,20180.0,20.0,2.0,6.0,2.0,0.14,0.004,0.025,-0.522,36.0,25.93,0.0,18.0,3880.0,13.0,-0.45,0.01,-0.95,-0.35,1.46,0.92,0.56,600.0,,,0.0,1.0,1.0,100.0
10380,1,walk,walk,20181,,20181.0,20.0,2.0,6.0,2.0,0.14,0.004,-0.007,-0.511,36.0,25.93,0.0,18.0,3880.0,13.0,-0.44,0.01,-0.95,-0.35,1.46,0.95,0.54,600.0,,,0.0,1.0,1.0,100.0
10420,1,walk,walk,20182,,20182.0,20.0,2.0,6.0,2.0,0.14,0.004,-0.104,-0.554,36.0,25.93,0.0,18.0,3880.0,13.0,-0.44,0.01,-0.95,-0.35,1.46,0.97,0.52,600.0,,,0.0,1.0,1.0,100.0
10420,1,walk,walk,20183,,20183.0,20.0,2.0,6.0,2.0,0.14,0.004,0.04,-0.549,36.0,25.93,0.0,18.0,3880.0,13.0,-0.44,0.01,-0.95,-0.35,1.46,0.99,0.51,600.0,,,0.0,1.0,1.0,100.0
10440,1,walk,walk,20184,,20184.0,20.0,2.0,6.0,2.0,0.14,0.004,0.041,-0.54,36.0,25.93,0.0,18.0,3880.0,13.0,-0.44,0.01,-0.95,-0.35,1.44,1.0,0.5,600.0,,,0.0,1.0,1.0,100.0
10500,1,walk,walk,20185,,20185.0,20.0,2.0,6.0,2.0,0.14,0.004,-0.034,-0.523,36.0,25.93,0.0,18.0,3880.0,13.0,-0.44,0.01,-0.95,-0.35,1.43,1.01,0.51,600.0,,,0.0,1.0,1.0,100.0
10500,1,walk,walk,20186,,20186.0,20.0,2.0,6.0,2.0,0.14,0.004,-0.066,-0.54,36.0,25.93,0.0,18.0,3880.0,13.0,-0.44,0.01,-0.95,-0.35,1.4,1.01,0.51,600.0,,,0.0,1.0,1.0,100.0
10540,1,walk,walk,20187,,20187.0,20.0,2.0,6.0,2.0,0.14,0.004,-0.066,-0.524,36.0,25.93,0.0,18.0,3880.0,13.0,-0.44,0.01,-0.95,-0.35,1.37,1.0,0.51,600.0,,,0.0,1.0,1.0,100.0
10540,1,walk,walk,20188,,20188.0,20.0,2.0,6.0,2.0,0.14,0.004,-0.022,-0.536,36.0,25.93,0.0,18.0,3880.0,13.0,-0.44,0.01,-0.95,-0.35,1.35,0.98,0.51,600.0,,,0.0,1.0,1.0,100.0
10560,1,walk,walk,20189,,20189.0,20.0,2.0,6.0,2.0,0.14,0.004,0.066,-0.526,36.0,25.93,0.0,18.0,3880.0,13.0,-0.44,0.01,-0.95,-0.35,1.33,0.96,0.51,600.0,,,0.0,1.0,1.0,100.0
10560,1,walk,walk,20190,,20190.0,20.0,2.0,6.0,2.0,0.14,0.004,0.017,-0.52,36.0,25.93,0.0,18.0,3880.0,13.0,-0.44,0.01,-0.95,-0.35,1.31,0.94,0.49,600.0,,,0.0,1.0,1.0,100.0
10600,1,walk,walk,20191,,20191.0,20.0,2.0,6.0,2.0,0.14,0.004,-0.036,-0.533,36.0,25.93,0.0,18.0,3880.0,13.0,-0.44,0.01,-0.95,-0.35,1.3,0.92,0.48,600.0,,,0.0,1.0,1.0,100.0
10600,1,walk,walk,20192,,20192.0,20.0,2.0,6.0,2.0,0.14,0.004,0.017,-0.532,36.0,25.93,0.0,18.0,3880.0,13.0,-0.45,0.01,-0.95,-0.35,1.3,0.91,0.47,600.0,,,0.0,1.0,1.0,100.0
10620,1,walk,walk,20193,,20193.0,20.0,2.0,6.0,2.0,0.13,0.004,0.053,-0.52,36.0,25.93,0.0,18.0,3880.0,13.0,-0.46,0.01,-0.95,-0.35,1.3,0.9,0.47,600.0,,,0.0,1.0,1.0,100.0
10660,1,walk,walk,20194,,20194.0,20.0,2.0,6.0,2.0,0.13,0.004,-0.046,-0.57,36.0,25.93,0.0,18.0,3880.0,13.0,-0.47,0.01,-0.95,-0.35,1.3,0.9,0.48,600.0,,,0.0,1.0,1.0,100.0
10660,1,walk,walk,20195,,20195.0,20.0,2.0,6.0,2.0,0.13,0.004,-0.01,-0.538,36.0,25.93,0.0,18.0,3880.0,13.0,-0.48,0.01,-0.95,-0.35,1.32,0.89,0.5,600.0,,,0.0,1.0,1.0,100.0
10680,1,walk,walk,20196,,20196.0,20.0,2.0,6.0,2.0,0.13,0.004,0.056,-0.506,36.0,25.93,0.0,18.0,3880.0,13.0,-0.49,0.01,-0.95,-0.35,1.34,0.88,0.54,600.0,,,0.0,1.0,1.0,100.0
10700,1,walk,walk,20197,,20197.0,20.0,2.0,6.0,2.0,0.13,0.004,0.12,-0.523,36.0,25.93,0.0,18.0,3880.0,13.0,-0.51,0.01,-0.95,-0.35,1.39,0.87,0.59,600.0,,,0.0,1.0,1.0,100.0
10720,1,walk,walk,20198,,20198.0,20.0,2.0,6.0,2.0,0.13,0.004,0.026,-0.499,36.0,25.93,0.0,18.0,3880.0,13.0,-0.52,0.01,-0.95,-0.35,1.46,0.87,0.65,600.0,,,0.0,1.0,1.0,100.0
10740,1,walk,walk,20199,,20199.0,20.0,2.0,6.0,2.0,0.13,0.004,0.087,-0.538,36.0,25.93,0.0,18.0,3880.0,13.0,-0.52,0.01,-0.95,-0.35,1.58,0.89,0.72,600.0,,,0.0,1.0,1.0,100.0
10760,1,walk,walk,20200,,20200.0,20.0,2.0,6.0,2.0,0.12,0.004,0.011,-0.539,36.0,25.93,0.0,18.0,3880.0,13.0,-0.53,0.01,-0.95,-0.35,1.78,0.93,0.8,600.0,,,0.0,1.0,1.0,100.0
10800,1,walk,walk,20201,,20201.0,20.0,2.0,6.0,2.0,0.12,0.004,0.076,-0.548,36.0,25.93,0.0,18.0,3880.0,13.0,-0.53,0.01,-0.95,-0.35,2.11,1.0,0.85,600.0,,,0.0,1.0,1.0,100.0
10820,1,walk,walk,20202,,20202.0,20.0,2.0,6.0,2.0,0.12,0.004,0.032,-0.634,36.0,25.93,0.0,18.0,3880.0,13.0,-0.51,0.01,-0.95,-0.35,2.58,1.1,0.85,600.0,,,0.0,1.0,1.0,100.0
10840,1,walk,walk,20203,,20203.0,20.0,2.0,6.0,2.0,0.12,0.005,0.111,-0.696,36.0,25.9,0.0,18.0,3880.0,13.0,-0.48,0.01,-0.95,-0.35,3.23,1.23,0.78,600.0,,,0.0,1.0,1.0,100.0
10840,1,walk,walk,20204,,20204.0,20.0,2.0,6.0,2.0,0.12,0.006,0.136,-0.817,36.0,25.93,0.0,18.0,3880.0,13.0,-0.44,0.01,-0.95,-0.35,4.04,1.38,0.61,600.0,,,0.0,1.0,1.0,100.0
10860,1,walk,walk,20205,,20205.0,20.0,2.0,6.0,2.0,0.12,0.007,0.091,-0.924,36.0,25.9,0.0,18.0,3880.0,13.0,-0.39,0.01,-0.95,-0.35,5.01,1.58,0.32,600.0,,,0.0,1.0,1.0,100.0
10900,1,walk,walk,20206,,20206.0,20.0,2.0,6.0,2.0,0.12,0.007,0.015,-0.911,36.0,25.9,0.0,18.0,3880.0,13.0,-0.32,0.01,-0.95,-0.35,6.1,1.83,-0.09,600.0,,,0.0,1.0,1.0,100.0
10900,1,walk,walk,20207,,20207.0,20.0,2.0,6.0,2.0,0.12,0.007,-0.037,-0.918,36.0,25.9,0.0,18.0,3880.0,13.0,-0.25,0.0,-0.96,-0.35,7.28,2.15,-0.59,600.0,,,0.0,1.0,1.0,100.0
10920,1,walk,walk,20208,,20208.0,20.0,2.0,6.0,2.0,0.12,0.007,0.085,-0.87,36.0,25.9,0.0,18.0,3880.0,13.0,-0.2,0.0,-0.96,-0.35,8.51,2.55,-1.18,600.0,,,0.0,1.0,1.0,100.0
10980,1,walk,walk,20209,,20209.0,20.0,2.0,6.0,2.0,0.12,0.007,0.06,-0.839,36.0,25.9,0.0,18.0,3880.0,13.0,-0.18,0.0,-0.96,-0.35,9.72,3.06,-1.82,600.0,,,0.0,1.0,1.0,100.0
10980,1,walk,walk,20210,,20210.0,20.0,2.0,6.0,2.0,0.12,0.006,0.042,-0.851,36.0,25.93,0.0,18.0,3880.0,13.0,-0.2,0.0,-0.96,-0.35,10.84,3.69,-2.46,600.0,,,0.0,1.0,1.0,100.0
10980,1,walk,walk,20211,,20211.0,20.0,2.0,6.0,2.0,0.11,0.006,-0.057,-0.836,36.0,25.93,0.0,18.0,3880.0,13.0,-0.27,0.0,-0.96,-0.34,11.82,4.44,-3.08,600.0,,,0.0,1.0,1.0,100.0
11000,1,walk,walk,20212,,20212.0,20.0,2.0,6.0,2.0,0.1,0.006,-0.017,-0.849,36.0,25.93,0.0,18.0,3880.0,13.0,-0.39,0.01,-0.96,-0.34,12.6,5.3,-3.63,600.0,,,0.0,1.0,1.0,100.0
11020,1,walk,walk,20213,,20213.0,20.0,2.0,6.0,2.0,0.09,0.007,-0.054,-0.866,36.0,25.93,0.0,18.0,3880.0,13.0,-0.56,0.01,-0.96,-0.33,13.15,6.26,-4.08,600.0,,,0.0,1.0,1.0,100.0
11040,1,walk,walk,20214,,20214.0,20.0,2.0,6.0,2.0,0.07,0.006,-0.042,-0.847,36.0,25.93,0.0,18.0,3880.0,13.0,-0.77,0.01,-0.96,-0.33,13.49,7.3,-4.41,600.0,,,0.0,1.0,1.0,100.0
11060,1,walk,walk,20215,,20215.0,20.0,2.0,6.0,2.0,0.05,0.006,0.015,-0.813,36.0,25.93,0.0,18.0,3880.0,13.0,-0.99,0.02,-0.96,-0.32,13.61,8.4,-4.61,600.0,,,0.0,1.0,1.0,100.0
11080,1,walk,walk,20216,,20216.0,20.0,2.0,6.0,2.0,0.02,0.006,-0.019,-0.804,36.0,25.93,0.0,18.0,3880.0,13.0,-1.23,0.02,-0.96,-0.31,13.54,9.51,-4.69,600.0,,,0.0,1.0,1.0,100.0
11120,1,walk,walk,20217,,20217.0,20.0,2.0,6.0,2.0,-0.01,0.006,-0.022,-0.768,36.0,25.93,0.0,18.0,3880.0,13.0,-1.47,0.02,-0.96,-0.31,13.3,10.57,-4.65,600.0,,,0.0,1.0,1.0,100.0
11140,1,walk,walk,20218,,20218.0,20.0,2.0,6.0,2.0,-0.05,0.006,-0.037,-0.747,36.0,25.93,0.0,18.0,3880.0,13.0,-1.71,0.03,-0.96,-0.3,12.9,11.52,-4.51,600.0,,,0.0,1.0,1.0,100.0
11140,1,walk,walk,20219,,20219.0,20.0,2.0,6.0,2.0,-0.1,0.006,-0.022,-0.759,36.0,25.93,0.0,18.0,3880.0,13.0,-1.95,0.03,-0.96,-0.3,12.37,12.28,-4.27,600.0,,,0.0,1.0,1.0,100.0
11160,1,walk,walk,20220,,20220.0,20.0,2.0,6.0,2.0,-0.15,0.006,-0.001,-0.77,36.0,25.93,0.0,18.0,3880.0,13.0,-2.18,0.04,-0.97,-0.29,11.69,12.76,-3.96,600.0,,,0.0,1.0,1.0,100.0
11180,1,walk,walk,20221,,20221.0,20.0,2.0,6.0,2.0,-0.21,0.006,-0.072,-0.799,36.0,25.93,0.0,18.0,3880.0,13.0,-2.39,0.04,-0.97,-0.28,10.9,12.9,-3.57,600.0,,,0.0,1.0,1.0,100.0
11220,1,walk,walk,20222,,20222.0,20.0,2.0,6.0,2.0,-0.28,0.006,0.068,-0.801,36.0,25.9,0.0,18.0,3880.0,13.0,-2.59,0.04,-0.97,-0.28,9.98,12.63,-3.12,600.0,,,0.0,1.0,1.0,100.0
11240,1,walk,walk,20223,,20223.0,20.0,2.0,6.0,2.0,-0.35,0.006,-0.092,-0.79,36.0,25.93,0.0,18.0,3880.0,13.0,-2.77,0.05,-0.97,-0.27,8.96,11.92,-2.63,600.0,,,0.0,1.0,1.0,100.0
11280,1,walk,walk,20224,,20224.0,20.0,2.0,6.0,2.0,-0.43,0.006,0.049,-0.8,36.0,25.93,0.0,18.0,3880.0,13.0,-2.9,0.05,-0.97,-0.27,7.84,10.76,-2.12,600.0,,,0.0,1.0,1.0,100.0
11280,1,walk,walk,20225,,20225.0,20.0,2.0,6.0,2.0,-0.51,0.006,-0.054,-0.812,36.0,25.93,0.0,18.0,3880.0,13.0,-3.01,0.05,-0.97,-0.27,6.63,9.19,-1.61,600.0,,,0.0,1.0,1.0,100.0
11300,1,walk,walk,20226,,20226.0,20.0,2.0,6.0,2.0,-0.59,0.006,-0.007,-0.804,36.0,25.93,0.0,18.0,3880.0,13.0,-3.09,0.05,-0.97,-0.26,5.37,7.28,-1.12,600.0,,,0.0,1.0,1.0,100.0
11300,1,walk,walk,20227,,20227.0,20.0,2.0,6.0,2.0,-0.67,0.006,-0.088,-0.809,36.0,25.93,0.0,18.0,3880.0,13.0,-3.15,0.05,-0.97,-0.26,4.08,5.16,-0.65,600.0,,,0.0,1.0,1.0,100.0
11320,1,walk,walk,20228,,20228.0,20.0,2.0,6.0,2.0,-0.75,0.006,0.041,-0.826,36.0,25.93,0.0,18.0,3880.0,13.0,-3.19,0.05,-0.97,-0.26,2.8,2.98,-0.22,600.0,,,0.0,1.0,1.0,100.0
11340,1,walk,walk,20229,,20229.0,20.0,2.0,6.0,2.0,-0.84,0.006,-0.073,-0.795,36.0,25.93,0.0,18.0,3880.0,13.0,-3.21,0.05,-0.97,-0.26,1.57,0.9,0.19,600.0,,,0.0,1.0,1.0,100.0
11360,1,walk,walk,20230,,20230.0,20.0,2.0,6.0,2.0,-0.91,0.006,-0.054,-0.819,36.0,25.93,0.0,18.0,3880.0,13.0,-3.22,0.05,-0.97,-0.26,0.44,-0.92,0.56,600.0,,,0.0,1.0,1.0,100.0
11380,1,walk,walk,20231,,20231.0,20.0,2.0,6.0,2.0,-0.99,0.006,0.083,-0.807,36.0,25.9,0.0,18.0,3880.0,13.0,-3.22,0.05,-0.97,-0.26,-0.55,-2.35,0.89,600.0,,,0.0,1.0,1.0,100.0
11400,1,walk,walk,20232,,20232.0,20.0,2.0,6.0,2.0,-1.06,0.006,-0.045,-0.795,36.0,25.93,0.0,18.0,3880.0,13.0,-3.2,0.05,-0.97,-0.26,-1.36,-3.32,1.17,600.0,,,0.0,1.0,1.0,100.0
11460,1,walk,walk,20233,,20233.0,20.0,2.0,6.0,2.0,-1.13,0.006,-0.108,-0.784,36.0,25.93,0.0,18.0,3880.0,13.0,-3.17,0.05,-0.97,-0.27,-1.96,-3.8,1.41,600.0,,,0.0,1.0,1.0,100.0
11460,1,walk,walk,20234,,20234.0,20.0,2.0,6.0,2.0,-1.19,0.006,0.006,-0.776,36.0,25.93,0.0,18.0,3880.0,13.0,-3.14,0.05,-0.97,-0.27,-2.33,-3.83,1.61,600.0,,,0.0,1.0,1.0,100.0
11460,1,walk,walk,20235,,20235.0,20.0,2.0,6.0,2.0,-1.25,0.006,0.064,-0.801,36.0,25.93,0.0,18.0,3880.0,13.0,-3.1,0.05,-0.97,-0.27,-2.48,-3.45,1.79,600.0,,,0.0,1.0,1.0,100.0
11500,1,walk,walk,20236,,20236.0,20.0,2.0,6.0,2.0,-1.3,0.006,0.009,-0.813,36.0,25.93,0.0,18.0,3880.0,13.0,-3.07,0.05,-0.97,-0.28,-2.4,-2.75,1.95,600.0,,,0.0,1.0,1.0,100.0
11500,1,walk,walk,20237,,20237.0,20.0,2.0,6.0,2.0,-1.35,0.006,-0.023,-0.82,36.0,25.9,0.0,18.0,3880.0,13.0,-3.04,0.05,-0.97,-0.28,-2.11,-1.81,2.11,600.0,,,0.0,1.0,1.0,100.0
11520,1,walk,walk,20238,,20238.0,20.0,2.0,6.0,2.0,-1.39,0.006,0.009,-0.823,36.0,25.93,0.0,18.0,3880.0,13.0,-3.02,0.05,-0.97,-0.29,-1.64,-0.7,2.29,600.0,,,0.0,1.0,1.0,100.0
11540,1,walk,walk,20239,,20239.0,20.0,2.0,6.0,2.0,-1.43,0.006,-0.001,-0.814,36.0,25.93,0.0,18.0,3880.0,13.0,-3.01,0.05,-0.97,-0.29,-1.02,0.49,2.49,600.0,,,0.0,1.0,1.0,100.0
11560,1,walk,walk,20240,,20240.0,20.0,2.0,6.0,2.0,-1.46,0.007,0.025,-0.825,36.0,25.9,0.0,18.0,3880.0,13.0,-2.99,0.05,-0.97,-0.29,-0.29,1.7,2.72,600.0,,,0.0,1.0,1.0,100.0
11600,1,walk,walk,20241,,20241.0,20.0,2.0,6.0,2.0,-1.48,0.006,-0.023,-0.856,36.0,25.93,0.0,18.0,3880.0,13.0,-2.98,0.05,-0.97,-0.3,0.52,2.88,2.97,600.0,,,0.0,1.0,1.0,100.0
11620,1,walk,walk,20242,,20242.0,20.0,2.0,6.0,2.0,-1.5,0.007,0.009,-0.871,36.0,25.93,0.0,18.0,3880.0,13.0,-2.95,0.05,-0.97,-0.3,1.36,3.98,3.24,600.0,,,0.0,1.0,1.0,100.0
11640,1,walk,walk,20243,,20243.0,20.0,2.0,6.0,2.0,-1.51,0.007,-0.003,-0.867,36.0,25.9,0.0,18.0,3880.0,13.0,-2.92,0.05,-0.97,-0.3,2.19,4.96,3.5,600.0,,,0.0,1.0,1.0,100.0
11640,1,walk,walk,20244,,20244.0,20.0,2.0,6.0,2.0,-1.52,0.007,0.061,-0.886,36.0,25.93,0.0,18.0,3880.0,13.0,-2.87,0.05,-0.97,-0.3,2.98,5.78,3.75,600.0,,,0.0,1.0,1.0,100.0
11660,1,walk,walk,20245,,20245.0,20.0,2.0,6.0,2.0,-1.52,0.007,0.025,-0.885,36.0,25.93,0.0,18.0,3880.0,13.0,-2.8,0.05,-0.97,-0.3,3.69,6.41,3.97,600.0,,,0.0,1.0,1.0,100.0
11680,1,walk,walk,20246,,20246.0,20.0,2.0,6.0,2.0,-1.52,0.007,0.058,-0.882,36.0,25.9,0.0,18.0,3880.0,13.0,-2.72,0.05,-0.97,-0.29,4.31,6.85,4.13,600.0,,,0.0,1.0,1.0,100.0
11700,1,walk,walk,20247,,20247.0,20.0,2.0,6.0,2.0,-1.51,0.007,-0.075,-0.903,36.0,25.93,0.0,18.0,3880.0,13.0,-2.63,0.04,-0.97,-0.29,4.8,7.08,4.23,600.0,,,0.0,1.0,1.0,100.0
11740,1,walk,walk,20248,,20248.0,20.0,2.0,6.0,2.0,-1.5,0.007,0.108,-0.916,36.0,25.93,0.0,18.0,3880.0,13.0,-2.53,0.04,-0.97,-0.29,5.15,7.12,4.25,600.0,,,0.0,1.0,1.0,100.0
11760,1,walk,walk,20249,,20249.0,20.0,2.0,6.0,2.0,-1.48,0.007,-0.076,-0.905,36.0,25.93,0.0,18.0,3880.0,13.0,-2.42,0.04,-0.97,-0.29,5.35,6.98,4.19,600.0,,,0.0,1.0,1.0,100.0
11780,1,walk,walk,20250,,20250.0,20.0,2.0,6.0,2.0,-1.46,0.007,0.056,-0.919,36.0,25.9,0.0,18.0,3880.0,13.0,-2.31,0.04,-0.97,-0.28,5.37,6.69,4.04,600.0,,,0.0,1.0,1.0,100.0
11800,1,walk,walk,20251,,20251.0,20.0,2.0,6.0,2.0,-1.43,0.007,-0.048,-0.909,36.0,25.93,0.0,18.0,3880.0,13.0,-2.2,0.04,-0.97,-0.28,5.23,6.25,3.81,600.0,,,0.0,1.0,1.0,100.0
11800,1,walk,walk,20252,,20252.0,20.0,2.0,6.0,2.0,-1.4,0.007,0.155,-0.908,36.0,25.9,0.0,18.0,3880.0,13.0,-2.09,0.04,-0.97,-0.27,4.93,5.7,3.49,600.0,,,0.0,1.0,1.0,100.0
11820,1,walk,walk,20253,,20253.0,20.0,2.0,6.0,2.0,-1.37,0.007,0.001,-0.913,36.0,25.9,0.0,18.0,3880.0,13.0,-1.99,0.03,-0.97,-0.27,4.48,5.04,3.1,600.0,,,0.0,1.0,1.0,100.0
11840,1,walk,walk,20254,,20254.0,20.0,2.0,6.0,2.0,-1.33,0.007,-0.064,-0.915,36.0,25.93,0.0,18.0,3880.0,13.0,-1.91,0.03,-0.97,-0.27,3.92,4.3,2.66,600.0,,,0.0,1.0,1.0,100.0
11860,1,walk,walk,20255,,20255.0,20.0,2.0,6.0,2.0,-1.3,0.007,-0.065,-0.897,36.0,25.9,0.0,18.0,3880.0,13.0,-1.85,0.03,-0.98,-0.26,3.27,3.49,2.19,600.0,,,0.0,1.0,1.0,100.0
11900,1,walk,walk,20256,,20256.0,20.0,2.0,6.0,2.0,-1.26,0.007,0.028,-0.901,36.0,25.9,0.0,18.0,3880.0,13.0,-1.81,0.03,-0.98,-0.26,2.57,2.63,1.71,600.0,,,0.0,1.0,1.0,100.0
11920,1,walk,walk,20257,,20257.0,20.0,2.0,6.0,2.0,-1.22,0.007,0.04,-0.92,36.0,25.93,0.0,18.0,3880.0,13.0,-1.8,0.03,-0.98,-0.26,1.86,1.77,1.25,600.0,,,0.0,1.0,1.0,100.0
11940,1,walk,walk,20258,,20258.0,20.0,2.0,6.0,2.0,-1.18,0.007,-0.048,-0.914,36.0,25.9,0.0,18.0,3880.0,13.0,-1.81,0.03,-0.98,-0.26,1.17,0.93,0.84,600.0,,,0.0,1.0,1.0,100.0
11960,1,walk,walk,20259,,20259.0,20.0,2.0,6.0,2.0,-1.14,0.007,-0.104,-0.904,36.0,25.9,0.0,18.0,3880.0,13.0,-1.85,0.03,-0.98,-0.26,0.55,0.17,0.49,600.0,,,0.0,1.0,1.0,100.0
11980,1,walk,walk,20260,,20260.0,20.0,2.0,6.0,2.0,-1.1,0.007,0.014,-0.898,36.0,25.9,0.0,18.0,3880.0,13.0,-1.9,0.03,-0.98,-0.26,0.03,-0.46,0.22,600.0,,,0.0,1.0,1.0,100.0
11980,1,walk,walk,20261,,20261.0,20.0,2.0,6.0,2.0,-1.07,0.007,-0.058,-0.902,36.0,25.93,0.0,18.0,3880.0,13.0,-1.97,0.03,-0.98,-0.26,-0.38,-0.93,0.04,600.0,,,0.0,1.0,1.0,100.0
12000,1,walk,walk,20262,,20262.0,20.0,2.0,6.0,2.0,-1.04,0.007,0.1,-0.871,36.0,25.9,0.0,18.0,3880.0,13.0,-2.04,0.03,-0.98,-0.27,-0.66,-1.21,-0.06,600.0,,,0.0,1.0,1.0,100.0
12020,1,walk,walk,20263,,20263.0,20.0,2.0,6.0,2.0,-1.02,0.007,-0.023,-0.856,36.0,25.9,0.0,18.0,3880.0,13.0,-2.11,0.04,-0.98,-0.27,-0.81,-1.31,-0.08,600.0,,,0.0,1.0,1.0,100.0
12040,1,walk,walk,20264,,20264.0,20.0,2.0,6.0,2.0,-1.0,0.007,-0.04,-0.884,36.0,25.93,0.0,18.0,3880.0,13.0,-2.18,0.04,-0.98,-0.27,-0.83,-1.26,-0.03,600.0,,,0.0,1.0,1.0,100.0
12060,1,walk,walk,20265,,20265.0,20.0,2.0,6.0,2.0,-0.98,0.007,-0.081,-0.909,36.0,25.9,0.0,18.0,3880.0,13.0,-2.24,0.04,-0.98,-0.27,-0.73,-1.08,0.07,600.0,,,0.0,1.0,1.0,100.0
12120,1,walk,walk,20266,,20266.0,20.0,2.0,6.0,2.0,-0.97,0.007,0.015,-0.896,36.0,25.93,0.0,18.0,3880.0,13.0,-2.28,0.04,-0.98,-0.28,-0.51,-0.8,0.19,600.0,,,0.0,1.0,1.0,100.0
12120,1,walk,walk,20267,,20267.0,20.0,2.0,6.0,2.0,-0.96,0.007,-0.044,-0.892,36.0,25.9,0.0,18.0,3880.0,13.0,-2.3,0.04,-0.98,-0.28,-0.21,-0.46,0.32,600.0,,,0.0,1.0,1.0,100.0
12120,1,walk,walk,20268,,20268.0,20.0,2.0,6.0,2.0,-0.95,0.007,0.07,-0.904,36.0,25.9,0.0,18.0,3880.0,13.0,-2.31,0.04,-0.98,-0.28,0.17,-0.07,0.45,600.0,,,0.0,1.0,1.0,100.0
12140,1,walk,walk,20269,,20269.0,20.0,2.0,6.0,2.0,-0.95,0.007,0.014,-0.869,36.0,25.93,0.0,18.0,3880.0,13.0,-2.31,0.04,-0.97,-0.28,0.61,0.37,0.55,600.0,,,0.0,1.0,1.0,100.0
12160,1,walk,walk,20270,,20270.0,20.0,2.0,6.0,2.0,-0.96,0.007,-0.048,-0.874,36.0,25.9,0.0,18.0,3880.0,13.0,-2.31,0.04,-0.97,-0.28,1.09,0.88,0.63,600.0,,,0.0,1.0,1.0,100.0
12180,1,walk,walk,20271,,20271.0,20.0,2.0,6.0,2.0,-0.96,0.007,-0.033,-0.87,36.0,25.93,0.0,18.0,3880.0,13.0,-2.31,0.04,-0.97,-0.28,1.58,1.47,0.68,600.0,,,0.0,1.0,1.0,100.0
12220,1,walk,walk,20272,,20272.0,20.0,2.0,6.0,2.0,-0.97,0.007,-0.025,-0.905,36.0,25.9,0.0,18.0,3880.0,13.0,-2.32,0.04,-0.97,-0.29,2.08,2.15,0.71,600.0,,,0.0,1.0,1.0,100.0
12260,1,walk,walk,20273,,20273.0,20.0,2.0,6.0,2.0,-0.98,0.007,-0.041,-0.889,36.0,25.93,0.0,18.0,3880.0,13.0,-2.32,0.04,-0.97,-0.28,2.56,2.92,0.72,600.0,,,0.0,1.0,1.0,100.0
12260,1,walk,walk,20274,,20274.0,20.0,2.0,6.0,2.0,-0.99,0.007,-0.014,-0.888,36.0,25.9,0.0,18.0,3880.0,13.0,-2.33,0.04,-0.97,-0.28,3.01,3.76,0.72,600.0,,,0.0,1.0,1.0,100.0
12280,1,walk,walk,20275,,20275.0,20.0,2.0,6.0,2.0,-1.0,0.007,-0.009,-0.884,36.0,25.93,0.0,18.0,3880.0,13.0,-2.34,0.04,-0.97,-0.28,3.4,4.64,0.7,600.0,,,0.0,1.0,1.0,100.0
12300,1,walk,walk,20276,,20276.0,20.0,2.0,6.0,2.0,-1.01,0.007,-0.053,-0.855,36.0,25.93,0.0,18.0,3880.0,13.0,-2.35,0.04,-0.97,-0.28,3.71,5.51,0.68,600.0,,,0.0,1.0,1.0,100.0
12300,1,walk,walk,20277,,20277.0,20.0,2.0,6.0,2.0,-1.02,0.007,0.021,-0.856,36.0,25.93,0.0,18.0,3880.0,13.0,-2.36,0.04,-0.98,-0.28,3.94,6.31,0.63,600.0,,,0.0,1.0,1.0,100.0
12360,1,walk,walk,20278,,20278.0,20.0,2.0,6.0,2.0,-1.04,0.007,0.109,-0.832,36.0,25.93,0.0,18.0,3880.0,13.0,-2.36,0.04,-0.98,-0.28,4.09,6.99,0.57,600.0,,,0.0,1.0,1.0,100.0
12360,1,walk,walk,20279,,20279.0,20.0,2.0,6.0,2.0,-1.05,0.006,-0.042,-0.816,36.0,25.93,0.0,18.0,3880.0,13.0,-2.37,0.04,-0.98,-0.27,4.15,7.5,0.49,600.0,,,0.0,1.0,1.0,100.0
12360,1,walk,walk,20280,,20280.0,20.0,2.0,6.0,2.0,-1.06,0.006,0.058,-0.796,36.0,25.93,0.0,18.0,3880.0,13.0,-2.38,0.04,-0.98,-0.27,4.14,7.84,0.39,600.0,,,0.0,1.0,1.0,100.0
12420,1,walk,walk,20281,,20281.0,20.0,2.0,6.0,2.0,-1.07,0.006,0.049,-0.799,36.0,25.93,0.0,18.0,3880.0,13.0,-2.4,0.04,-0.98,-0.27,4.07,7.99,0.27,600.0,,,0.0,1.0,1.0,100.0
12420,1,walk,walk,20282,,20282.0,20.0,2.0,6.0,2.0,-1.09,0.006,-0.029,-0.759,36.0,25.93,0.0,18.0,3880.0,13.0,-2.42,0.04,-0.98,-0.27,3.93,8.0,0.14,600.0,,,0.0,1.0,1.0,100.0
12420,1,walk,walk,20283,,20283.0,20.0,2.0,6.0,2.0,-1.1,0.006,0.079,-0.739,36.0,25.93,0.0,18.0,3880.0,13.0,-2.47,0.04,-0.98,-0.27,3.74,7.89,0.01,600.0,,,0.0,1.0,1.0,100.0
12440,1,walk,walk,20284,,20284.0,20.0,2.0,6.0,2.0,-1.11,0.006,0.042,-0.735,36.0,25.9,0.0,18.0,3880.0,13.0,-2.53,0.04,-0.98,-0.27,3.51,7.7,-0.11,600.0,,,0.0,1.0,1.0,100.0
12460,1,walk,walk,20285,,20285.0,20.0,2.0,6.0,2.0,-1.13,0.006,-0.023,-0.749,36.0,25.93,0.0,18.0,3880.0,13.0,-2.61,0.04,-0.98,-0.26,3.24,7.45,-0.21,600.0,,,0.0,1.0,1.0,100.0
12480,1,walk,walk,20286,,20286.0,20.0,2.0,6.0,2.0,-1.14,0.006,0.053,-0.754,36.0,25.93,0.0,18.0,3880.0,13.0,-2.7,0.05,-0.98,-0.26,2.95,7.15,-0.27,600.0,,,0.0,1.0,1.0,100.0
12500,1,walk,walk,20287,,20287.0,20.0,2.0,6.0,2.0,-1.16,0.006,0.081,-0.751,36.0,25.9,0.0,18.0,3880.0,13.0,-2.79,0.05,-0.98,-0.26,2.66,6.8,-0.3,600.0,,,0.0,1.0,1.0,100.0
12520,1,walk,walk,20288,,20288.0,20.0,2.0,6.0,2.0,-1.18,0.006,-0.029,-0.744,36.0,25.93,0.0,18.0,3880.0,13.0,-2.87,0.05,-0.98,-0.26,2.38,6.39,-0.29,600.0,,,0.0,1.0,1.0,100.0
12540,1,walk,walk,20289,,20289.0,20.0,2.0,6.0,2.0,-1.19,0.006,-0.013,-0.734,36.0,25.93,0.0,18.0,3880.0,13.0,-2.94,0.05,-0.98,-0.26,2.13,5.92,-0.25,600.0,,,0.0,1.0,1.0,100.0
12580,1,walk,walk,20290,,20290.0,20.0,2.0,6.0,2.0,-1.21,0.006,-0.014,-0.757,36.0,25.9,0.0,18.0,3880.0,13.0,-3.01,0.05,-0.98,-0.26,1.89,5.39,-0.19,600.0,,,0.0,1.0,1.0,100.0
12580,1,walk,walk,20291,,20291.0,20.0,2.0,6.0,2.0,-1.24,0.006,-0.033,-0.761,36.0,25.93,0.0,18.0,3880.0,13.0,-3.07,0.05,-0.98,-0.26,1.68,4.81,-0.11,600.0,,,0.0,1.0,1.0,100.0
12600,1,walk,walk,20292,,20292.0,20.0,2.0,6.0,2.0,-1.26,0.006,0.013,-0.783,36.0,25.93,0.0,18.0,3880.0,13.0,-3.13,0.05,-0.98,-0.26,1.49,4.22,-0.01,600.0,,,0.0,1.0,1.0,100.0
12620,1,walk,walk,20293,,20293.0,20.0,2.0,6.0,2.0,-1.28,0.006,0.036,-0.784,36.0,25.93,0.0,18.0,3880.0,13.0,-3.18,0.05,-0.98,-0.26,1.33,3.62,0.11,600.0,,,0.0,1.0,1.0,100.0
12640,1,walk,walk,20294,,20294.0,20.0,2.0,6.0,2.0,-1.31,0.006,-0.05,-0.789,36.0,25.93,0.0,18.0,3880.0,13.0,-3.21,0.05,-0.98,-0.26,1.17,3.06,0.24,600.0,,,0.0,1.0,1.0,100.0
12660,1,walk,walk,20295,,20295.0,20.0,2.0,6.0,2.0,-1.34,0.006,0.057,-0.795,36.0,25.93,0.0,18.0,3880.0,13.0,-3.23,0.06,-0.98,-0.26,1.03,2.54,0.36,600.0,,,0.0,1.0,1.0,100.0
12680,1,walk,walk,20296,,20296.0,20.0,2.0,6.0,2.0,-1.36,0.006,0.009,-0.805,36.0,25.9,0.0,18.0,3880.0,13.0,-3.24,0.06,-0.98,-0.26,0.9,2.07,0.48,600.0,,,0.0,1.0,1.0,100.0
12720,1,walk,walk,20297,,20297.0,20.0,2.0,6.0,2.0,-1.39,0.006,-0.058,-0.814,36.0,25.93,0.0,18.0,3880.0,13.0,-3.24,0.06,-0.98,-0.26,0.77,1.63,0.58,600.0,,,0.0,1.0,1.0,100.0
12740,1,walk,walk,20298,,20298.0,20.0,2.0,6.0,2.0,-1.42,0.006,0.034,-0.824,36.0,25.93,0.0,18.0,3880.0,13.0,-3.23,0.06,-0.98,-0.26,0.64,1.22,0.67,600.0,,,0.0,1.0,1.0,100.0
12760,1,walk,walk,20299,,20299.0,20.0,2.0,6.0,2.0,-1.45,0.006,-0.064,-0.835,36.0,25.93,0.0,18.0,3880.0,13.0,-3.21,0.05,-0.98,-0.26,0.51,0.8,0.72,600.0,,,0.0,1.0,1.0,100.0
12760,1,walk,walk,20300,,20300.0,20.0,2.0,6.0,2.0,-1.47,0.007,-0.03,-0.85,36.0,25.9,0.0,18.0,3880.0,13.0,-3.18,0.05,-0.98,-0.26,0.37,0.37,0.74,600.0,,,0.0,1.0,1.0,100.0
12780,1,walk,walk,20301,,20301.0,20.0,2.0,6.0,2.0,-1.5,0.007,0.041,-0.845,36.0,25.93,0.0,18.0,3880.0,13.0,-3.15,0.05,-0.98,-0.26,0.23,-0.08,0.75,600.0,,,0.0,1.0,1.0,100.0
12800,1,walk,walk,20302,,20302.0,20.0,2.0,6.0,2.0,-1.53,0.007,-0.015,-0.889,36.0,25.9,0.0,18.0,3880.0,13.0,-3.13,0.05,-0.98,-0.27,0.08,-0.55,0.74,600.0,,,0.0,1.0,1.0,100.0
12820,1,walk,walk,20303,,20303.0,20.0,2.0,6.0,2.0,-1.55,0.007,0.026,-0.889,36.0,25.9,0.0,18.0,3880.0,13.0,-3.1,0.05,-0.98,-0.27,-0.07,-1.02,0.72,600.0,,,0.0,1.0,1.0,100.0
12840,1,walk,walk,20304,,20304.0,20.0,2.0,6.0,2.0,-1.58,0.007,-0.022,-0.879,36.0,25.93,0.0,18.0,3880.0,13.0,-3.08,0.05,-0.98,-0.27,-0.21,-1.47,0.71,600.0,,,0.0,1.0,1.0,100.0
12900,1,walk,walk,20305,,20305.0,20.0,2.0,6.0,2.0,-1.6,0.007,-0.013,-0.89,36.0,25.9,0.0,18.0,3880.0,13.0,-3.06,0.05,-0.98,-0.27,-0.35,-1.9,0.69,600.0,,,0.0,1.0,1.0,100.0
12900,1,walk,walk,20306,,20306.0,20.0,2.0,6.0,2.0,-1.62,0.007,-0.044,-0.887,36.0,25.9,0.0,18.0,3880.0,13.0,-3.05,0.05,-0.98,-0.27,-0.49,-2.27,0.68,600.0,,,0.0,1.0,1.0,100.0
12900,1,walk,walk,20307,,20307.0,20.0,2.0,6.0,2.0,-1.64,0.007,-0.038,-0.912,36.0,25.93,0.0,18.0,3880.0,13.0,-3.03,0.05,-0.98,-0.27,-0.62,-2.59,0.68,600.0,,,0.0,1.0,1.0,100.0
12920,1,walk,walk,20308,,20308.0,20.0,2.0,6.0,2.0,-1.66,0.007,0.046,-0.9,36.0,25.9,0.0,18.0,3880.0,13.0,-3.02,0.05,-0.98,-0.27,-0.74,-2.82,0.7,600.0,,,0.0,1.0,1.0,100.0
12960,1,walk,walk,20309,,20309.0,20.0,2.0,6.0,2.0,-1.68,0.007,-0.046,-0.914,36.0,25.93,0.0,18.0,3880.0,13.0,-3.01,0.05,-0.98,-0.27,-0.85,-2.98,0.73,600.0,,,0.0,1.0,1.0,100.0
12960,1,walk,walk,20310,,20310.0,20.0,2.0,6.0,2.0,-1.7,0.007,0.061,-0.916,36.0,25.93,0.0,18.0,3880.0,13.0,-2.99,0.05,-0.98,-0.27,-0.93,-3.07,0.78,600.0,,,0.0,1.0,1.0,100.0
12980,1,walk,walk,20311,,20311.0,20.0,2.0,6.0,2.0,-1.72,0.007,-0.038,-0.898,36.0,25.9,0.0,18.0,3880.0,13.0,-2.97,0.05,-0.98,-0.27,-0.98,-3.09,0.83,600.0,,,0.0,1.0,1.0,100.0
13000,1,walk,walk,20312,,20312.0,20.0,2.0,6.0,2.0,-1.73,0.007,0.015,-0.944,36.0,25.9,0.0,18.0,3880.0,13.0,-2.95,0.05,-0.98,-0.27,-1.01,-3.06,0.9,600.0,,,0.0,1.0,1.0,100.0
13020,1,walk,walk,20313,,20313.0,20.0,2.0,6.0,2.0,-1.75,0.007,0.07,-0.916,36.0,25.93,0.0,18.0,3880.0,13.0,-2.92,0.05,-0.98,-0.27,-1.01,-2.98,0.96,600.0,,,0.0,1.0,1.0,100.0
13060,1,walk,walk,20314,,20314.0,20.0,2.0,6.0,2.0,-1.76,0.007,0.06,-0.935,36.0,25.9,0.0,18.0,3880.0,13.0,-2.89,0.05,-0.98,-0.28,-0.98,-2.87,1.02,600.0,,,0.0,1.0,1.0,100.0
13060,1,walk,walk,20315,,20315.0,20.0,2.0,6.0,2.0,-1.77,0.007,-0.005,-0.935,36.0,25.9,0.0,18.0,3880.0,13.0,-2.86,0.05,-0.97,-0.28,-0.92,-2.71,1.08,600.0,,,0.0,1.0,1.0,100.0
13080,1,walk,walk,20316,,20316.0,20.0,2.0,6.0,2.0,-1.78,0.007,0.005,-0.944,36.0,25.93,0.0,18.0,3880.0,13.0,-2.83,0.05,-0.97,-0.28,-0.84,-2.52,1.12,600.0,,,0.0,1.0,1.0,100.0
13120,1,walk,walk,20317,,20317.0,20.0,2.0,6.0,2.0,-1.8,0.007,0.022,-0.936,36.0,25.9,0.0,18.0,3880.0,13.0,-2.79,0.05,-0.97,-0.28,-0.73,-2.3,1.16,600.0,,,0.0,1.0,1.0,100.0
13120,1,walk,walk,20318,,20318.0,20.0,2.0,6.0,2.0,-1.8,0.007,0.041,-0.937,36.0,25.9,0.0,18.0,3880.0,13.0,-2.75,0.05,-0.97,-0.28,-0.6,-2.04,1.18,600.0,,,0.0,1.0,1.0,100.0
13140,1,walk,walk,20319,,20319.0,20.0,2.0,6.0,2.0,-1.81,0.007,-0.029,-0.928,36.0,25.9,0.0,18.0,3880.0,13.0,-2.71,0.05,-0.97,-0.28,-0.44,-1.75,1.18,600.0,,,0.0,1.0,1.0,100.0
13160,1,walk,walk,20320,,20320.0,20.0,2.0,6.0,2.0,-1.82,0.007,0.025,-0.94,36.0,25.9,0.0,18.0,3880.0,13.0,-2.68,0.05,-0.97,-0.28,-0.27,-1.44,1.17,600.0,,,0.0,1.0,1.0,100.0
13200,1,walk,walk,20321,,20321.0,20.0,2.0,6.0,2.0,-1.82,0.007,0.052,-0.959,36.0,25.9,0.0,18.0,3880.0,13.0,-2.64,0.04,-0.97,-0.28,-0.07,-1.12,1.15,600.0,,,0.0,1.0,1.0,100.0
13220,1,walk,walk,20322,,20322.0,20.0,2.0,6.0,2.0,-1.83,0.007,0.011,-0.956,36.0,25.93,0.0,18.0,3880.0,13.0,-2.61,0.04,-0.97,-0.28,0.13,-0.8,1.1,600.0,,,0.0,1.0,1.0,100.0
13220,1,walk,walk,20323,,20323.0,20.0,2.0,6.0,2.0,-1.83,0.007,0.005,-0.969,36.0,25.9,0.0,18.0,3880.0,13.0,-2.58,0.04,-0.97,-0.28,0.35,-0.47,1.05,600.0,,,0.0,1.0,1.0,100.0
13240,1,walk,walk,20324,,20324.0,20.0,2.0,6.0,2.0,-1.83,0.007,-0.015,-0.968,36.0,25.9,0.0,18.0,3880.0,13.0,-2.56,0.04,-0.97,-0.28,0.58,-0.16,0.99,600.0,,,0.0,1.0,1.0,100.0
13260,1,walk,walk,20325,,20325.0,20.0,2.0,6.0,2.0,-1.83,0.007,0.064,-0.973,36.0,25.9,0.0,18.0,3880.0,13.0,-2.54,0.04,-0.97,-0.29,0.81,0.14,0.93,600.0,,,0.0,1.0,1.0,100.0
13280,1,walk,walk,20326,,20326.0,20.0,2.0,6.0,2.0,-1.83,0.007,-0.025,-1.021,36.0,25.9,0.0,18.0,3880.0,13.0,-2.53,0.04,-0.97,-0.29,1.03,0.42,0.86,600.0,,,0.0,1.0,1.0,100.0
13300,1,walk,walk,20327,,20327.0,20.0,2.0,6.0,2.0,-1.83,0.008,-0.001,-0.991,36.0,25.93,0.0,18.0,3880.0,13.0,-2.52,0.04,-0.97,-0.29,1.23,0.66,0.79,600.0,,,0.0,1.0,1.0,100.0
13320,1,walk,walk,20328,,20328.0,20.0,2.0,6.0,2.0,-1.83,0.008,0.011,-1.009,36.0,25.93,0.0,18.0,3880.0,13.0,-2.52,0.04,-0.97,-0.28,1.41,0.86,0.73,600.0,,,0.0,1.0,1.0,100.0
13380,1,walk,walk,20329,,20329.0,20.0,2.0,6.0,2.0,-1.83,0.008,0.037,-1.033,36.0,25.93,0.0,18.0,3880.0,13.0,-2.52,0.04,-0.97,-0.28,1.55,1.01,0.67,600.0,,,0.0,1.0,1.0,100.0
13380,1,walk,walk,20330,,20330.0,20.0,2.0,6.0,2.0,-1.83,0.008,-0.013,-1.037,36.0,25.9,0.0,18.0,3880.0,13.0,-2.52,0.04,-0.97,-0.28,1.65,1.12,0.63,600.0,,,0.0,1.0,1.0,100.0
13380,1,walk,walk,20331,,20331.0,20.0,2.0,6.0,2.0,-1.83,0.008,-0.019,-1.069,36.0,25.93,0.0,18.0,3880.0,13.0,-2.53,0.04,-0.97,-0.28,1.7,1.18,0.6,600.0,,,0.0,1.0,1.0,100.0
13400,1,walk,walk,20332,,20332.0,20.0,2.0,6.0,2.0,-1.82,0.008,-0.018,-1.102,36.0,25.9,0.0,18.0,3880.0,13.0,-2.55,0.04,-0.97,-0.28,1.71,1.19,0.59,600.0,,,0.0,1.0,1.0,100.0
13420,1,walk,walk,20333,,20333.0,20.0,2.0,6.0,2.0,-1.82,0.009,0.036,-1.1,36.0,25.93,0.0,18.0,3880.0,13.0,-2.56,0.04,-0.97,-0.28,1.66,1.17,0.59,600.0,,,0.0,1.0,1.0,100.0
13440,1,walk,walk,20334,,20334.0,20.0,2.0,6.0,2.0,-1.82,0.009,-0.054,-1.113,36.0,25.9,0.0,18.0,3880.0,13.0,-2.57,0.04,-0.97,-0.28,1.58,1.1,0.6,600.0,,,0.0,1.0,1.0,100.0
13460,1,walk,walk,20335,,20335.0,20.0,2.0,6.0,2.0,-1.82,0.009,-0.015,-1.113,36.0,25.9,0.0,18.0,3880.0,13.0,-2.59,0.04,-0.97,-0.28,1.45,1.01,0.63,600.0,,,0.0,1.0,1.0,100.0
13480,1,walk,walk,20336,,20336.0,20.0,2.0,6.0,2.0,-1.82,0.009,-0.064,-1.125,36.0,25.9,0.0,18.0,3880.0,13.0,-2.6,0.04,-0.97,-0.28,1.3,0.88,0.67,600.0,,,0.0,1.0,1.0,100.0
13500,1,walk,walk,20337,,20337.0,20.0,2.0,6.0,2.0,-1.82,0.009,-0.049,-1.142,36.0,25.9,0.0,18.0,3880.0,13.0,-2.61,0.04,-0.97,-0.28,1.11,0.73,0.73,600.0,,,0.0,1.0,1.0,100.0
13540,1,walk,walk,20338,,20338.0,20.0,2.0,6.0,2.0,-1.82,0.009,0.005,-1.144,36.0,25.9,0.0,18.0,3880.0,13.0,-2.61,0.04,-0.97,-0.28,0.91,0.56,0.8,600.0,,,0.0,1.0,1.0,100.0
13540,1,walk,walk,20339,,20339.0,20.0,2.0,6.0,2.0,-1.82,0.009,-0.054,-1.179,36.0,25.9,0.0,18.0,3880.0,13.0,-2.62,0.04,-0.97,-0.28,0.7,0.36,0.88,600.0,,,0.0,1.0,1.0,100.0
13580,1,walk,walk,20340,,20340.0,20.0,2.0,6.0,2.0,-1.82,0.009,-0.003,-1.178,36.0,25.9,0.0,18.0,3880.0,13.0,-2.61,0.04,-0.97,-0.28,0.48,0.15,0.96,600.0,,,0.0,1.0,1.0,100.0
13600,1,walk,walk,20341,,20341.0,20.0,2.0,6.0,2.0,-1.82,0.01,0.093,-1.216,36.0,25.9,0.0,18.0,3880.0,13.0,-2.61,0.04,-0.97,-0.28,0.26,-0.07,1.05,600.0,,,0.0,1.0,1.0,100.0
13600,1,walk,walk,20342,,20342.0,20.0,2.0,6.0,2.0,-1.82,0.01,0.057,-1.244,36.0,25.9,0.0,18.0,3880.0,13.0,-2.6,0.04,-0.97,-0.28,0.05,-0.29,1.15,600.0,,,0.0,1.0,1.0,100.0
13640,1,walk,walk,20343,,20343.0,20.0,2.0,6.0,2.0,-1.82,0.01,0.049,-1.262,36.0,25.9,0.0,18.0,3880.0,13.0,-2.58,0.04,-0.97,-0.28,-0.14,-0.51,1.24,600.0,,,0.0,1.0,1.0,100.0
13660,1,walk,walk,20344,,20344.0,20.0,2.0,6.0,2.0,-1.82,0.01,0.019,-1.271,36.0,25.9,0.0,18.0,3880.0,13.0,-2.57,0.04,-0.97,-0.28,-0.31,-0.72,1.34,600.0,,,0.0,1.0,1.0,100.0
13680,1,walk,walk,20345,,20345.0,20.0,2.0,6.0,2.0,-1.82,0.01,0.06,-1.279,36.0,25.9,0.0,18.0,3880.0,13.0,-2.54,0.04,-0.97,-0.28,-0.46,-0.89,1.45,600.0,,,0.0,1.0,1.0,100.0
13700,1,walk,walk,20346,,20346.0,20.0,2.0,6.0,2.0,-1.82,0.01,-0.062,-1.238,36.0,25.9,0.0,18.0,3880.0,13.0,-2.51,0.04,-0.97,-0.28,-0.59,-1.02,1.55,600.0,,,0.0,1.0,1.0,100.0
13720,1,walk,walk,20347,,20347.0,20.0,2.0,6.0,2.0,-1.82,0.01,0.066,-1.286,36.0,25.9,0.0,18.0,3880.0,13.0,-2.48,0.04,-0.97,-0.28,-0.67,-1.1,1.65,600.0,,,0.0,1.0,1.0,100.0
13720,1,walk,walk,20348,,20348.0,20.0,2.0,6.0,2.0,-1.81,0.01,-0.03,-1.256,36.0,25.93,0.0,18.0,3880.0,13.0,-2.43,0.04,-0.97,-0.28,-0.72,-1.13,1.73,600.0,,,0.0,1.0,1.0,100.0
13740,1,walk,walk,20349,,20349.0,20.0,2.0,6.0,2.0,-1.81,0.01,-0.076,-1.319,36.0,25.9,0.0,18.0,3880.0,13.0,-2.38,0.04,-0.97,-0.29,-0.73,-1.12,1.8,600.0,,,0.0,1.0,1.0,100.0
13780,1,walk,walk,20350,,20350.0,20.0,2.0,6.0,2.0,-1.8,0.01,0.081,-1.266,36.0,25.9,0.0,18.0,3880.0,13.0,-2.33,0.04,-0.97,-0.29,-0.68,-1.06,1.84,600.0,,,0.0,1.0,1.0,100.0
13780,1,walk,walk,20351,,20351.0,20.0,2.0,6.0,2.0,-1.8,0.01,-0.04,-1.259,36.0,25.93,0.0,18.0,3880.0,13.0,-2.27,0.04,-0.97,-0.29,-0.57,-0.96,1.86,600.0,,,0.0,1.0,1.0,100.0
13800,1,walk,walk,20352,,20352.0,20.0,2.0,6.0,2.0,-1.79,0.01,0.006,-1.262,36.0,25.9,0.0,18.0,3880.0,13.0,-2.21,0.04,-0.97,-0.29,-0.39,-0.82,1.86,600.0,,,0.0,1.0,1.0,100.0
13860,1,walk,walk,20353,,20353.0,20.0,2.0,6.0,2.0,-1.78,0.01,-0.029,-1.222,36.0,25.9,0.0,18.0,3880.0,13.0,-2.15,0.04,-0.97,-0.29,-0.14,-0.62,1.83,600.0,,,0.0,1.0,1.0,100.0
13860,1,walk,walk,20354,,20354.0,20.0,2.0,6.0,2.0,-1.77,0.01,0.001,-1.215,36.0,25.9,0.0,18.0,3880.0,13.0,-2.1,0.04,-0.97,-0.29,0.18,-0.39,1.77,600.0,,,0.0,1.0,1.0,100.0
13860,1,walk,walk,20355,,20355.0,20.0,2.0,6.0,2.0,-1.75,0.01,-0.015,-1.209,36.0,25.9,0.0,18.0,3880.0,13.0,-2.04,0.03,-0.97,-0.29,0.57,-0.12,1.7,600.0,,,0.0,1.0,1.0,100.0
13900,1,walk,walk,20356,,20356.0,20.0,2.0,6.0,2.0,-1.74,0.009,-0.028,-1.218,36.0,25.9,0.0,18.0,3880.0,13.0,-2.0,0.03,-0.97,-0.3,1.04,0.17,1.6,600.0,,,0.0,1.0,1.0,100.0
13900,1,walk,walk,20357,,20357.0,20.0,2.0,6.0,2.0,-1.72,0.01,0.003,-1.225,36.0,25.93,0.0,18.0,3880.0,13.0,-1.97,0.03,-0.97,-0.3,1.57,0.48,1.5,600.0,,,0.0,1.0,1.0,100.0
13920,1,walk,walk,20358,,20358.0,20.0,2.0,6.0,2.0,-1.71,0.009,0.053,-1.241,36.0,25.9,0.0,18.0,3880.0,13.0,-1.96,0.03,-0.97,-0.3,2.14,0.83,1.41,600.0,,,0.0,1.0,1.0,100.0
13940,1,walk,walk,20359,,20359.0,20.0,2.0,6.0,2.0,-1.69,0.01,-0.017,-1.208,36.0,25.9,0.0,18.0,3880.0,13.0,-1.97,0.03,-0.97,-0.3,2.74,1.2,1.35,600.0,,,0.0,1.0,1.0,100.0
13980,1,walk,walk,20360,,20360.0,20.0,2.0,6.0,2.0,-1.67,0.01,-0.069,-1.221,36.0,25.9,0.0,18.0,3880.0,13.0,-1.98,0.03,-0.97,-0.3,3.36,1.61,1.31,600.0,,,0.0,1.0,1.0,100.0
14000,1,walk,walk,20361,,20361.0,20.0,2.0,6.0,2.0,-1.65,0.01,-0.033,-1.234,36.0,25.9,0.0,18.0,3880.0,13.0,-2.0,0.03,-0.97,-0.3,3.97,2.05,1.31,600.0,,,0.0,1.0,1.0,100.0
14040,1,walk,walk,20362,,20362.0,20.0,2.0,6.0,2.0,-1.63,0.01,0.013,-1.213,36.0,25.9,0.0,18.0,3880.0,13.0,-2.03,0.03,-0.97,-0.3,4.55,2.51,1.34,600.0,,,0.0,1.0,1.0,100.0
14060,1,walk,walk,20363,,20363.0,20.0,2.0,6.0,2.0,-1.61,0.01,-0.062,-1.224,36.0,25.93,0.0,18.0,3880.0,13.0,-2.06,0.03,-0.97,-0.3,5.09,3.0,1.41,600.0,,,0.0,1.0,1.0,100.0
