t_ms,segment_id,packet_type,source_mode,frame_fid,note,walk_fid,walk_dt_ms,walk_exec_ms,walk_out,walk_state,walk_tilt_forward_deg,walk_pos_rad,walk_vel_rad_s,walk_tq_nm,walk_temp_c,walk_vbus_v,walk_pattern,walk_err_code,walk_fb_age_ms,walk_typical_stride_ms,walk_effective_step_count,walk_tilt_accel_deg,walk_acc_x,walk_acc_y,walk_acc_z,walk_gyr_x,walk_gyr_y,walk_gyr_z,cfg_fid,cfg_gait_model,cfg_gait_mode,cfg_side_is_left,cfg_assist_pct
0,1,walk,walk,6788,,6788.0,20.0,0.0,0.0,1.0,-13.36,-0.369,-0.025,0.0,28.0,26.49,0.0,0.0,9.0,0.0,0.0,-12.24,-0.21,-0.98,0.08,-1.53,0.15,1.01,311.0,1.0,1.0,0.0,50.0
60,1,walk,walk,6789,,6789.0,20.0,0.0,0.0,1.0,-13.36,-0.368,0.048,0.0,28.0,26.49,0.0,0.0,9.0,0.0,0.0,-12.24,-0.21,-0.98,0.08,-1.53,0.15,1.0,311.0,1.0,1.0,0.0,50.0
60,1,walk,walk,6790,,6790.0,20.0,0.0,0.0,1.0,-13.36,-0.369,-0.026,0.0,28.0,26.49,0.0,0.0,9.0,0.0,0.0,-12.24,-0.21,-0.98,0.08,-1.52,0.15,1.0,311.0,1.0,1.0,0.0,50.0
100,1,walk,walk,6791,,6791.0,20.0,0.0,0.0,1.0,-13.35,-0.369,-0.026,0.0,28.0,26.49,0.0,0.0,9.0,0.0,0.0,-12.24,-0.21,-0.98,0.08,-1.52,0.16,1.0,311.0,1.0,1.0,0.0,50.0
100,1,walk,walk,6792,,6792.0,20.0,0.0,0.0,1.0,-13.35,-0.369,-0.046,0.0,28.0,26.49,0.0,0.0,9.0,0.0,0.0,-12.24,-0.21,-0.98,0.08,-1.52,0.18,0.99,311.0,1.0,1.0,0.0,50.0
100,1,walk,walk,6793,,6793.0,20.0,0.0,0.0,1.0,-13.35,-0.369,0.029,0.0,28.0,26.49,0.0,0.0,9.0,0.0,0.0,-12.24,-0.21,-0.98,0.08,-1.52,0.19,0.99,311.0,1.0,1.0,0.0,50.0
160,1,walk,walk,6794,,6794.0,20.0,0.0,0.0,1.0,-13.35,-0.369,0.034,0.0,28.0,26.49,0.0,0.0,9.0,0.0,0.0,-12.25,-0.21,-0.98,0.08,-1.52,0.19,0.99,311.0,1.0,1.0,0.0,50.0
160,1,walk,walk,6795,,6795.0,20.0,0.0,0.0,1.0,-13.34,-0.368,0.015,0.0,28.0,26.49,0.0,0.0,9.0,0.0,0.0,-12.25,-0.21,-0.98,0.08,-1.52,0.18,0.99,311.0,1.0,1.0,0.0,50.0
200,1,walk,walk,6796,,6796.0,20.0,0.0,0.0,1.0,-13.34,-0.369,-0.058,0.0,28.0,26.49,0.0,0.0,9.0,0.0,0.0,-12.25,-0.21,-0.98,0.08,-1.52,0.18,0.99,311.0,1.0,1.0,0.0,50.0
200,1,walk,walk,6797,,6797.0,20.0,0.0,0.0,1.0,-13.34,-0.369,0.018,0.0,28.0,26.49,0.0,0.0,9.0,0.0,0.0,-12.25,-0.21,-0.98,0.08,-1.52,0.16,0.99,311.0,1.0,1.0,0.0,50.0
200,1,walk,walk,6798,,6798.0,20.0,0.0,0.0,1.0,-13.34,-0.369,0.057,0.0,28.0,26.49,0.0,0.0,9.0,0.0,0.0,-12.25,-0.21,-0.98,0.08,-1.51,0.13,0.99,311.0,1.0,1.0,0.0,50.0
260,1,walk,walk,6799,,6799.0,20.0,0.0,0.0,1.0,-13.33,-0.369,-0.009,0.0,28.0,26.49,0.0,0.0,9.0,0.0,0.0,-12.25,-0.21,-0.98,0.08,-1.51,0.1,0.99,311.0,1.0,1.0,0.0,50.0
260,1,walk,walk,6800,,6800.0,20.0,0.0,0.0,1.0,-13.33,-0.369,-0.091,0.0,28.0,26.49,0.0,0.0,9.0,0.0,0.0,-12.25,-0.21,-0.98,0.08,-1.51,0.07,0.99,311.0,1.0,1.0,0.0,50.0
260,1,walk,walk,6801,,6801.0,20.0,0.0,0.0,1.0,-13.33,-0.369,0.029,0.0,28.0,26.49,0.0,0.0,9.0,0.0,0.0,-12.24,-0.21,-0.98,0.08,-1.51,0.03,0.99,311.0,1.0,1.0,0.0,50.0
300,1,walk,walk,6802,,6802.0,20.0,0.0,0.0,1.0,-13.33,-0.369,-0.046,0.0,28.0,26.49,0.0,0.0,9.0,0.0,0.0,-12.23,-0.21,-0.98,0.08,-1.52,0.0,0.99,311.0,1.0,1.0,0.0,50.0
300,1,walk,walk,6803,,6803.0,20.0,0.0,0.0,1.0,-13.33,-0.369,0.049,0.0,28.0,26.49,0.0,0.0,9.0,0.0,0.0,-12.22,-0.21,-0.98,0.08,-1.53,-0.02,0.99,311.0,1.0,1.0,0.0,50.0
360,1,walk,walk,6804,,6804.0,20.0,0.0,0.0,1.0,-13.32,-0.369,-0.056,0.0,28.0,26.49,0.0,0.0,9.0,0.0,0.0,-12.2,-0.21,-0.98,0.08,-1.54,-0.03,0.99,311.0,1.0,1.0,0.0,50.0
360,1,walk,walk,6805,,6805.0,20.0,0.0,0.0,1.0,-13.32,-0.369,-0.034,0.0,28.0,26.49,0.0,0.0,9.0,0.0,0.0,-12.2,-0.21,-0.98,0.08,-1.55,-0.04,1.0,311.0,1.0,1.0,0.0,50.0
360,1,walk,walk,6806,,6806.0,20.0,0.0,0.0,1.0,-13.32,-0.369,-0.025,0.0,28.0,26.46,0.0,0.0,9.0,0.0,0.0,-12.19,-0.21,-0.98,0.08,-1.56,-0.05,1.0,311.0,1.0,1.0,0.0,50.0
420,1,walk,walk,6807,,6807.0,20.0,0.0,0.0,1.0,-13.32,-0.369,-0.018,0.0,28.0,26.49,0.0,0.0,9.0,0.0,0.0,-12.19,-0.21,-0.98,0.08,-1.58,-0.06,1.01,311.0,1.0,1.0,0.0,50.0
420,1,walk,walk,6808,,6808.0,20.0,0.0,0.0,1.0,-13.31,-0.369,0.026,0.0,28.0,26.49,0.0,0.0,9.0,0.0,0.0,-12.19,-0.21,-0.98,0.08,-1.58,-0.07,1.02,311.0,1.0,1.0,0.0,50.0
460,1,walk,walk,6809,,6809.0,20.0,0.0,0.0,1.0,-13.31,-0.369,0.029,0.0,28.0,26.49,0.0,0.0,9.0,0.0,0.0,-12.19,-0.21,-0.98,0.08,-1.59,-0.09,1.03,311.0,1.0,1.0,0.0,50.0
460,1,walk,walk,6810,,6810.0,20.0,0.0,0.0,1.0,-13.31,-0.369,-0.006,0.0,28.0,26.49,0.0,0.0,9.0,0.0,0.0,-12.19,-0.21,-0.98,0.08,-1.6,-0.11,1.04,311.0,1.0,1.0,0.0,50.0
460,1,walk,walk,6811,,6811.0,20.0,0.0,0.0,1.0,-13.31,-0.369,0.023,0.0,28.0,26.49,0.0,0.0,9.0,0.0,0.0,-12.2,-0.21,-0.98,0.08,-1.6,-0.13,1.05,311.0,1.0,1.0,0.0,50.0
520,1,walk,walk,6812,,6812.0,20.0,0.0,0.0,1.0,-13.31,-0.369,-0.052,0.0,28.0,26.49,0.0,0.0,9.0,0.0,0.0,-12.2,-0.21,-0.98,0.08,-1.61,-0.15,1.06,311.0,1.0,1.0,0.0,50.0
520,1,walk,walk,6813,,6813.0,20.0,0.0,0.0,1.0,-13.3,-0.369,-0.021,0.0,28.0,26.49,0.0,0.0,9.0,0.0,0.0,-12.2,-0.21,-0.98,0.08,-1.61,-0.16,1.07,311.0,1.0,1.0,0.0,50.0
520,1,walk,walk,6814,,6814.0,20.0,0.0,0.0,1.0,-13.3,-0.368,0.08,0.0,28.0,26.49,0.0,0.0,9.0,0.0,0.0,-12.21,-0.21,-0.98,0.08,-1.61,-0.17,1.07,311.0,1.0,1.0,0.0,50.0
580,1,walk,walk,6815,,6815.0,20.0,0.0,0.0,1.0,-13.3,-0.369,0.015,0.0,28.0,26.49,0.0,0.0,9.0,0.0,0.0,-12.21,-0.21,-0.98,0.08,-1.6,-0.18,1.07,311.0,1.0,1.0,0.0,50.0
580,1,walk,walk,6816,,6816.0,20.0,0.0,0.0,1.0,-13.3,-0.369,-0.013,0.0,28.0,26.49,0.0,0.0,9.0,0.0,0.0,-12.22,-0.21,-0.98,0.08,-1.59,-0.19,1.07,311.0,1.0,1.0,0.0,50.0
620,1,walk,walk,6817,,6817.0,20.0,0.0,0.0,1.0,-13.3,-0.369,0.011,0.0,28.0,26.49,0.0,0.0,9.0,0.0,0.0,-12.22,-0.21,-0.98,0.08,-1.58,-0.2,1.07,311.0,1.0,1.0,0.0,50.0
620,1,walk,walk,6818,,6818.0,20.0,0.0,0.0,1.0,-13.29,-0.369,0.089,0.0,28.0,26.49,0.0,0.0,9.0,0.0,0.0,-12.22,-0.21,-0.98,0.08,-1.58,-0.21,1.07,311.0,1.0,1.0,0.0,50.0
620,1,walk,walk,6819,,6819.0,20.0,0.0,0.0,1.0,-13.29,-0.369,-0.038,0.0,28.0,26.49,0.0,0.0,9.0,0.0,0.0,-12.22,-0.21,-0.98,0.08,-1.57,-0.21,1.07,311.0,1.0,1.0,0.0,50.0
680,1,walk,walk,6820,,6820.0,20.0,0.0,0.0,1.0,-13.29,-0.369,-0.089,0.0,28.0,26.49,0.0,0.0,9.0,0.0,0.0,-12.22,-0.21,-0.98,0.08,-1.56,-0.2,1.07,311.0,1.0,1.0,0.0,50.0
680,1,walk,walk,6821,,6821.0,20.0,0.0,0.0,1.0,-13.29,-0.369,-0.009,0.0,28.0,26.49,0.0,0.0,9.0,0.0,0.0,-12.22,-0.21,-0.98,0.08,-1.56,-0.2,1.07,311.0,1.0,1.0,0.0,50.0
680,1,walk,walk,6822,,6822.0,20.0,0.0,0.0,1.0,-13.29,-0.369,-0.096,0.0,28.0,26.49,0.0,0.0,9.0,0.0,0.0,-12.22,-0.21,-0.98,0.08,-1.56,-0.2,1.06,311.0,1.0,1.0,0.0,50.0
740,1,walk,walk,6823,,6823.0,20.0,0.0,0.0,1.0,-13.29,-0.369,0.015,0.0,28.0,26.49,0.0,0.0,9.0,0.0,0.0,-12.22,-0.21,-0.98,0.08,-1.56,-0.19,1.06,311.0,1.0,1.0,0.0,50.0
740,1,walk,walk,6824,,6824.0,20.0,0.0,0.0,1.0,-13.29,-0.369,0.083,0.0,28.0,26.49,0.0,0.0,9.0,0.0,0.0,-12.22,-0.21,-0.98,0.08,-1.57,-0.17,1.05,311.0,1.0,1.0,0.0,50.0
740,1,walk,walk,6825,,6825.0,20.0,0.0,0.0,1.0,-13.29,-0.369,0.054,0.0,28.0,26.49,0.0,0.0,9.0,0.0,0.0,-12.22,-0.21,-0.98,0.08,-1.57,-0.16,1.05,311.0,1.0,1.0,0.0,50.0
780,1,walk,walk,6826,,6826.0,20.0,0.0,0.0,1.0,-13.29,-0.368,-0.018,0.0,28.0,26.49,0.0,0.0,9.0,0.0,0.0,-12.22,-0.21,-0.98,0.08,-1.57,-0.15,1.05,311.0,1.0,1.0,0.0,50.0
780,1,walk,walk,6827,,6827.0,20.0,0.0,0.0,1.0,-13.29,-0.369,0.002,0.0,28.0,26.49,0.0,0.0,9.0,0.0,0.0,-12.21,-0.21,-0.98,0.08,-1.58,-0.14,1.05,311.0,1.0,1.0,0.0,50.0
840,1,walk,walk,6828,,6828.0,20.0,0.0,0.0,1.0,-13.28,-0.369,0.022,0.0,28.0,26.49,0.0,0.0,9.0,0.0,0.0,-12.21,-0.21,-0.98,0.08,-1.58,-0.13,1.06,311.0,1.0,1.0,0.0,50.0
840,1,walk,walk,6829,,6829.0,20.0,0.0,0.0,1.0,-13.28,-0.369,-0.025,0.0,28.0,26.49,0.0,0.0,9.0,0.0,0.0,-12.21,-0.21,-0.98,0.08,-1.57,-0.12,1.07,311.0,1.0,1.0,0.0,50.0
840,1,walk,walk,6830,,6830.0,20.0,0.0,0.0,1.0,-13.28,-0.369,-0.028,0.0,28.0,26.49,0.0,0.0,9.0,0.0,0.0,-12.21,-0.21,-0.98,0.08,-1.57,-0.11,1.07,311.0,1.0,1.0,0.0,50.0
900,1,walk,walk,6831,,6831.0,20.0,0.0,0.0,1.0,-13.28,-0.368,0.026,0.0,28.0,26.49,0.0,0.0,9.0,0.0,0.0,-12.21,-0.21,-0.98,0.08,-1.56,-0.11,1.07,311.0,1.0,1.0,0.0,50.0
900,1,walk,walk,6832,,6832.0,20.0,0.0,0.0,1.0,-13.28,-0.368,-0.04,0.0,28.0,26.49,0.0,0.0,9.0,0.0,0.0,-12.2,-0.21,-0.98,0.08,-1.56,-0.1,1.07,311.0,1.0,1.0,0.0,50.0
940,1,walk,walk,6833,,6833.0,20.0,0.0,0.0,1.0,-13.28,-0.368,-0.06,0.0,28.0,26.49,0.0,0.0,9.0,0.0,0.0,-12.2,-0.21,-0.98,0.08,-1.55,-0.09,1.06,311.0,1.0,1.0,0.0,50.0
940,1,walk,walk,6834,,6834.0,20.0,0.0,0.0,1.0,-13.28,-0.368,0.013,0.0,28.0,26.49,0.0,0.0,9.0,0.0,0.0,-12.21,-0.21,-0.98,0.08,-1.54,-0.09,1.05,311.0,1.0,1.0,0.0,50.0
940,1,walk,walk,6835,,6835.0,20.0,0.0,0.0,1.0,-13.28,-0.368,-0.019,0.0,28.0,26.49,0.0,0.0,9.0,0.0,0.0,-12.21,-0.21,-0.98,0.08,-1.54,-0.08,1.04,311.0,1.0,1.0,0.0,50.0
1000,1,walk,walk,6836,,6836.0,20.0,0.0,0.0,1.0,-13.28,-0.368,0.01,0.0,28.0,26.49,0.0,0.0,9.0,0.0,0.0,-12.21,-0.21,-0.98,0.08,-1.54,-0.07,1.03,311.0,1.0,1.0,0.0,50.0
1000,1,walk,walk,6837,,6837.0,20.0,0.0,0.0,1.0,-13.28,-0.368,-0.06,0.0,28.0,26.49,0.0,0.0,9.0,0.0,0.0,-12.21,-0.21,-0.98,0.08,-1.54,-0.06,1.02,311.0,1.0,1.0,0.0,50.0
1040,1,walk,walk,6838,,6838.0,20.0,0.0,0.0,1.0,-13.28,-0.368,-0.011,0.0,28.0,26.49,0.0,0.0,9.0,0.0,0.0,-12.2,-0.21,-0.98,0.08,-1.54,-0.05,1.02,311.0,1.0,1.0,0.0,50.0
1040,1,walk,walk,6839,,6839.0,20.0,0.0,0.0,1.0,-13.28,-0.368,-0.048,0.0,28.0,26.49,0.0,0.0,9.0,0.0,0.0,-12.2,-0.21,-0.98,0.08,-1.54,-0.04,1.01,311.0,1.0,1.0,0.0,50.0
1040,1,walk,walk,6840,,6840.0,20.0,0.0,0.0,1.0,-13.28,-0.368,0.003,0.0,28.0,26.49,0.0,0.0,9.0,0.0,0.0,-12.19,-0.21,-0.98,0.08,-1.53,-0.02,1.01,311.0,1.0,1.0,0.0,50.0
1100,1,walk,walk,6841,,6841.0,20.0,0.0,0.0,1.0,-13.28,-0.368,-0.001,0.0,28.0,26.49,0.0,0.0,9.0,0.0,0.0,-12.19,-0.21,-0.98,0.08,-1.53,-0.01,1.0,311.0,1.0,1.0,0.0,50.0
1100,1,walk,walk,6842,,6842.0,20.0,0.0,0.0,1.0,-13.28,-0.368,0.041,0.0,28.0,26.49,0.0,0.0,9.0,0.0,0.0,-12.19,-0.21,-0.98,0.08,-1.51,0.0,0.99,311.0,1.0,1.0,0.0,50.0
1100,1,walk,walk,6843,,6843.0,20.0,0.0,0.0,1.0,-13.27,-0.368,-0.042,0.0,28.0,26.49,0.0,0.0,9.0,0.0,0.0,-12.18,-0.21,-0.98,0.08,-1.5,0.01,0.99,311.0,1.0,1.0,0.0,50.0
1160,1,walk,walk,6844,,6844.0,20.0,0.0,0.0,1.0,-13.27,-0.368,-0.041,0.0,28.0,26.49,0.0,0.0,9.0,0.0,0.0,-12.18,-0.21,-0.98,0.08,-1.48,0.01,0.98,311.0,1.0,1.0,0.0,50.0
1160,1,walk,walk,6845,,6845.0,20.0,0.0,0.0,1.0,-13.27,-0.368,0.017,0.0,28.0,26.49,0.0,0.0,9.0,0.0,0.0,-12.18,-0.21,-0.98,0.08,-1.46,0.01,0.98,311.0,1.0,1.0,0.0,50.0
1200,1,walk,walk,6846,,6846.0,20.0,0.0,0.0,1.0,-13.27,-0.368,0.018,0.0,28.0,26.49,0.0,0.0,9.0,0.0,0.0,-12.17,-0.21,-0.98,0.08,-1.45,0.0,0.98,311.0,1.0,1.0,0.0,50.0
1200,1,walk,walk,6847,,6847.0,20.0,0.0,0.0,1.0,-13.27,-0.368,-0.003,0.0,28.0,26.49,0.0,0.0,9.0,0.0,0.0,-12.17,-0.21,-0.98,0.08,-1.44,-0.01,0.97,311.0,1.0,1.0,0.0,50.0
1200,1,walk,walk,6848,,6848.0,20.0,0.0,0.0,1.0,-13.27,-0.368,0.002,0.0,28.0,26.49,0.0,0.0,9.0,0.0,0.0,-12.16,-0.21,-0.98,0.08,-1.43,-0.01,0.97,311.0,1.0,1.0,0.0,50.0
1260,1,walk,walk,6849,,6849.0,20.0,0.0,0.0,1.0,-13.27,-0.368,-0.001,0.0,28.0,26.49,0.0,0.0,9.0,0.0,0.0,-12.16,-0.21,-0.98,0.08,-1.43,-0.02,0.97,311.0,1.0,1.0,0.0,50.0
1260,1,walk,walk,6850,,6850.0,20.0,0.0,0.0,1.0,-13.27,-0.368,-0.05,0.0,28.0,26.49,0.0,0.0,9.0,0.0,0.0,-12.16,-0.21,-0.98,0.08,-1.43,-0.02,0.96,311.0,1.0,1.0,0.0,50.0
1260,1,walk,walk,6851,,6851.0,20.0,0.0,0.0,1.0,-13.26,-0.368,0.034,0.0,28.0,26.49,0.0,0.0,9.0,0.0,0.0,-12.16,-0.21,-0.98,0.08,-1.44,-0.02,0.96,311.0,1.0,1.0,0.0,50.0
1320,1,walk,walk,6852,,6852.0,20.0,0.0,0.0,1.0,-13.26,-0.368,0.022,0.0,28.0,26.49,0.0,0.0,9.0,0.0,0.0,-12.15,-0.21,-0.98,0.08,-1.45,-0.02,0.96,311.0,1.0,1.0,0.0,50.0
1360,1,walk,walk,6853,,6853.0,20.0,0.0,0.0,1.0,-13.26,-0.368,-0.001,0.0,28.0,26.49,0.0,0.0,9.0,0.0,0.0,-12.15,-0.21,-0.98,0.08,-1.46,-0.02,0.95,311.0,1.0,1.0,0.0,50.0
1360,1,walk,walk,6854,,6854.0,20.0,0.0,0.0,1.0,-13.26,-0.368,-0.022,0.0,28.0,26.49,0.0,0.0,9.0,0.0,0.0,-12.15,-0.21,-0.98,0.08,-1.48,-0.01,0.95,311.0,1.0,1.0,0.0,50.0
1360,1,walk,walk,6855,,6855.0,20.0,0.0,0.0,1.0,-13.25,-0.368,0.081,0.0,28.0,26.49,0.0,0.0,9.0,0.0,0.0,-12.15,-0.21,-0.98,0.08,-1.49,0.0,0.94,311.0,1.0,1.0,0.0,50.0
1360,1,walk,walk,6856,,6856.0,20.0,0.0,0.0,1.0,-13.25,-0.368,0.066,0.0,28.0,26.49,0.0,0.0,9.0,0.0,0.0,-12.15,-0.21,-0.98,0.08,-1.5,0.0,0.94,311.0,1.0,1.0,0.0,50.0
1420,1,walk,walk,6857,,6857.0,20.0,0.0,0.0,1.0,-13.25,-0.368,-0.041,0.0,28.0,26.49,0.0,0.0,9.0,0.0,0.0,-12.15,-0.21,-0.98,0.08,-1.5,0.0,0.94,311.0,1.0,1.0,0.0,50.0
1420,1,walk,walk,6858,,6858.0,20.0,0.0,0.0,1.0,-13.25,-0.368,-0.019,0.0,28.0,26.49,0.0,0.0,9.0,0.0,0.0,-12.14,-0.21,-0.98,0.08,-1.51,0.01,0.95,311.0,1.0,1.0,0.0,50.0
1420,1,walk,walk,6859,,6859.0,20.0,0.0,0.0,1.0,-13.24,-0.368,-0.062,0.0,28.0,26.49,0.0,0.0,9.0,0.0,0.0,-12.13,-0.21,-0.98,0.08,-1.52,0.02,0.95,311.0,1.0,1.0,0.0,50.0
1480,1,walk,walk,6860,,6860.0,20.0,0.0,0.0,1.0,-13.24,-0.368,-0.029,0.0,28.0,26.49,0.0,0.0,9.0,0.0,0.0,-12.12,-0.21,-0.98,0.08,-1.52,0.04,0.97,311.0,1.0,1.0,0.0,50.0
1480,1,walk,walk,6861,,6861.0,20.0,0.0,0.0,1.0,-13.24,-0.368,-0.022,0.0,28.0,26.49,0.0,0.0,9.0,0.0,0.0,-12.11,-0.21,-0.98,0.08,-1.52,0.05,0.98,311.0,1.0,1.0,0.0,50.0
1520,1,walk,walk,6862,,6862.0,20.0,0.0,0.0,1.0,-13.24,-0.368,-0.005,0.0,28.0,26.49,0.0,0.0,9.0,0.0,0.0,-12.1,-0.21,-0.98,0.08,-1.53,0.07,0.98,311.0,1.0,1.0,0.0,50.0
1520,1,walk,walk,6863,,6863.0,20.0,0.0,0.0,1.0,-13.23,-0.368,0.032,0.0,28.0,26.49,0.0,0.0,9.0,0.0,0.0,-12.09,-0.21,-0.98,0.08,-1.53,0.08,0.99,311.0,1.0,1.0,0.0,50.0
1520,1,walk,walk,6864,,6864.0,20.0,0.0,0.0,1.0,-13.23,-0.368,-0.032,0.0,28.0,26.49,0.0,0.0,9.0,0.0,0.0,-12.09,-0.21,-0.98,0.08,-1.52,0.08,0.98,311.0,1.0,1.0,0.0,50.0
1580,1,walk,walk,6865,,6865.0,20.0,0.0,0.0,1.0,-13.23,-0.368,0.049,0.0,28.0,26.49,0.0,0.0,9.0,0.0,0.0,-12.09,-0.21,-0.98,0.08,-1.52,0.08,0.97,311.0,1.0,1.0,0.0,50.0
1580,1,walk,walk,6866,,6866.0,20.0,0.0,0.0,1.0,-13.23,-0.368,0.014,0.0,28.0,26.49,0.0,0.0,9.0,0.0,0.0,-12.08,-0.21,-0.98,0.08,-1.52,0.08,0.96,311.0,1.0,1.0,0.0,50.0
1580,1,walk,walk,6867,,6867.0,20.0,0.0,0.0,1.0,-13.22,-0.368,0.014,0.0,28.0,26.49,0.0,0.0,9.0,0.0,0.0,-12.08,-0.21,-0.98,0.08,-1.51,0.09,0.95,311.0,1.0,1.0,0.0,50.0
1640,1,walk,walk,6868,,6868.0,20.0,0.0,0.0,1.0,-13.22,-0.368,0.064,0.0,28.0,26.49,0.0,0.0,9.0,0.0,0.0,-12.08,-0.21,-0.98,0.08,-1.51,0.09,0.94,311.0,1.0,1.0,0.0,50.0
1640,1,walk,walk,6869,,6869.0,20.0,0.0,0.0,1.0,-13.22,-0.368,0.018,0.0,28.0,26.49,0.0,0.0,9.0,0.0,0.0,-12.07,-0.21,-0.98,0.08,-1.5,0.09,0.93,311.0,1.0,1.0,0.0,50.0
1640,1,walk,walk,6870,,6870.0,20.0,0.0,0.0,1.0,-13.21,-0.368,-0.025,0.0,28.0,26.49,0.0,0.0,9.0,0.0,0.0,-12.07,-0.21,-0.98,0.08,-1.5,0.09,0.91,311.0,1.0,1.0,0.0,50.0
1700,1,walk,walk,6871,,6871.0,20.0,0.0,0.0,1.0,-13.21,-0.368,0.026,0.0,28.0,26.49,0.0,0.0,9.0,0.0,0.0,-12.07,-0.21,-0.98,0.08,-1.5,0.09,0.9,311.0,1.0,1.0,0.0,50.0
1700,1,walk,walk,6872,,6872.0,20.0,0.0,0.0,1.0,-13.21,-0.368,-0.126,0.0,28.0,26.49,0.0,0.0,9.0,0.0,0.0,-12.07,-0.21,-0.98,0.08,-1.49,0.09,0.89,311.0,1.0,1.0,0.0,50.0
1740,1,walk,walk,6873,,6873.0,20.0,0.0,0.0,1.0,-13.2,-0.368,-0.006,0.0,28.0,26.49,0.0,0.0,9.0,0.0,0.0,-12.07,-0.21,-0.98,0.08,-1.49,0.09,0.88,311.0,1.0,1.0,0.0,50.0
1740,1,walk,walk,6874,,6874.0,20.0,0.0,0.0,1.0,-13.2,-0.368,0.105,0.0,28.0,26.49,0.0,0.0,9.0,0.0,0.0,-12.06,-0.21,-0.98,0.08,-1.49,0.09,0.87,311.0,1.0,1.0,0.0,50.0
1740,1,walk,walk,6875,,6875.0,20.0,0.0,0.0,1.0,-13.2,-0.368,-0.104,0.0,28.0,26.49,0.0,0.0,9.0,0.0,0.0,-12.06,-0.21,-0.98,0.08,-1.49,0.09,0.86,311.0,1.0,1.0,0.0,50.0
1800,1,walk,walk,6876,,6876.0,20.0,0.0,0.0,1.0,-13.19,-0.368,-0.097,0.0,28.0,26.49,0.0,0.0,9.0,0.0,0.0,-12.06,-0.21,-0.98,0.08,-1.49,0.09,0.85,311.0,1.0,1.0,0.0,50.0
1800,1,walk,walk,6877,,6877.0,20.0,0.0,0.0,1.0,-13.19,-0.368,0.05,0.0,28.0,26.49,0.0,0.0,9.0,0.0,0.0,-12.05,-0.21,-0.98,0.08,-1.48,0.09,0.85,311.0,1.0,1.0,0.0,50.0
1800,1,walk,walk,6878,,6878.0,20.0,0.0,0.0,1.0,-13.19,-0.368,-0.05,0.0,28.0,26.49,0.0,0.0,9.0,0.0,0.0,-12.05,-0.21,-0.98,0.08,-1.48,0.09,0.85,311.0,1.0,1.0,0.0,50.0
1840,1,walk,walk,6879,,6879.0,20.0,0.0,0.0,1.0,-13.18,-0.368,0.032,0.0,28.0,26.49,0.0,0.0,9.0,0.0,0.0,-12.04,-0.21,-0.98,0.08,-1.47,0.1,0.86,311.0,1.0,1.0,0.0,50.0
1840,1,walk,walk,6880,,6880.0,20.0,0.0,0.0,1.0,-13.18,-0.368,-0.003,0.0,28.0,26.49,0.0,0.0,9.0,0.0,0.0,-12.03,-0.21,-0.98,0.08,-1.47,0.1,0.86,311.0,1.0,1.0,0.0,50.0
1900,1,walk,walk,6881,,6881.0,20.0,0.0,0.0,1.0,-13.17,-0.368,0.088,0.0,28.0,26.49,0.0,0.0,9.0,0.0,0.0,-12.02,-0.21,-0.98,0.08,-1.47,0.11,0.86,311.0,1.0,1.0,0.0,50.0
1900,1,walk,walk,6882,,6882.0,20.0,0.0,0.0,1.0,-13.17,-0.368,0.073,0.0,28.0,26.49,0.0,0.0,9.0,0.0,0.0,-12.01,-0.21,-0.98,0.08,-1.47,0.11,0.87,311.0,1.0,1.0,0.0,50.0
1940,1,walk,walk,6883,,6883.0,20.0,0.0,0.0,1.0,-13.16,-0.368,0.006,0.0,28.0,26.49,0.0,0.0,9.0,0.0,0.0,-12.0,-0.21,-0.98,0.08,-1.47,0.11,0.88,311.0,1.0,1.0,0.0,50.0
1940,1,walk,walk,6884,,6884.0,20.0,0.0,0.0,1.0,-13.16,-0.368,0.056,0.0,28.0,26.49,0.0,0.0,9.0,0.0,0.0,-11.99,-0.21,-0.98,0.08,-1.47,0.12,0.88,311.0,1.0,1.0,0.0,50.0
1940,1,walk,walk,6885,,6885.0,20.0,0.0,0.0,1.0,-13.15,-0.368,0.032,0.0,28.0,26.49,0.0,0.0,9.0,0.0,0.0,-11.99,-0.21,-0.98,0.08,-1.47,0.12,0.89,311.0,1.0,1.0,0.0,50.0
2000,1,walk,walk,6886,,6886.0,20.0,0.0,0.0,1.0,-13.15,-0.368,0.068,0.0,28.0,26.49,0.0,0.0,9.0,0.0,0.0,-11.98,-0.21,-0.98,0.08,-1.47,0.11,0.9,311.0,1.0,1.0,0.0,50.0
2000,1,walk,walk,6887,,6887.0,20.0,0.0,0.0,1.0,-13.14,-0.368,-0.011,0.0,28.0,26.49,0.0,0.0,9.0,0.0,0.0,-11.98,-0.21,-0.98,0.08,-1.48,0.11,0.9,311.0,1.0,1.0,0.0,50.0
2000,1,walk,walk,6888,,6888.0,20.0,0.0,0.0,1.0,-13.14,-0.368,-0.064,0.0,28.0,26.49,0.0,0.0,9.0,0.0,0.0,-11.98,-0.21,-0.98,0.08,-1.48,0.1,0.9,311.0,1.0,1.0,0.0,50.0
2040,1,walk,walk,6889,,6889.0,20.0,0.0,0.0,1.0,-13.13,-0.368,-0.036,0.0,28.0,26.49,0.0,0.0,9.0,0.0,0.0,-11.99,-0.21,-0.98,0.08,-1.48,0.09,0.9,311.0,1.0,1.0,0.0,50.0
2040,1,walk,walk,6890,,6890.0,20.0,0.0,0.0,1.0,-13.13,-0.368,0.006,0.0,28.0,26.49,0.0,0.0,9.0,0.0,0.0,-11.99,-0.21,-0.98,0.08,-1.49,0.07,0.89,311.0,1.0,1.0,0.0,50.0
2100,1,walk,walk,6891,,6891.0,20.0,0.0,0.0,1.0,-13.12,-0.368,-0.011,0.0,28.0,26.49,0.0,0.0,9.0,0.0,0.0,-12.0,-0.21,-0.98,0.08,-1.49,0.04,0.88,311.0,1.0,1.0,0.0,50.0
2100,1,walk,walk,6892,,6892.0,20.0,0.0,0.0,1.0,-13.12,-0.368,-0.04,0.0,28.0,26.49,0.0,0.0,9.0,0.0,0.0,-11.99,-0.21,-0.98,0.08,-1.5,0.01,0.86,311.0,1.0,1.0,0.0,50.0
2100,1,walk,walk,6893,,6893.0,20.0,0.0,0.0,1.0,-13.12,-0.368,0.006,0.0,28.0,26.49,0.0,0.0,9.0,0.0,0.0,-11.98,-0.21,-0.98,0.08,-1.51,-0.01,0.84,311.0,1.0,1.0,0.0,50.0
2160,1,walk,walk,6894,,6894.0,20.0,0.0,0.0,1.0,-13.11,-0.368,0.077,0.0,28.0,26.49,0.0,0.0,9.0,0.0,0.0,-11.97,-0.21,-0.98,0.08,-1.52,-0.04,0.83,311.0,1.0,1.0,0.0,50.0
2160,1,walk,walk,6895,,6895.0,20.0,0.0,0.0,1.0,-13.11,-0.368,0.069,0.0,28.0,26.49,0.0,0.0,9.0,0.0,0.0,-11.96,-0.21,-0.98,0.08,-1.52,-0.05,0.81,311.0,1.0,1.0,0.0,50.0
2220,1,walk,walk,6896,,6896.0,20.0,0.0,0.0,1.0,-13.1,-0.368,-0.001,0.0,28.0,26.49,0.0,0.0,9.0,0.0,0.0,-11.94,-0.21,-0.98,0.08,-1.53,-0.06,0.79,311.0,1.0,1.0,0.0,50.0
2220,1,walk,walk,6897,,6897.0,20.0,0.0,0.0,1.0,-13.1,-0.368,0.022,0.0,28.0,26.49,0.0,0.0,9.0,0.0,0.0,-11.92,-0.21,-0.98,0.08,-1.53,-0.06,0.78,311.0,1.0,1.0,0.0,50.0
2220,1,walk,walk,6898,,6898.0,20.0,0.0,0.0,1.0,-13.09,-0.368,-0.05,0.0,28.0,26.49,0.0,0.0,9.0,0.0,0.0,-11.91,-0.21,-0.98,0.08,-1.52,-0.06,0.76,311.0,1.0,1.0,0.0,50.0
2260,1,walk,walk,6899,,6899.0,20.0,0.0,0.0,1.0,-13.09,-0.368,0.064,0.0,28.0,26.49,0.0,0.0,9.0,0.0,0.0,-11.9,-0.21,-0.98,0.08,-1.52,-0.05,0.76,311.0,1.0,1.0,0.0,50.0
2260,1,walk,walk,6900,,6900.0,20.0,0.0,0.0,1.0,-13.08,-0.368,0.023,0.0,28.0,26.49,0.0,0.0,9.0,0.0,0.0,-11.9,-0.21,-0.98,0.08,-1.51,-0.05,0.76,311.0,1.0,1.0,0.0,50.0
2320,1,walk,walk,6901,,6901.0,20.0,0.0,0.0,1.0,-13.07,-0.368,-0.011,0.0,28.0,26.49,0.0,0.0,9.0,0.0,0.0,-11.9,-0.21,-0.98,0.08,-1.5,-0.04,0.76,311.0,1.0,1.0,0.0,50.0
2320,1,walk,walk,6902,,6902.0,20.0,0.0,0.0,1.0,-13.07,-0.368,-0.01,0.0,28.0,26.49,0.0,0.0,9.0,0.0,0.0,-11.89,-0.21,-0.98,0.08,-1.5,-0.04,0.76,311.0,1.0,1.0,0.0,50.0
2320,1,walk,walk,6903,,6903.0,20.0,0.0,0.0,1.0,-13.06,-0.368,-0.041,0.0,28.0,26.49,0.0,0.0,9.0,0.0,0.0,-11.89,-0.21,-0.98,0.08,-1.5,-0.04,0.77,311.0,1.0,1.0,0.0,50.0
2320,1,walk,walk,6904,,6904.0,20.0,0.0,0.0,1.0,-13.06,-0.368,-0.113,0.0,28.0,26.49,0.0,0.0,9.0,0.0,0.0,-11.89,-0.21,-0.98,0.08,-1.5,-0.04,0.77,311.0,1.0,1.0,0.0,50.0
2380,1,walk,walk,6905,,6905.0,20.0,0.0,0.0,1.0,-13.05,-0.368,-0.036,0.0,28.0,26.49,0.0,0.0,9.0,0.0,0.0,-11.88,-0.21,-0.98,0.08,-1.5,-0.04,0.78,311.0,1.0,1.0,0.0,50.0
2380,1,walk,walk,6906,,6906.0,20.0,0.0,0.0,1.0,-13.04,-0.368,0.03,0.0,28.0,26.49,0.0,0.0,9.0,0.0,0.0,-11.88,-0.21,-0.98,0.08,-1.5,-0.04,0.78,311.0,1.0,1.0,0.0,50.0
2420,1,walk,walk,6907,,6907.0,20.0,0.0,0.0,1.0,-13.04,-0.368,0.105,0.0,28.0,26.49,0.0,0.0,9.0,0.0,0.0,-11.88,-0.21,-0.98,0.08,-1.49,-0.02,0.79,311.0,1.0,1.0,0.0,50.0
2420,1,walk,walk,6908,,6908.0,20.0,0.0,0.0,1.0,-13.03,-0.368,0.013,0.0,28.0,26.49,0.0,0.0,9.0,0.0,0.0,-11.87,-0.21,-0.98,0.08,-1.49,-0.01,0.8,311.0,1.0,1.0,0.0,50.0
2420,1,walk,walk,6909,,6909.0,20.0,0.0,0.0,1.0,-13.03,-0.368,-0.014,0.0,28.0,26.49,0.0,0.0,9.0,0.0,0.0,-11.87,-0.21,-0.98,0.08,-1.48,0.02,0.81,311.0,1.0,1.0,0.0,50.0
2480,1,walk,walk,6910,,6910.0,20.0,0.0,0.0,1.0,-13.02,-0.368,-0.006,0.0,28.0,26.49,0.0,0.0,9.0,0.0,0.0,-11.87,-0.21,-0.98,0.08,-1.47,0.04,0.83,311.0,1.0,1.0,0.0,50.0
2480,1,walk,walk,6911,,6911.0,20.0,0.0,0.0,1.0,-13.01,-0.368,0.003,0.0,28.0,26.49,0.0,0.0,9.0,0.0,0.0,-11.87,-0.21,-0.98,0.08,-1.46,0.06,0.84,311.0,1.0,1.0,0.0,50.0
2480,1,walk,walk,6912,,6912.0,20.0,0.0,0.0,1.0,-13.01,-0.368,0.143,0.0,28.0,26.49,0.0,0.0,9.0,0.0,0.0,-11.87,-0.21,-0.98,0.08,-1.45,0.08,0.86,311.0,1.0,1.0,0.0,50.0
2540,1,walk,walk,6913,,6913.0,20.0,0.0,0.0,1.0,-13.0,-0.368,-0.033,0.0,28.0,26.49,0.0,0.0,9.0,0.0,0.0,-11.87,-0.21,-0.98,0.08,-1.44,0.11,0.88,311.0,1.0,1.0,0.0,50.0
2540,1,walk,walk,6914,,6914.0,20.0,0.0,0.0,1.0,-12.99,-0.368,-0.015,0.0,28.0,26.49,0.0,0.0,9.0,0.0,0.0,-11.87,-0.21,-0.98,0.08,-1.43,0.12,0.9,311.0,1.0,1.0,0.0,50.0
2540,1,walk,walk,6915,,6915.0,20.0,0.0,0.0,1.0,-12.99,-0.368,0.033,0.0,28.0,26.49,0.0,0.0,9.0,0.0,0.0,-11.87,-0.21,-0.98,0.08,-1.43,0.14,0.91,311.0,1.0,1.0,0.0,50.0
2600,1,walk,walk,6916,,6916.0,20.0,0.0,0.0,1.0,-12.98,-0.368,-0.015,0.0,28.0,26.49,0.0,0.0,9.0,0.0,0.0,-11.87,-0.21,-0.98,0.08,-1.43,0.14,0.93,311.0,1.0,1.0,0.0,50.0
2600,1,walk,walk,6917,,6917.0,20.0,0.0,0.0,1.0,-12.97,-0.368,-0.022,0.0,28.0,26.49,0.0,0.0,9.0,0.0,0.0,-11.86,-0.21,-0.98,0.08,-1.42,0.13,0.94,311.0,1.0,1.0,0.0,50.0
2600,1,walk,walk,6918,,6918.0,20.0,0.0,0.0,1.0,-12.97,-0.368,-0.015,0.0,28.0,26.49,0.0,0.0,9.0,0.0,0.0,-11.86,-0.21,-0.98,0.08,-1.43,0.11,0.95,311.0,1.0,1.0,0.0,50.0
2640,1,walk,walk,6919,,6919.0,20.0,0.0,0.0,1.0,-12.96,-0.368,-0.026,0.0,28.0,26.49,0.0,0.0,9.0,0.0,0.0,-11.85,-0.21,-0.98,0.08,-1.43,0.08,0.96,311.0,1.0,1.0,0.0,50.0
2640,1,walk,walk,6920,,6920.0,20.0,0.0,0.0,1.0,-12.96,-0.368,-0.06,0.0,28.0,26.49,0.0,0.0,9.0,0.0,0.0,-11.84,-0.21,-0.98,0.08,-1.43,0.05,0.97,311.0,1.0,1.0,0.0,50.0
2700,1,walk,walk,6921,,6921.0,20.0,0.0,0.0,1.0,-12.95,-0.368,0.048,0.0,28.0,26.49,0.0,0.0,9.0,0.0,0.0,-11.83,-0.21,-0.98,0.08,-1.44,0.02,0.98,311.0,1.0,1.0,0.0,50.0
2700,1,walk,walk,6922,,6922.0,20.0,0.0,0.0,1.0,-12.95,-0.368,-0.019,0.0,28.0,26.46,0.0,0.0,9.0,0.0,0.0,-11.82,-0.21,-0.98,0.08,-1.44,-0.02,1.0,311.0,1.0,1.0,0.0,50.0
2700,1,walk,walk,6923,,6923.0,20.0,0.0,0.0,1.0,-12.94,-0.368,-0.037,0.0,28.0,26.49,0.0,0.0,9.0,0.0,0.0,-11.81,-0.21,-0.98,0.08,-1.44,-0.06,1.01,311.0,1.0,1.0,0.0,50.0
2760,1,walk,walk,6924,,6924.0,20.0,0.0,0.0,1.0,-12.94,-0.368,-0.013,0.0,28.0,26.49,0.0,0.0,9.0,0.0,0.0,-11.81,-0.21,-0.98,0.08,-1.44,-0.09,1.02,311.0,1.0,1.0,0.0,50.0
2760,1,walk,walk,6925,,6925.0,20.0,0.0,0.0,1.0,-12.94,-0.368,-0.011,0.0,28.0,26.49,0.0,0.0,9.0,0.0,0.0,-11.8,-0.21,-0.98,0.08,-1.44,-0.11,1.03,311.0,1.0,1.0,0.0,50.0
2800,1,walk,walk,6926,,6926.0,20.0,0.0,0.0,1.0,-12.93,-0.368,-0.003,0.0,28.0,26.49,0.0,0.0,9.0,0.0,0.0,-11.79,-0.2,-0.98,0.08,-1.45,-0.14,1.04,311.0,1.0,1.0,0.0,50.0
2800,1,walk,walk,6927,,6927.0,20.0,0.0,0.0,1.0,-12.93,-0.368,-0.052,0.0,28.0,26.49,0.0,0.0,9.0,0.0,0.0,-11.78,-0.2,-0.98,0.08,-1.44,-0.16,1.05,311.0,1.0,1.0,0.0,50.0
2800,1,walk,walk,6928,,6928.0,20.0,0.0,0.0,1.0,-12.93,-0.368,0.054,0.0,28.0,26.49,0.0,0.0,9.0,0.0,0.0,-11.78,-0.2,-0.98,0.08,-1.44,-0.18,1.05,311.0,1.0,1.0,0.0,50.0
2860,1,walk,walk,6929,,6929.0,20.0,0.0,0.0,1.0,-12.92,-0.368,-0.052,0.0,28.0,26.49,0.0,0.0,9.0,0.0,0.0,-11.77,-0.2,-0.98,0.08,-1.44,-0.19,1.06,311.0,1.0,1.0,0.0,50.0
2860,1,walk,walk,6930,,6930.0,20.0,0.0,0.0,1.0,-12.92,-0.368,-0.003,0.0,28.0,26.49,0.0,0.0,9.0,0.0,0.0,-11.76,-0.2,-0.98,0.08,-1.44,-0.19,1.06,311.0,1.0,1.0,0.0,50.0
2860,1,walk,walk,6931,,6931.0,20.0,0.0,0.0,1.0,-12.92,-0.368,0.036,0.0,28.0,26.49,0.0,0.0,9.0,0.0,0.0,-11.76,-0.2,-0.98,0.08,-1.44,-0.18,1.06,311.0,1.0,1.0,0.0,50.0
2920,1,walk,walk,6932,,6932.0,20.0,0.0,0.0,1.0,-12.91,-0.368,-0.007,0.0,28.0,26.49,0.0,0.0,9.0,0.0,0.0,-11.75,-0.2,-0.98,0.08,-1.44,-0.16,1.07,311.0,1.0,1.0,0.0,50.0
2920,1,walk,walk,6933,,6933.0,20.0,0.0,0.0,1.0,-12.91,-0.368,-0.019,0.0,28.0,26.49,0.0,0.0,9.0,0.0,0.0,-11.75,-0.2,-0.98,0.08,-1.44,-0.15,1.07,311.0,1.0,1.0,0.0,50.0
2960,1,walk,walk,6934,,6934.0,20.0,0.0,0.0,1.0,-12.91,-0.368,-0.021,0.0,28.0,26.49,0.0,0.0,9.0,0.0,0.0,-11.75,-0.2,-0.98,0.08,-1.43,-0.14,1.08,311.0,1.0,1.0,0.0,50.0
2980,1,walk,walk,6935,,6935.0,20.0,0.0,0.0,1.0,-12.91,-0.368,-0.045,0.0,28.0,26.49,0.0,0.0,9.0,0.0,0.0,-11.75,-0.2,-0.98,0.08,-1.43,-0.13,1.08,311.0,1.0,1.0,0.0,50.0
2980,1,walk,walk,6936,,6936.0,20.0,0.0,0.0,1.0,-12.9,-0.368,0.002,0.0,28.0,26.49,0.0,0.0,9.0,0.0,0.0,-11.75,-0.2,-0.98,0.08,-1.43,-0.13,1.09,311.0,1.0,1.0,0.0,50.0
3020,1,walk,walk,6937,,6937.0,20.0,0.0,0.0,1.0,-12.9,-0.368,-0.013,0.0,28.0,26.49,0.0,0.0,9.0,0.0,0.0,-11.76,-0.2,-0.98,0.08,-1.43,-0.13,1.09,311.0,1.0,1.0,0.0,50.0
3020,1,walk,walk,6938,,6938.0,20.0,0.0,0.0,1.0,-12.9,-0.368,0.006,0.0,28.0,26.49,0.0,0.0,9.0,0.0,0.0,-11.76,-0.2,-0.98,0.08,-1.43,-0.12,1.1,311.0,1.0,1.0,0.0,50.0
3020,1,walk,walk,6939,,6939.0,20.0,0.0,0.0,1.0,-12.9,-0.368,-0.005,0.0,28.0,26.49,0.0,0.0,9.0,0.0,0.0,-11.76,-0.2,-0.98,0.08,-1.44,-0.12,1.12,311.0,1.0,1.0,0.0,50.0
3080,1,walk,walk,6940,,6940.0,20.0,0.0,0.0,1.0,-12.9,-0.368,-0.03,0.0,28.0,26.49,0.0,0.0,9.0,0.0,0.0,-11.77,-0.2,-0.98,0.08,-1.45,-0.13,1.13,311.0,1.0,1.0,0.0,50.0
3080,1,walk,walk,6941,,6941.0,20.0,0.0,0.0,1.0,-12.89,-0.368,0.015,0.0,28.0,26.49,0.0,0.0,9.0,0.0,0.0,-11.77,-0.2,-0.98,0.08,-1.46,-0.15,1.15,311.0,1.0,1.0,0.0,50.0
3080,1,walk,walk,6942,,6942.0,20.0,0.0,0.0,1.0,-12.89,-0.368,-0.028,0.0,28.0,26.49,0.0,0.0,9.0,0.0,0.0,-11.77,-0.2,-0.98,0.08,-1.48,-0.18,1.16,311.0,1.0,1.0,0.0,50.0
3140,1,walk,walk,6943,,6943.0,20.0,0.0,0.0,1.0,-12.89,-0.368,-0.069,0.0,28.0,26.49,0.0,0.0,9.0,0.0,0.0,-11.77,-0.2,-0.98,0.08,-1.49,-0.21,1.17,311.0,1.0,1.0,0.0,50.0
3140,1,walk,walk,6944,,6944.0,20.0,0.0,0.0,1.0,-12.89,-0.368,-0.065,0.0,28.0,26.49,0.0,0.0,9.0,0.0,0.0,-11.77,-0.2,-0.98,0.08,-1.51,-0.23,1.18,311.0,1.0,1.0,0.0,50.0
3140,1,walk,walk,6945,,6945.0,20.0,0.0,0.0,1.0,-12.89,-0.368,0.046,0.0,28.0,26.49,0.0,0.0,9.0,0.0,0.0,-11.77,-0.2,-0.98,0.08,-1.53,-0.25,1.18,311.0,1.0,1.0,0.0,50.0
3180,1,walk,walk,6946,,6946.0,20.0,0.0,0.0,1.0,-12.89,-0.368,-0.019,0.0,28.0,26.49,0.0,0.0,9.0,0.0,0.0,-11.77,-0.2,-0.98,0.08,-1.55,-0.27,1.19,311.0,1.0,1.0,0.0,50.0
3180,1,walk,walk,6947,,6947.0,20.0,0.0,0.0,1.0,-12.89,-0.368,-0.005,0.0,28.0,26.49,0.0,0.0,9.0,0.0,0.0,-11.77,-0.2,-0.98,0.08,-1.57,-0.29,1.19,311.0,1.0,1.0,0.0,50.0
3240,1,walk,walk,6948,,6948.0,20.0,0.0,0.0,1.0,-12.89,-0.368,-0.044,0.0,28.0,26.49,0.0,0.0,9.0,0.0,0.0,-11.77,-0.2,-0.98,0.08,-1.58,-0.3,1.19,311.0,1.0,1.0,0.0,50.0
3240,1,walk,walk,6949,,6949.0,20.0,0.0,0.0,1.0,-12.89,-0.368,0.045,0.0,28.0,26.49,0.0,0.0,9.0,0.0,0.0,-11.77,-0.2,-0.98,0.08,-1.58,-0.31,1.18,311.0,1.0,1.0,0.0,50.0
3240,1,walk,walk,6950,,6950.0,20.0,0.0,0.0,1.0,-12.89,-0.368,0.062,0.0,28.0,26.49,0.0,0.0,9.0,0.0,0.0,-11.77,-0.2,-0.98,0.08,-1.59,-0.3,1.18,311.0,1.0,1.0,0.0,50.0
3300,1,walk,walk,6951,,6951.0,20.0,0.0,0.0,1.0,-12.89,-0.368,0.007,0.0,28.0,26.49,0.0,0.0,9.0,0.0,0.0,-11.77,-0.2,-0.98,0.08,-1.6,-0.29,1.17,311.0,1.0,1.0,0.0,50.0
3300,1,walk,walk,6952,,6952.0,20.0,0.0,0.0,1.0,-12.89,-0.368,-0.029,0.0,28.0,26.49,0.0,0.0,9.0,0.0,0.0,-11.76,-0.2,-0.98,0.08,-1.6,-0.27,1.16,311.0,1.0,1.0,0.0,50.0
3340,1,walk,walk,6953,,6953.0,20.0,0.0,0.0,1.0,-12.89,-0.368,0.015,0.0,28.0,26.49,0.0,0.0,9.0,0.0,0.0,-11.76,-0.2,-0.98,0.08,-1.61,-0.24,1.15,311.0,1.0,1.0,0.0,50.0
3340,1,walk,walk,6954,,6954.0,20.0,0.0,0.0,1.0,-12.89,-0.368,-0.045,0.0,28.0,26.49,0.0,0.0,9.0,0.0,0.0,-11.75,-0.2,-0.98,0.08,-1.61,-0.22,1.13,311.0,1.0,1.0,0.0,50.0
3340,1,walk,walk,6955,,6955.0,20.0,0.0,0.0,1.0,-12.89,-0.368,0.001,0.0,28.0,26.49,0.0,0.0,9.0,0.0,0.0,-11.75,-0.2,-0.98,0.08,-1.62,-0.2,1.11,311.0,1.0,1.0,0.0,50.0
3400,1,walk,walk,6956,,6956.0,20.0,0.0,0.0,1.0,-12.89,-0.368,-0.095,0.0,28.0,26.49,0.0,0.0,9.0,0.0,0.0,-11.74,-0.2,-0.98,0.08,-1.62,-0.17,1.1,311.0,1.0,1.0,0.0,50.0
3400,1,walk,walk,6957,,6957.0,20.0,0.0,0.0,1.0,-12.89,-0.368,-0.034,0.0,28.0,26.49,0.0,0.0,9.0,0.0,0.0,-11.74,-0.2,-0.98,0.08,-1.63,-0.15,1.09,311.0,1.0,1.0,0.0,50.0
3400,1,walk,walk,6958,,6958.0,20.0,0.0,0.0,1.0,-12.89,-0.368,-0.01,0.0,28.0,26.49,0.0,0.0,9.0,0.0,0.0,-11.74,-0.2,-0.98,0.08,-1.63,-0.12,1.08,311.0,1.0,1.0,0.0,50.0
3440,1,walk,walk,6959,,6959.0,20.0,0.0,0.0,1.0,-12.89,-0.368,-0.068,0.0,28.0,26.49,0.0,0.0,9.0,0.0,0.0,-11.74,-0.2,-0.98,0.08,-1.63,-0.09,1.08,311.0,1.0,1.0,0.0,50.0
3440,1,walk,walk,6960,,6960.0,20.0,0.0,0.0,1.0,-12.89,-0.368,0.019,0.0,28.0,26.49,0.0,0.0,9.0,0.0,0.0,-11.74,-0.2,-0.98,0.08,-1.63,-0.06,1.08,311.0,1.0,1.0,0.0,50.0
3500,1,walk,walk,6961,,6961.0,20.0,0.0,0.0,1.0,-12.89,-0.368,0.045,0.0,28.0,26.49,0.0,0.0,9.0,0.0,0.0,-11.74,-0.2,-0.98,0.08,-1.64,-0.03,1.08,311.0,1.0,1.0,0.0,50.0
3500,1,walk,walk,6962,,6962.0,20.0,0.0,0.0,1.0,-12.89,-0.368,0.088,0.0,28.0,26.46,0.0,0.0,9.0,0.0,0.0,-11.74,-0.2,-0.98,0.08,-1.64,0.0,1.08,311.0,1.0,1.0,0.0,50.0
3500,1,walk,walk,6963,,6963.0,20.0,0.0,0.0,1.0,-12.89,-0.368,-0.026,0.0,28.0,26.49,0.0,0.0,9.0,0.0,0.0,-11.74,-0.2,-0.98,0.08,-1.64,0.03,1.08,311.0,1.0,1.0,0.0,50.0
3560,1,walk,walk,6964,,6964.0,20.0,0.0,0.0,1.0,-12.89,-0.368,0.101,0.0,28.0,26.49,0.0,0.0,9.0,0.0,0.0,-11.75,-0.2,-0.98,0.08,-1.65,0.05,1.08,311.0,1.0,1.0,0.0,50.0
3560,1,walk,walk,6965,,6965.0,20.0,0.0,0.0,1.0,-12.88,-0.368,-0.049,0.0,28.0,26.49,0.0,0.0,9.0,0.0,0.0,-11.76,-0.2,-0.98,0.08,-1.65,0.07,1.08,311.0,1.0,1.0,0.0,50.0
3560,1,walk,walk,6966,,6966.0,20.0,0.0,0.0,1.0,-12.88,-0.368,0.048,0.0,28.0,26.49,0.0,0.0,9.0,0.0,0.0,-11.76,-0.2,-0.98,0.08,-1.64,0.08,1.09,311.0,1.0,1.0,0.0,50.0
3620,1,walk,walk,6967,,6967.0,20.0,0.0,0.0,1.0,-12.88,-0.368,-0.003,0.0,28.0,26.49,0.0,0.0,9.0,0.0,0.0,-11.77,-0.2,-0.98,0.08,-1.64,0.08,1.09,311.0,1.0,1.0,0.0,50.0
3620,1,walk,walk,6968,,6968.0,20.0,0.0,0.0,1.0,-12.88,-0.368,-0.006,0.0,28.0,26.49,0.0,0.0,9.0,0.0,0.0,-11.77,-0.2,-0.98,0.08,-1.63,0.08,1.09,311.0,1.0,1.0,0.0,50.0
3620,1,walk,walk,6969,,6969.0,20.0,0.0,0.0,1.0,-12.88,-0.368,0.023,0.0,28.0,26.49,0.0,0.0,9.0,0.0,0.0,-11.77,-0.2,-0.98,0.08,-1.62,0.08,1.09,311.0,1.0,1.0,0.0,50.0
3680,1,walk,walk,6970,,6970.0,20.0,0.0,0.0,1.0,-12.88,-0.368,0.007,0.0,28.0,26.49,0.0,0.0,9.0,0.0,0.0,-11.77,-0.2,-0.98,0.08,-1.61,0.08,1.09,311.0,1.0,1.0,0.0,50.0
3680,1,walk,walk,6971,,6971.0,20.0,0.0,0.0,1.0,-12.88,-0.368,-0.097,0.0,28.0,26.49,0.0,0.0,9.0,0.0,0.0,-11.77,-0.2,-0.98,0.08,-1.6,0.07,1.1,311.0,1.0,1.0,0.0,50.0
3680,1,walk,walk,6972,,6972.0,20.0,0.0,0.0,1.0,-12.88,-0.368,0.042,0.0,28.0,26.49,0.0,0.0,9.0,0.0,0.0,-11.78,-0.2,-0.98,0.08,-1.59,0.07,1.11,311.0,1.0,1.0,0.0,50.0
3740,1,walk,walk,6973,,6973.0,20.0,0.0,0.0,1.0,-12.88,-0.368,-0.002,0.0,28.0,26.49,0.0,0.0,9.0,0.0,0.0,-11.78,-0.2,-0.98,0.08,-1.58,0.07,1.12,311.0,1.0,1.0,0.0,50.0
3740,1,walk,walk,6974,,6974.0,20.0,0.0,0.0,1.0,-12.88,-0.368,0.019,0.0,28.0,26.49,0.0,0.0,9.0,0.0,0.0,-11.79,-0.2,-0.98,0.08,-1.58,0.06,1.12,311.0,1.0,1.0,0.0,50.0
3740,1,walk,walk,6975,,6975.0,20.0,0.0,0.0,1.0,-12.87,-0.368,-0.038,0.0,28.0,26.49,0.0,0.0,9.0,0.0,0.0,-11.79,-0.2,-0.98,0.08,-1.57,0.06,1.13,311.0,1.0,1.0,0.0,50.0
3800,1,walk,walk,6976,,6976.0,20.0,0.0,0.0,1.0,-12.87,-0.368,0.053,0.0,28.0,26.49,0.0,0.0,9.0,0.0,0.0,-11.8,-0.21,-0.98,0.08,-1.57,0.05,1.14,311.0,1.0,1.0,0.0,50.0
3800,1,walk,walk,6977,,6977.0,20.0,0.0,0.0,1.0,-12.87,-0.368,0.021,0.0,28.0,26.49,0.0,0.0,9.0,0.0,0.0,-11.8,-0.21,-0.98,0.08,-1.57,0.05,1.14,311.0,1.0,1.0,0.0,50.0
3800,1,walk,walk,6978,,6978.0,20.0,0.0,0.0,1.0,-12.87,-0.368,-0.06,0.0,28.0,26.49,0.0,0.0,9.0,0.0,0.0,-11.8,-0.21,-0.98,0.08,-1.57,0.05,1.15,311.0,1.0,1.0,0.0,50.0
3840,1,walk,walk,6979,,6979.0,20.0,0.0,0.0,1.0,-12.87,-0.368,-0.083,0.0,28.0,26.49,0.0,0.0,9.0,0.0,0.0,-11.79,-0.2,-0.98,0.08,-1.57,0.04,1.15,311.0,1.0,1.0,0.0,50.0
3900,1,walk,walk,6980,,6980.0,20.0,0.0,0.0,1.0,-12.87,-0.368,-0.062,0.0,28.0,26.49,0.0,0.0,9.0,0.0,0.0,-11.79,-0.2,-0.98,0.08,-1.58,0.04,1.15,311.0,1.0,1.0,0.0,50.0
3900,1,walk,walk,6981,,6981.0,20.0,0.0,0.0,1.0,-12.87,-0.368,0.037,0.0,28.0,26.49,0.0,0.0,9.0,0.0,0.0,-11.79,-0.2,-0.98,0.08,-1.58,0.05,1.15,311.0,1.0,1.0,0.0,50.0
3900,1,walk,walk,6982,,6982.0,20.0,0.0,0.0,1.0,-12.87,-0.368,-0.026,0.0,28.0,26.49,0.0,0.0,9.0,0.0,0.0,-11.79,-0.2,-0.98,0.08,-1.59,0.06,1.16,311.0,1.0,1.0,0.0,50.0
3900,1,walk,walk,6983,,6983.0,20.0,0.0,0.0,1.0,-12.87,-0.368,-0.037,0.0,28.0,26.49,0.0,0.0,9.0,0.0,0.0,-11.79,-0.2,-0.98,0.08,-1.6,0.07,1.16,311.0,1.0,1.0,0.0,50.0
3960,1,walk,walk,6984,,6984.0,20.0,0.0,0.0,1.0,-12.87,-0.368,0.017,0.0,28.0,26.49,0.0,0.0,9.0,0.0,0.0,-11.8,-0.2,-0.98,0.08,-1.61,0.07,1.17,311.0,1.0,1.0,0.0,50.0
3960,1,walk,walk,6985,,6985.0,20.0,0.0,0.0,1.0,-12.87,-0.368,-0.019,0.0,28.0,26.49,0.0,0.0,9.0,0.0,0.0,-11.8,-0.21,-0.98,0.08,-1.61,0.08,1.18,311.0,1.0,1.0,0.0,50.0
3960,1,walk,walk,6986,,6986.0,20.0,0.0,0.0,1.0,-12.87,-0.368,-0.023,0.0,28.0,26.49,0.0,0.0,9.0,0.0,0.0,-11.8,-0.21,-0.98,0.08,-1.61,0.07,1.18,311.0,1.0,1.0,0.0,50.0
4000,1,walk,walk,6987,,6987.0,20.0,0.0,0.0,1.0,-12.87,-0.368,-0.061,0.0,28.0,26.49,0.0,0.0,9.0,0.0,0.0,-11.8,-0.21,-0.98,0.08,-1.62,0.07,1.18,311.0,1.0,1.0,0.0,50.0
4000,1,walk,walk,6988,,6988.0,20.0,0.0,0.0,1.0,-12.87,-0.368,-0.022,0.0,28.0,26.49,0.0,0.0,9.0,0.0,0.0,-11.8,-0.21,-0.98,0.08,-1.62,0.06,1.17,311.0,1.0,1.0,0.0,50.0
4060,1,walk,walk,6989,,6989.0,20.0,0.0,0.0,1.0,-12.87,-0.368,0.003,0.0,28.0,26.49,0.0,0.0,9.0,0.0,0.0,-11.8,-0.21,-0.98,0.08,-1.63,0.05,1.17,311.0,1.0,1.0,0.0,50.0
4060,1,walk,walk,6990,,6990.0,20.0,0.0,0.0,1.0,-12.88,-0.368,0.006,0.0,28.0,26.49,0.0,0.0,9.0,0.0,0.0,-11.8,-0.21,-0.98,0.08,-1.63,0.04,1.16,311.0,1.0,1.0,0.0,50.0
4060,1,walk,walk,6991,,6991.0,20.0,0.0,0.0,1.0,-12.88,-0.368,0.065,0.0,28.0,26.49,0.0,0.0,9.0,0.0,0.0,-11.8,-0.21,-0.98,0.08,-1.63,0.04,1.15,311.0,1.0,1.0,0.0,50.0
4120,1,walk,walk,6992,,6992.0,20.0,0.0,0.0,1.0,-12.88,-0.368,0.011,0.0,28.0,26.49,0.0,0.0,9.0,0.0,0.0,-11.8,-0.21,-0.98,0.08,-1.63,0.03,1.14,311.0,1.0,1.0,0.0,50.0
4120,1,walk,walk,6993,,6993.0,20.0,0.0,0.0,1.0,-12.88,-0.368,-0.053,0.0,28.0,26.46,0.0,0.0,9.0,0.0,0.0,-11.8,-0.21,-0.98,0.08,-1.63,0.02,1.13,311.0,1.0,1.0,0.0,50.0
4180,1,walk,walk,6994,,6994.0,20.0,0.0,0.0,1.0,-12.88,-0.368,0.046,0.0,28.0,26.49,0.0,0.0,9.0,0.0,0.0,-11.81,-0.21,-0.98,0.08,-1.63,0.0,1.12,311.0,1.0,1.0,0.0,50.0
4180,1,walk,walk,6995,,6995.0,20.0,0.0,0.0,1.0,-12.88,-0.368,-0.019,0.0,28.0,26.49,0.0,0.0,9.0,0.0,0.0,-11.81,-0.21,-0.98,0.08,-1.63,-0.01,1.11,311.0,1.0,1.0,0.0,50.0
4180,1,walk,walk,6996,,6996.0,20.0,0.0,0.0,1.0,-12.88,-0.368,-0.015,0.0,28.0,26.49,0.0,0.0,9.0,0.0,0.0,-11.81,-0.21,-0.98,0.08,-1.63,-0.04,1.1,311.0,1.0,1.0,0.0,50.0
4220,1,walk,walk,6997,,6997.0,20.0,0.0,0.0,1.0,-12.88,-0.368,0.052,0.0,28.0,26.49,0.0,0.0,9.0,0.0,0.0,-11.81,-0.21,-0.98,0.08,-1.63,-0.06,1.1,311.0,1.0,1.0,0.0,50.0
4220,1,walk,walk,6998,,6998.0,20.0,0.0,0.0,1.0,-12.88,-0.368,-0.005,0.0,28.0,26.49,0.0,0.0,9.0,0.0,0.0,-11.81,-0.21,-0.98,0.08,-1.64,-0.09,1.1,311.0,1.0,1.0,0.0,50.0
4220,1,walk,walk,6999,,6999.0,20.0,0.0,0.0,1.0,-12.88,-0.368,0.007,0.0,28.0,26.49,0.0,0.0,9.0,0.0,0.0,-11.81,-0.21,-0.98,0.08,-1.66,-0.11,1.11,311.0,1.0,1.0,0.0,50.0
4280,1,walk,walk,7000,,7000.0,20.0,0.0,0.0,1.0,-12.88,-0.368,-0.04,0.0,28.0,26.49,0.0,0.0,9.0,0.0,0.0,-11.81,-0.21,-0.98,0.08,-1.67,-0.14,1.11,311.0,1.0,1.0,0.0,50.0
4280,1,walk,walk,7001,,7001.0,20.0,0.0,0.0,1.0,-12.89,-0.368,0.044,0.0,28.0,26.49,0.0,0.0,9.0,0.0,0.0,-11.8,-0.21,-0.98,0.08,-1.68,-0.16,1.12,311.0,1.0,1.0,0.0,50.0
4280,1,walk,walk,7002,,7002.0,20.0,0.0,0.0,1.0,-12.89,-0.368,-0.019,0.0,28.0,26.49,0.0,0.0,9.0,0.0,0.0,-11.8,-0.21,-0.98,0.08,-1.69,-0.18,1.11,311.0,1.0,1.0,0.0,50.0
4340,1,walk,walk,7003,,7003.0,20.0,0.0,0.0,1.0,-12.89,-0.368,-0.052,0.0,28.0,26.49,0.0,0.0,9.0,0.0,0.0,-11.8,-0.21,-0.98,0.08,-1.69,-0.18,1.11,311.0,1.0,1.0,0.0,50.0
4340,1,walk,walk,7004,,7004.0,20.0,0.0,0.0,1.0,-12.89,-0.368,0.022,0.0,28.0,26.49,0.0,0.0,9.0,0.0,0.0,-11.8,-0.21,-0.98,0.08,-1.7,-0.18,1.1,311.0,1.0,1.0,0.0,50.0
4400,1,walk,walk,7005,,7005.0,20.0,0.0,0.0,1.0,-12.89,-0.368,0.052,0.0,28.0,26.49,0.0,0.0,9.0,0.0,0.0,-11.81,-0.21,-0.98,0.08,-1.71,-0.18,1.09,311.0,1.0,1.0,0.0,50.0
4400,1,walk,walk,7006,,7006.0,20.0,0.0,0.0,1.0,-12.89,-0.368,-0.049,0.0,28.0,26.49,0.0,0.0,9.0,0.0,0.0,-11.81,-0.21,-0.98,0.08,-1.71,-0.18,1.09,311.0,1.0,1.0,0.0,50.0
4400,1,walk,walk,7007,,7007.0,20.0,0.0,0.0,1.0,-12.89,-0.368,0.065,0.0,28.0,26.49,0.0,0.0,9.0,0.0,0.0,-11.81,-0.21,-0.98,0.08,-1.72,-0.18,1.09,311.0,1.0,1.0,0.0,50.0
4400,1,walk,walk,7008,,7008.0,20.0,0.0,0.0,1.0,-12.89,-0.368,0.021,0.0,28.0,26.49,0.0,0.0,9.0,0.0,0.0,-11.81,-0.21,-0.98,0.08,-1.72,-0.18,1.09,311.0,1.0,1.0,0.0,50.0
4460,1,walk,walk,7009,,7009.0,20.0,0.0,0.0,1.0,-12.89,-0.368,0.018,0.0,28.0,26.49,0.0,0.0,9.0,0.0,0.0,-11.8,-0.21,-0.98,0.08,-1.71,-0.17,1.1,311.0,1.0,1.0,0.0,50.0
4460,1,walk,walk,7010,,7010.0,20.0,0.0,0.0,1.0,-12.89,-0.368,0.045,0.0,28.0,26.49,0.0,0.0,9.0,0.0,0.0,-11.8,-0.21,-0.98,0.08,-1.71,-0.15,1.11,311.0,1.0,1.0,0.0,50.0
4460,1,walk,walk,7011,,7011.0,20.0,0.0,0.0,1.0,-12.89,-0.368,-0.041,0.0,28.0,26.49,0.0,0.0,9.0,0.0,0.0,-11.79,-0.2,-0.98,0.08,-1.71,-0.13,1.12,311.0,1.0,1.0,0.0,50.0
4500,1,walk,walk,7012,,7012.0,20.0,0.0,0.0,1.0,-12.89,-0.368,-0.017,0.0,28.0,26.49,0.0,0.0,9.0,0.0,0.0,-11.78,-0.2,-0.98,0.08,-1.7,-0.1,1.13,311.0,1.0,1.0,0.0,50.0
4560,1,walk,walk,7013,,7013.0,20.0,0.0,0.0,1.0,-12.89,-0.368,0.038,0.0,28.0,26.49,0.0,0.0,9.0,0.0,0.0,-11.77,-0.2,-0.98,0.08,-1.69,-0.08,1.14,311.0,1.0,1.0,0.0,50.0
4560,1,walk,walk,7014,,7014.0,20.0,0.0,0.0,1.0,-12.89,-0.368,0.019,0.0,28.0,26.49,0.0,0.0,9.0,0.0,0.0,-11.77,-0.2,-0.98,0.08,-1.67,-0.05,1.15,311.0,1.0,1.0,0.0,50.0
4560,1,walk,walk,7015,,7015.0,20.0,0.0,0.0,1.0,-12.89,-0.368,0.006,0.0,28.0,26.46,0.0,0.0,9.0,0.0,0.0,-11.77,-0.2,-0.98,0.08,-1.65,-0.03,1.15,311.0,1.0,1.0,0.0,50.0
4560,1,walk,walk,7016,,7016.0,20.0,0.0,0.0,1.0,-12.89,-0.368,0.05,0.0,28.0,26.49,0.0,0.0,9.0,0.0,0.0,-11.76,-0.2,-0.98,0.08,-1.63,-0.01,1.16,311.0,1.0,1.0,0.0,50.0
4620,1,walk,walk,7017,,7017.0,20.0,0.0,0.0,1.0,-12.89,-0.368,-0.049,0.0,28.0,26.49,0.0,0.0,9.0,0.0,0.0,-11.76,-0.2,-0.98,0.08,-1.61,0.0,1.17,311.0,1.0,1.0,0.0,50.0
4620,1,walk,walk,7018,,7018.0,20.0,0.0,0.0,1.0,-12.89,-0.368,-0.034,0.0,28.0,26.49,0.0,0.0,9.0,0.0,0.0,-11.76,-0.2,-0.98,0.08,-1.59,0.01,1.18,311.0,1.0,1.0,0.0,50.0
4620,1,walk,walk,7019,,7019.0,20.0,0.0,0.0,1.0,-12.89,-0.368,0.003,0.0,28.0,26.49,0.0,0.0,9.0,0.0,0.0,-11.76,-0.2,-0.98,0.08,-1.58,0.03,1.18,311.0,1.0,1.0,0.0,50.0
4680,1,walk,walk,7020,,7020.0,20.0,0.0,0.0,1.0,-12.89,-0.368,-0.017,0.0,28.0,26.49,0.0,0.0,9.0,0.0,0.0,-11.76,-0.2,-0.98,0.08,-1.56,0.04,1.19,311.0,1.0,1.0,0.0,50.0
4680,1,walk,walk,7021,,7021.0,20.0,0.0,0.0,1.0,-12.89,-0.368,-0.021,0.0,28.0,26.49,0.0,0.0,9.0,0.0,0.0,-11.76,-0.2,-0.98,0.08,-1.55,0.05,1.19,311.0,1.0,1.0,0.0,50.0
4680,1,walk,walk,7022,,7022.0,20.0,0.0,0.0,1.0,-12.89,-0.368,0.06,0.0,28.0,26.49,0.0,0.0,9.0,0.0,0.0,-11.76,-0.2,-0.98,0.08,-1.54,0.06,1.18,311.0,1.0,1.0,0.0,50.0
4740,1,walk,walk,7023,,7023.0,20.0,0.0,0.0,1.0,-12.89,-0.368,0.003,0.0,28.0,26.49,0.0,0.0,9.0,0.0,0.0,-11.76,-0.2,-0.98,0.08,-1.53,0.06,1.18,311.0,1.0,1.0,0.0,50.0
4740,1,walk,walk,7024,,7024.0,20.0,0.0,0.0,1.0,-12.89,-0.368,0.034,0.0,28.0,26.49,0.0,0.0,9.0,0.0,0.0,-11.76,-0.2,-0.98,0.08,-1.52,0.05,1.17,311.0,1.0,1.0,0.0,50.0
4780,1,walk,walk,7025,,7025.0,20.0,0.0,0.0,1.0,-12.89,-0.368,0.017,0.0,28.0,26.49,0.0,0.0,9.0,0.0,0.0,-11.76,-0.2,-0.98,0.08,-1.52,0.04,1.16,311.0,1.0,1.0,0.0,50.0
4780,1,walk,walk,7026,,7026.0,20.0,0.0,0.0,1.0,-12.89,-0.368,-0.018,0.0,28.0,26.49,0.0,0.0,9.0,0.0,0.0,-11.76,-0.2,-0.98,0.08,-1.52,0.03,1.16,311.0,1.0,1.0,0.0,50.0
4780,1,walk,walk,7027,,7027.0,20.0,0.0,0.0,1.0,-12.89,-0.368,-0.019,0.0,28.0,26.49,0.0,0.0,9.0,0.0,0.0,-11.76,-0.2,-0.98,0.08,-1.52,0.02,1.15,311.0,1.0,1.0,0.0,50.0
4840,1,walk,walk,7028,,7028.0,20.0,0.0,0.0,1.0,-12.89,-0.368,-0.116,0.0,28.0,26.49,0.0,0.0,9.0,0.0,0.0,-11.75,-0.2,-0.98,0.08,-1.52,0.0,1.15,311.0,1.0,1.0,0.0,50.0
4840,1,walk,walk,7029,,7029.0,20.0,0.0,0.0,1.0,-12.89,-0.368,-0.005,0.0,28.0,26.49,0.0,0.0,9.0,0.0,0.0,-11.75,-0.2,-0.98,0.08,-1.52,-0.01,1.15,311.0,1.0,1.0,0.0,50.0
4840,1,walk,walk,7030,,7030.0,20.0,0.0,0.0,1.0,-12.89,-0.368,0.038,0.0,28.0,26.49,0.0,0.0,9.0,0.0,0.0,-11.75,-0.2,-0.98,0.08,-1.52,-0.02,1.14,311.0,1.0,1.0,0.0,50.0
4900,1,walk,walk,7031,,7031.0,20.0,0.0,0.0,1.0,-12.89,-0.368,0.022,0.0,28.0,26.49,0.0,0.0,9.0,0.0,0.0,-11.76,-0.2,-0.98,0.08,-1.52,-0.03,1.14,311.0,1.0,1.0,0.0,50.0
4900,1,walk,walk,7032,,7032.0,20.0,0.0,0.0,1.0,-12.89,-0.368,0.069,0.0,28.0,26.49,0.0,0.0,9.0,0.0,0.0,-11.76,-0.2,-0.98,0.08,-1.53,-0.04,1.14,311.0,1.0,1.0,0.0,50.0
4900,1,walk,walk,7033,,7033.0,20.0,0.0,0.0,1.0,-12.89,-0.368,-0.014,0.0,28.0,26.49,0.0,0.0,9.0,0.0,0.0,-11.77,-0.2,-0.98,0.08,-1.53,-0.05,1.14,311.0,1.0,1.0,0.0,50.0
4960,1,walk,walk,7034,,7034.0,20.0,0.0,0.0,1.0,-12.89,-0.368,0.06,0.0,28.0,26.49,0.0,0.0,9.0,0.0,0.0,-11.77,-0.2,-0.98,0.08,-1.54,-0.06,1.15,311.0,1.0,1.0,0.0,50.0
4960,1,walk,walk,7035,,7035.0,20.0,0.0,0.0,1.0,-12.89,-0.368,0.037,0.0,28.0,26.49,0.0,0.0,9.0,0.0,0.0,-11.78,-0.2,-0.98,0.08,-1.54,-0.07,1.15,311.0,1.0,1.0,0.0,50.0
5020,1,walk,walk,7036,,7036.0,20.0,0.0,0.0,1.0,-12.89,-0.368,-0.009,0.0,28.0,26.49,0.0,0.0,9.0,0.0,0.0,-11.78,-0.2,-0.98,0.08,-1.55,-0.08,1.15,311.0,1.0,1.0,0.0,50.0
5020,1,walk,walk,7037,,7037.0,20.0,0.0,0.0,1.0,-12.89,-0.368,-0.022,0.0,28.0,26.49,0.0,0.0,9.0,0.0,0.0,-11.79,-0.2,-0.98,0.08,-1.56,-0.09,1.15,311.0,1.0,1.0,0.0,50.0
5020,1,walk,walk,7038,,7038.0,20.0,0.0,0.0,1.0,-12.89,-0.368,0.033,0.0,28.0,26.49,0.0,0.0,9.0,0.0,0.0,-11.79,-0.2,-0.98,0.08,-1.56,-0.09,1.14,311.0,1.0,1.0,0.0,50.0
5060,1,walk,walk,7039,,7039.0,20.0,0.0,0.0,1.0,-12.89,-0.368,0.081,0.0,28.0,26.49,0.0,0.0,9.0,0.0,0.0,-11.79,-0.2,-0.98,0.08,-1.56,-0.09,1.13,311.0,1.0,1.0,0.0,50.0
5060,1,walk,walk,7040,,7040.0,20.0,0.0,0.0,1.0,-12.89,-0.368,0.048,0.0,28.0,26.46,0.0,0.0,9.0,0.0,0.0,-11.79,-0.2,-0.98,0.08,-1.56,-0.09,1.12,311.0,1.0,1.0,0.0,50.0
5060,1,walk,walk,7041,,7041.0,20.0,0.0,0.0,1.0,-12.89,-0.368,-0.029,0.0,28.0,26.49,0.0,0.0,9.0,0.0,0.0,-11.79,-0.2,-0.98,0.08,-1.55,-0.09,1.12,311.0,1.0,1.0,0.0,50.0
5120,1,walk,walk,7042,,7042.0,20.0,0.0,0.0,1.0,-12.89,-0.368,0.088,0.0,28.0,26.49,0.0,0.0,9.0,0.0,0.0,-11.8,-0.2,-0.98,0.08,-1.55,-0.09,1.11,311.0,1.0,1.0,0.0,50.0
5120,1,walk,walk,7043,,7043.0,20.0,0.0,0.0,1.0,-12.89,-0.368,0.028,0.0,28.0,26.49,0.0,0.0,9.0,0.0,0.0,-11.8,-0.2,-0.98,0.08,-1.54,-0.09,1.11,311.0,1.0,1.0,0.0,50.0
5120,1,walk,walk,7044,,7044.0,20.0,0.0,0.0,1.0,-12.89,-0.368,0.007,0.0,28.0,26.49,0.0,0.0,9.0,0.0,0.0,-11.8,-0.2,-0.98,0.08,-1.54,-0.08,1.1,311.0,1.0,1.0,0.0,50.0
5160,1,walk,walk,7045,,7045.0,20.0,0.0,0.0,1.0,-12.89,-0.368,0.037,0.0,28.0,26.49,0.0,0.0,9.0,0.0,0.0,-11.8,-0.2,-0.98,0.08,-1.54,-0.08,1.1,311.0,1.0,1.0,0.0,50.0
5160,1,walk,walk,7046,,7046.0,20.0,0.0,0.0,1.0,-12.89,-0.368,-0.066,0.0,28.0,26.49,0.0,0.0,9.0,0.0,0.0,-11.8,-0.2,-0.98,0.08,-1.54,-0.07,1.09,311.0,1.0,1.0,0.0,50.0
5220,1,walk,walk,7047,,7047.0,20.0,0.0,0.0,1.0,-12.89,-0.368,-0.07,0.0,28.0,26.49,0.0,0.0,9.0,0.0,0.0,-11.8,-0.2,-0.98,0.08,-1.54,-0.07,1.08,311.0,1.0,1.0,0.0,50.0
5220,1,walk,walk,7048,,7048.0,20.0,0.0,0.0,1.0,-12.89,-0.368,0.037,0.0,28.0,26.49,0.0,0.0,9.0,0.0,0.0,-11.8,-0.2,-0.98,0.08,-1.54,-0.06,1.08,311.0,1.0,1.0,0.0,50.0
5220,1,walk,walk,7049,,7049.0,20.0,0.0,0.0,1.0,-12.89,-0.368,-0.013,0.0,28.0,26.49,0.0,0.0,9.0,0.0,0.0,-11.8,-0.2,-0.98,0.08,-1.54,-0.06,1.07,311.0,1.0,1.0,0.0,50.0
5260,1,walk,walk,7050,,7050.0,20.0,0.0,0.0,1.0,-12.89,-0.368,0.076,0.0,28.0,26.49,0.0,0.0,9.0,0.0,0.0,-11.8,-0.2,-0.98,0.08,-1.54,-0.07,1.07,311.0,1.0,1.0,0.0,50.0
5260,1,walk,walk,7051,,7051.0,20.0,0.0,0.0,1.0,-12.89,-0.368,0.021,0.0,28.0,26.49,0.0,0.0,9.0,0.0,0.0,-11.8,-0.2,-0.98,0.08,-1.53,-0.08,1.07,311.0,1.0,1.0,0.0,50.0
5320,1,walk,walk,7052,,7052.0,20.0,0.0,0.0,1.0,-12.89,-0.368,0.025,0.0,28.0,26.49,0.0,0.0,9.0,0.0,0.0,-11.79,-0.2,-0.98,0.08,-1.53,-0.09,1.08,311.0,1.0,1.0,0.0,50.0
5320,1,walk,walk,7053,,7053.0,20.0,0.0,0.0,1.0,-12.89,-0.368,-0.006,0.0,28.0,26.49,0.0,0.0,9.0,0.0,0.0,-11.79,-0.2,-0.98,0.08,-1.52,-0.1,1.08,311.0,1.0,1.0,0.0,50.0
5360,1,walk,walk,7054,,7054.0,20.0,0.0,0.0,1.0,-12.89,-0.368,-0.009,0.0,28.0,26.49,0.0,0.0,9.0,0.0,0.0,-11.79,-0.2,-0.98,0.08,-1.51,-0.1,1.08,311.0,1.0,1.0,0.0,50.0
5360,1,walk,walk,7055,,7055.0,20.0,0.0,0.0,1.0,-12.89,-0.368,-0.03,0.0,28.0,26.49,0.0,0.0,9.0,0.0,0.0,-11.78,-0.2,-0.98,0.08,-1.51,-0.12,1.07,311.0,1.0,1.0,0.0,50.0
5360,1,walk,walk,7056,,7056.0,20.0,0.0,0.0,1.0,-12.89,-0.368,0.036,0.0,28.0,26.49,0.0,0.0,9.0,0.0,0.0,-11.78,-0.2,-0.98,0.08,-1.51,-0.14,1.06,311.0,1.0,1.0,0.0,50.0
5420,1,walk,walk,7057,,7057.0,20.0,0.0,0.0,1.0,-12.89,-0.368,-0.017,0.0,28.0,26.49,0.0,0.0,9.0,0.0,0.0,-11.76,-0.2,-0.98,0.08,-1.51,-0.16,1.06,311.0,1.0,1.0,0.0,50.0
5420,1,walk,walk,7058,,7058.0,20.0,0.0,0.0,1.0,-12.89,-0.368,0.046,0.0,28.0,26.49,0.0,0.0,9.0,0.0,0.0,-11.75,-0.2,-0.98,0.08,-1.5,-0.17,1.05,311.0,1.0,1.0,0.0,50.0
5420,1,walk,walk,7059,,7059.0,20.0,0.0,0.0,1.0,-12.89,-0.367,0.006,0.0,28.0,26.49,0.0,0.0,9.0,0.0,0.0,-11.73,-0.2,-0.98,0.08,-1.5,-0.17,1.04,311.0,1.0,1.0,0.0,50.0
5480,1,walk,walk,7060,,7060.0,20.0,0.0,0.0,1.0,-12.89,-0.367,-0.083,0.0,28.0,26.49,0.0,0.0,9.0,0.0,0.0,-11.72,-0.2,-0.98,0.08,-1.49,-0.17,1.03,311.0,1.0,1.0,0.0,50.0
5480,1,walk,walk,7061,,7061.0,20.0,0.0,0.0,1.0,-12.89,-0.367,-0.03,0.0,28.0,26.49,0.0,0.0,9.0,0.0,0.0,-11.71,-0.2,-0.98,0.08,-1.48,-0.16,1.01,311.0,1.0,1.0,0.0,50.0
5480,1,walk,walk,7062,,7062.0,20.0,0.0,0.0,1.0,-12.88,-0.366,-0.032,0.0,28.0,26.49,0.0,0.0,9.0,0.0,0.0,-11.7,-0.2,-0.98,0.08,-1.46,-0.14,0.99,311.0,1.0,1.0,0.0,50.0
5520,1,walk,walk,7063,,7063.0,20.0,0.0,0.0,1.0,-12.88,-0.366,-0.042,0.0,28.0,26.49,0.0,0.0,9.0,0.0,0.0,-11.7,-0.2,-0.98,0.08,-1.45,-0.14,0.96,311.0,1.0,1.0,0.0,50.0
5520,1,walk,walk,7064,,7064.0,20.0,0.0,0.0,1.0,-12.88,-0.366,-0.003,0.0,28.0,26.49,0.0,0.0,9.0,0.0,0.0,-11.69,-0.2,-0.98,0.08,-1.44,-0.13,0.92,311.0,1.0,1.0,0.0,50.0
5580,1,walk,walk,7065,,7065.0,20.0,0.0,0.0,1.0,-12.88,-0.366,0.073,0.0,28.0,26.49,0.0,0.0,9.0,0.0,0.0,-11.69,-0.2,-0.98,0.08,-1.43,-0.12,0.89,311.0,1.0,1.0,0.0,50.0
5580,1,walk,walk,7066,,7066.0,20.0,0.0,0.0,1.0,-12.88,-0.366,0.034,0.0,28.0,26.49,0.0,0.0,9.0,0.0,0.0,-11.69,-0.2,-0.98,0.08,-1.42,-0.1,0.86,311.0,1.0,1.0,0.0,50.0
5580,1,walk,walk,7067,,7067.0,20.0,0.0,0.0,1.0,-12.88,-0.366,0.014,0.0,28.0,26.49,0.0,0.0,9.0,0.0,0.0,-11.68,-0.2,-0.98,0.08,-1.41,-0.09,0.83,311.0,1.0,1.0,0.0,50.0
5620,1,walk,walk,7068,,7068.0,20.0,0.0,0.0,1.0,-12.87,-0.366,-0.014,0.0,28.0,26.49,0.0,0.0,9.0,0.0,0.0,-11.68,-0.2,-0.98,0.08,-1.4,-0.07,0.82,311.0,1.0,1.0,0.0,50.0
5620,1,walk,walk,7069,,7069.0,20.0,0.0,0.0,1.0,-12.87,-0.366,0.029,0.0,28.0,26.49,0.0,0.0,9.0,0.0,0.0,-11.68,-0.2,-0.98,0.08,-1.4,-0.05,0.81,311.0,1.0,1.0,0.0,50.0
5680,1,walk,walk,7070,,7070.0,20.0,0.0,0.0,1.0,-12.87,-0.366,-0.025,0.0,28.0,26.49,0.0,0.0,9.0,0.0,0.0,-11.68,-0.2,-0.98,0.08,-1.4,-0.03,0.8,311.0,1.0,1.0,0.0,50.0
5720,1,walk,walk,7071,,7071.0,20.0,0.0,0.0,1.0,-12.86,-0.366,-0.034,0.0,28.0,26.49,0.0,0.0,9.0,0.0,0.0,-11.68,-0.2,-0.98,0.08,-1.39,-0.01,0.8,311.0,1.0,1.0,0.0,50.0
5720,1,walk,walk,7072,,7072.0,20.0,0.0,0.0,1.0,-12.86,-0.366,0.04,0.0,28.0,26.49,0.0,0.0,9.0,0.0,0.0,-11.68,-0.2,-0.98,0.08,-1.39,0.01,0.8,311.0,1.0,1.0,0.0,50.0
5720,1,walk,walk,7073,,7073.0,20.0,0.0,0.0,1.0,-12.86,-0.366,-0.023,0.0,28.0,26.49,0.0,0.0,9.0,0.0,0.0,-11.68,-0.2,-0.98,0.08,-1.39,0.03,0.81,311.0,1.0,1.0,0.0,50.0
5720,1,walk,walk,7074,,7074.0,20.0,0.0,0.0,1.0,-12.85,-0.366,0.022,0.0,28.0,26.49,0.0,0.0,9.0,0.0,0.0,-11.68,-0.2,-0.98,0.08,-1.39,0.05,0.82,311.0,1.0,1.0,0.0,50.0
5780,1,walk,walk,7075,,7075.0,20.0,0.0,0.0,1.0,-12.85,-0.366,0.036,0.0,28.0,26.49,0.0,0.0,9.0,0.0,0.0,-11.68,-0.2,-0.98,0.08,-1.38,0.06,0.83,311.0,1.0,1.0,0.0,50.0
5780,1,walk,walk,7076,,7076.0,20.0,0.0,0.0,1.0,-12.84,-0.366,-0.028,0.0,28.0,26.49,0.0,0.0,9.0,0.0,0.0,-11.68,-0.2,-0.98,0.08,-1.38,0.07,0.84,311.0,1.0,1.0,0.0,50.0
5780,1,walk,walk,7077,,7077.0,20.0,0.0,0.0,1.0,-12.83,-0.366,0.042,0.0,28.0,26.49,0.0,0.0,9.0,0.0,0.0,-11.67,-0.2,-0.98,0.08,-1.38,0.06,0.85,311.0,1.0,1.0,0.0,50.0
5840,1,walk,walk,7078,,7078.0,20.0,0.0,0.0,1.0,-12.83,-0.366,0.05,0.0,28.0,26.49,0.0,0.0,9.0,0.0,0.0,-11.67,-0.2,-0.98,0.08,-1.39,0.06,0.87,311.0,1.0,1.0,0.0,50.0
5840,1,walk,walk,7079,,7079.0,20.0,0.0,0.0,1.0,-12.82,-0.366,0.002,0.0,28.0,26.49,0.0,0.0,9.0,0.0,0.0,-11.66,-0.2,-0.98,0.08,-1.4,0.05,0.88,311.0,1.0,1.0,0.0,50.0
5840,1,walk,walk,7080,,7080.0,20.0,0.0,0.0,1.0,-12.82,-0.366,-0.03,0.0,28.0,26.49,0.0,0.0,9.0,0.0,0.0,-11.65,-0.2,-0.98,0.08,-1.4,0.04,0.89,311.0,1.0,1.0,0.0,50.0
5880,1,walk,walk,7081,,7081.0,20.0,0.0,0.0,1.0,-12.81,-0.366,0.075,0.0,28.0,26.49,0.0,0.0,9.0,0.0,0.0,-11.64,-0.2,-0.98,0.08,-1.41,0.03,0.89,311.0,1.0,1.0,0.0,50.0
5880,1,walk,walk,7082,,7082.0,20.0,0.0,0.0,1.0,-12.81,-0.366,0.034,0.0,28.0,26.49,0.0,0.0,9.0,0.0,0.0,-11.63,-0.2,-0.98,0.08,-1.42,0.01,0.9,311.0,1.0,1.0,0.0,50.0
5940,1,walk,walk,7083,,7083.0,20.0,0.0,0.0,1.0,-12.8,-0.366,0.093,0.0,28.0,26.49,0.0,0.0,9.0,0.0,0.0,-11.62,-0.2,-0.98,0.08,-1.43,0.0,0.91,311.0,1.0,1.0,0.0,50.0
5940,1,walk,walk,7084,,7084.0,20.0,0.0,0.0,1.0,-12.79,-0.366,0.005,0.0,28.0,26.49,0.0,0.0,9.0,0.0,0.0,-11.6,-0.2,-0.98,0.08,-1.43,-0.02,0.91,311.0,1.0,1.0,0.0,50.0
5940,1,walk,walk,7085,,7085.0,20.0,0.0,0.0,1.0,-12.79,-0.366,0.049,0.0,28.0,26.49,0.0,0.0,9.0,0.0,0.0,-11.6,-0.2,-0.98,0.08,-1.44,-0.03,0.92,311.0,1.0,1.0,0.0,50.0
5980,1,walk,walk,7086,,7086.0,20.0,0.0,0.0,1.0,-12.78,-0.366,0.033,0.0,28.0,26.49,0.0,0.0,9.0,0.0,0.0,-11.59,-0.2,-0.98,0.08,-1.44,-0.05,0.92,311.0,1.0,1.0,0.0,50.0
5980,1,walk,walk,7087,,7087.0,20.0,0.0,0.0,1.0,-12.78,-0.366,-0.038,0.0,28.0,26.49,0.0,0.0,9.0,0.0,0.0,-11.59,-0.2,-0.98,0.08,-1.45,-0.06,0.94,311.0,1.0,1.0,0.0,50.0
6040,1,walk,walk,7088,,7088.0,20.0,0.0,0.0,1.0,-12.77,-0.366,-0.037,0.0,28.0,26.49,0.0,0.0,9.0,0.0,0.0,-11.59,-0.2,-0.98,0.08,-1.45,-0.08,0.95,311.0,1.0,1.0,0.0,50.0
6040,1,walk,walk,7089,,7089.0,20.0,0.0,0.0,1.0,-12.77,-0.366,0.096,0.0,28.0,26.49,0.0,0.0,9.0,0.0,0.0,-11.59,-0.2,-0.98,0.08,-1.44,-0.09,0.96,311.0,1.0,1.0,0.0,50.0
6040,1,walk,walk,7090,,7090.0,20.0,0.0,0.0,1.0,-12.76,-0.366,-0.065,0.0,28.0,26.49,0.0,0.0,9.0,0.0,0.0,-11.59,-0.2,-0.98,0.08,-1.44,-0.1,0.97,311.0,1.0,1.0,0.0,50.0
6100,1,walk,walk,7091,,7091.0,20.0,0.0,0.0,1.0,-12.76,-0.366,-0.042,0.0,28.0,26.49,0.0,0.0,9.0,0.0,0.0,-11.59,-0.2,-0.98,0.08,-1.44,-0.12,0.97,311.0,1.0,1.0,0.0,50.0
6100,1,walk,walk,7092,,7092.0,20.0,0.0,0.0,1.0,-12.75,-0.366,-0.021,0.0,28.0,26.49,0.0,0.0,9.0,0.0,0.0,-11.6,-0.2,-0.98,0.08,-1.45,-0.13,0.98,311.0,1.0,1.0,0.0,50.0
6140,1,walk,walk,7093,,7093.0,20.0,0.0,0.0,1.0,-12.75,-0.366,0.111,0.0,28.0,26.49,0.0,0.0,9.0,0.0,0.0,-11.61,-0.2,-0.98,0.08,-1.46,-0.14,0.97,311.0,1.0,1.0,0.0,50.0
6140,1,walk,walk,7094,,7094.0,20.0,0.0,0.0,1.0,-12.74,-0.366,0.003,0.0,28.0,26.49,0.0,0.0,9.0,0.0,0.0,-11.61,-0.2,-0.98,0.08,-1.47,-0.15,0.97,311.0,1.0,1.0,0.0,50.0
6140,1,walk,walk,7095,,7095.0,20.0,0.0,0.0,1.0,-12.74,-0.366,0.049,0.0,28.0,26.49,0.0,0.0,9.0,0.0,0.0,-11.62,-0.2,-0.98,0.08,-1.48,-0.17,0.96,311.0,1.0,1.0,0.0,50.0
6200,1,walk,walk,7096,,7096.0,20.0,0.0,0.0,1.0,-12.73,-0.366,0.029,0.0,28.0,26.49,0.0,0.0,9.0,0.0,0.0,-11.62,-0.2,-0.98,0.08,-1.5,-0.19,0.95,311.0,1.0,1.0,0.0,50.0
6200,1,walk,walk,7097,,7097.0,20.0,0.0,0.0,1.0,-12.73,-0.366,-0.08,0.0,28.0,26.49,0.0,0.0,9.0,0.0,0.0,-11.62,-0.2,-0.98,0.08,-1.51,-0.2,0.94,311.0,1.0,1.0,0.0,50.0
6200,1,walk,walk,7098,,7098.0,20.0,0.0,0.0,1.0,-12.73,-0.366,0.01,0.0,28.0,26.49,0.0,0.0,9.0,0.0,0.0,-11.62,-0.2,-0.98,0.08,-1.53,-0.21,0.93,311.0,1.0,1.0,0.0,50.0
6240,1,walk,walk,7099,,7099.0,20.0,0.0,0.0,1.0,-12.72,-0.366,-0.038,0.0,28.0,26.46,0.0,0.0,9.0,0.0,0.0,-11.62,-0.2,-0.98,0.08,-1.54,-0.21,0.92,311.0,1.0,1.0,0.0,50.0
6240,1,walk,walk,7100,,7100.0,20.0,0.0,0.0,1.0,-12.72,-0.366,-0.04,0.0,28.0,26.49,0.0,0.0,9.0,0.0,0.0,-11.61,-0.2,-0.98,0.08,-1.55,-0.21,0.91,311.0,1.0,1.0,0.0,50.0
6300,1,walk,walk,7101,,7101.0,20.0,0.0,0.0,1.0,-12.71,-0.365,0.042,0.0,28.0,26.49,0.0,0.0,9.0,0.0,0.0,-11.61,-0.2,-0.98,0.08,-1.56,-0.2,0.9,311.0,1.0,1.0,0.0,50.0
6300,1,walk,walk,7102,,7102.0,20.0,0.0,0.0,1.0,-12.71,-0.366,0.103,0.0,28.0,26.49,0.0,0.0,9.0,0.0,0.0,-11.61,-0.2,-0.98,0.08,-1.56,-0.19,0.9,311.0,1.0,1.0,0.0,50.0
6340,1,walk,walk,7103,,7103.0,20.0,0.0,0.0,1.0,-12.71,-0.366,0.032,0.0,28.0,26.49,0.0,0.0,9.0,0.0,0.0,-11.61,-0.2,-0.98,0.08,-1.57,-0.18,0.89,311.0,1.0,1.0,0.0,50.0
6340,1,walk,walk,7104,,7104.0,20.0,0.0,0.0,1.0,-12.7,-0.366,-0.013,0.0,28.0,26.49,0.0,0.0,9.0,0.0,0.0,-11.6,-0.2,-0.98,0.08,-1.57,-0.16,0.88,311.0,1.0,1.0,0.0,50.0
6340,1,walk,walk,7105,,7105.0,20.0,0.0,0.0,1.0,-12.7,-0.366,-0.087,0.0,28.0,26.49,0.0,0.0,9.0,0.0,0.0,-11.6,-0.2,-0.98,0.08,-1.57,-0.13,0.87,311.0,1.0,1.0,0.0,50.0
6400,1,walk,walk,7106,,7106.0,20.0,0.0,0.0,1.0,-12.7,-0.366,-0.037,0.0,28.0,26.49,0.0,0.0,9.0,0.0,0.0,-11.6,-0.2,-0.98,0.08,-1.57,-0.1,0.86,311.0,1.0,1.0,0.0,50.0
6400,1,walk,walk,7107,,7107.0,20.0,0.0,0.0,1.0,-12.69,-0.366,0.007,0.0,28.0,26.49,0.0,0.0,9.0,0.0,0.0,-11.59,-0.2,-0.98,0.08,-1.57,-0.07,0.85,311.0,1.0,1.0,0.0,50.0
6400,1,walk,walk,7108,,7108.0,20.0,0.0,0.0,1.0,-12.69,-0.366,-0.077,0.0,28.0,26.49,0.0,0.0,9.0,0.0,0.0,-11.59,-0.2,-0.98,0.08,-1.56,-0.05,0.84,311.0,1.0,1.0,0.0,50.0
6460,1,walk,walk,7109,,7109.0,20.0,0.0,0.0,1.0,-12.69,-0.366,-0.006,0.0,28.0,26.49,0.0,0.0,9.0,0.0,0.0,-11.59,-0.2,-0.98,0.08,-1.56,-0.04,0.84,311.0,1.0,1.0,0.0,50.0
6460,1,walk,walk,7110,,7110.0,20.0,0.0,0.0,1.0,-12.68,-0.366,0.013,0.0,28.0,26.49,0.0,0.0,9.0,0.0,0.0,-11.58,-0.2,-0.98,0.08,-1.55,-0.02,0.85,311.0,1.0,1.0,0.0,50.0
6500,1,walk,walk,7111,,7111.0,20.0,0.0,0.0,1.0,-12.68,-0.366,0.062,0.0,28.0,26.49,0.0,0.0,9.0,0.0,0.0,-11.57,-0.2,-0.98,0.08,-1.54,-0.01,0.85,311.0,1.0,1.0,0.0,50.0
6500,1,walk,walk,7112,,7112.0,20.0,0.0,0.0,1.0,-12.67,-0.366,-0.037,0.0,28.0,26.49,0.0,0.0,9.0,0.0,0.0,-11.57,-0.2,-0.98,0.08,-1.52,0.01,0.86,311.0,1.0,1.0,0.0,50.0
6500,1,walk,walk,7113,,7113.0,20.0,0.0,0.0,1.0,-12.67,-0.366,0.014,0.0,28.0,26.49,0.0,0.0,9.0,0.0,0.0,-11.56,-0.2,-0.98,0.08,-1.51,0.02,0.87,311.0,1.0,1.0,0.0,50.0
6560,1,walk,walk,7114,,7114.0,20.0,0.0,0.0,1.0,-12.67,-0.366,0.049,0.0,28.0,26.49,0.0,0.0,9.0,0.0,0.0,-11.56,-0.2,-0.98,0.08,-1.5,0.03,0.88,311.0,1.0,1.0,0.0,50.0
6560,1,walk,walk,7115,,7115.0,20.0,0.0,0.0,1.0,-12.66,-0.366,0.017,0.0,28.0,26.49,0.0,0.0,9.0,0.0,0.0,-11.56,-0.2,-0.98,0.08,-1.49,0.03,0.9,311.0,1.0,1.0,0.0,50.0
6560,1,walk,walk,7116,,7116.0,20.0,0.0,0.0,1.0,-12.66,-0.366,0.025,0.0,28.0,26.49,0.0,0.0,9.0,0.0,0.0,-11.57,-0.2,-0.98,0.08,-1.49,0.02,0.91,311.0,1.0,1.0,0.0,50.0
6600,1,walk,walk,7117,,7117.0,20.0,0.0,0.0,1.0,-12.65,-0.366,0.002,0.0,28.0,26.49,0.0,0.0,9.0,0.0,0.0,-11.57,-0.2,-0.98,0.08,-1.49,0.02,0.92,311.0,1.0,1.0,0.0,50.0
6600,1,walk,walk,7118,,7118.0,20.0,0.0,0.0,1.0,-12.65,-0.366,-0.018,0.0,28.0,26.49,0.0,0.0,9.0,0.0,0.0,-11.57,-0.2,-0.98,0.08,-1.5,0.01,0.93,311.0,1.0,1.0,0.0,50.0
6660,1,walk,walk,7119,,7119.0,20.0,0.0,0.0,1.0,-12.65,-0.366,-0.062,0.0,28.0,26.49,0.0,0.0,9.0,0.0,0.0,-11.57,-0.2,-0.98,0.08,-1.5,0.01,0.94,311.0,1.0,1.0,0.0,50.0
6660,1,walk,walk,7120,,7120.0,20.0,0.0,0.0,1.0,-12.64,-0.366,-0.005,0.0,28.0,26.49,0.0,0.0,9.0,0.0,0.0,-11.57,-0.2,-0.98,0.08,-1.51,0.02,0.94,311.0,1.0,1.0,0.0,50.0
6660,1,walk,walk,7121,,7121.0,20.0,0.0,0.0,1.0,-12.64,-0.366,0.041,0.0,28.0,26.49,0.0,0.0,9.0,0.0,0.0,-11.56,-0.2,-0.98,0.08,-1.52,0.02,0.94,311.0,1.0,1.0,0.0,50.0
6720,1,walk,walk,7122,,7122.0,20.0,0.0,0.0,1.0,-12.63,-0.365,-0.04,0.0,28.0,26.49,0.0,0.0,9.0,0.0,0.0,-11.55,-0.2,-0.98,0.08,-1.53,0.02,0.93,311.0,1.0,1.0,0.0,50.0
6720,1,walk,walk,7123,,7123.0,20.0,0.0,0.0,1.0,-12.63,-0.365,-0.002,0.0,28.0,26.46,0.0,0.0,9.0,0.0,0.0,-11.54,-0.2,-0.98,0.08,-1.54,0.03,0.93,311.0,1.0,1.0,0.0,50.0
6760,1,walk,walk,7124,,7124.0,20.0,0.0,0.0,1.0,-12.63,-0.365,0.046,0.0,28.0,26.49,0.0,0.0,9.0,0.0,0.0,-11.53,-0.2,-0.98,0.08,-1.55,0.05,0.93,311.0,1.0,1.0,0.0,50.0
6760,1,walk,walk,7125,,7125.0,20.0,0.0,0.0,1.0,-12.62,-0.365,0.054,0.0,28.0,26.49,0.0,0.0,9.0,0.0,0.0,-11.52,-0.2,-0.98,0.08,-1.55,0.06,0.94,311.0,1.0,1.0,0.0,50.0
6760,1,walk,walk,7126,,7126.0,20.0,0.0,0.0,1.0,-12.62,-0.365,-0.023,0.0,28.0,26.49,0.0,0.0,9.0,0.0,0.0,-11.51,-0.2,-0.98,0.08,-1.55,0.08,0.95,311.0,1.0,1.0,0.0,50.0
6800,1,walk,walk,7127,,7127.0,20.0,0.0,0.0,1.0,-12.62,-0.366,-0.092,0.0,28.0,26.46,0.0,0.0,9.0,0.0,0.0,-11.5,-0.2,-0.98,0.08,-1.55,0.09,0.96,311.0,1.0,1.0,0.0,50.0
6800,1,walk,walk,7128,,7128.0,20.0,0.0,0.0,1.0,-12.61,-0.365,-0.046,0.0,28.0,26.49,0.0,0.0,9.0,0.0,0.0,-11.5,-0.2,-0.98,0.08,-1.54,0.1,0.96,311.0,1.0,1.0,0.0,50.0
6840,1,walk,walk,7129,,7129.0,20.0,0.0,0.0,1.0,-12.61,-0.365,0.002,0.0,28.0,26.49,0.0,0.0,9.0,0.0,0.0,-11.5,-0.2,-0.98,0.08,-1.54,0.11,0.97,311.0,1.0,1.0,0.0,50.0
6840,1,walk,walk,7130,,7130.0,20.0,0.0,0.0,1.0,-12.61,-0.365,-0.025,0.0,28.0,26.49,0.0,0.0,9.0,0.0,0.0,-11.49,-0.2,-0.98,0.08,-1.54,0.11,0.98,311.0,1.0,1.0,0.0,50.0
6840,1,walk,walk,7131,,7131.0,20.0,0.0,0.0,1.0,-12.6,-0.365,-0.005,0.0,28.0,26.49,0.0,0.0,9.0,0.0,0.0,-11.49,-0.2,-0.98,0.08,-1.54,0.11,0.99,311.0,1.0,1.0,0.0,50.0
6900,1,walk,walk,7132,,7132.0,20.0,0.0,0.0,1.0,-12.6,-0.365,0.001,0.0,28.0,26.49,0.0,0.0,9.0,0.0,0.0,-11.49,-0.2,-0.98,0.08,-1.53,0.1,1.0,311.0,1.0,1.0,0.0,50.0
6900,1,walk,walk,7133,,7133.0,20.0,0.0,0.0,1.0,-12.6,-0.366,0.037,0.0,28.0,26.49,0.0,0.0,9.0,0.0,0.0,-11.49,-0.2,-0.98,0.08,-1.53,0.09,1.02,311.0,1.0,1.0,0.0,50.0
6940,1,walk,walk,7134,,7134.0,20.0,0.0,0.0,1.0,-12.59,-0.366,0.053,0.0,28.0,26.49,0.0,0.0,9.0,0.0,0.0,-11.48,-0.2,-0.98,0.08,-1.52,0.08,1.03,311.0,1.0,1.0,0.0,50.0
6940,1,walk,walk,7135,,7135.0,20.0,0.0,0.0,1.0,-12.59,-0.365,0.022,0.0,28.0,26.49,0.0,0.0,9.0,0.0,0.0,-11.47,-0.2,-0.98,0.08,-1.52,0.07,1.05,311.0,1.0,1.0,0.0,50.0
6940,1,walk,walk,7136,,7136.0,20.0,0.0,0.0,1.0,-12.59,-0.366,-0.052,0.0,28.0,26.49,0.0,0.0,9.0,0.0,0.0,-11.47,-0.2,-0.98,0.08,-1.51,0.06,1.06,311.0,1.0,1.0,0.0,50.0
7000,1,walk,walk,7137,,7137.0,20.0,0.0,0.0,1.0,-12.59,-0.365,-0.052,0.0,28.0,26.49,0.0,0.0,9.0,0.0,0.0,-11.46,-0.2,-0.98,0.08,-1.49,0.06,1.07,311.0,1.0,1.0,0.0,50.0
7000,1,walk,walk,7138,,7138.0,20.0,0.0,0.0,1.0,-12.58,-0.365,-0.111,0.0,28.0,26.49,0.0,0.0,9.0,0.0,0.0,-11.45,-0.2,-0.98,0.08,-1.48,0.06,1.08,311.0,1.0,1.0,0.0,50.0
7040,1,walk,walk,7139,,7139.0,20.0,0.0,0.0,1.0,-12.58,-0.365,-0.061,0.0,28.0,26.49,0.0,0.0,9.0,0.0,0.0,-11.45,-0.2,-0.98,0.08,-1.46,0.06,1.1,311.0,1.0,1.0,0.0,50.0
7040,1,walk,walk,7140,,7140.0,20.0,0.0,0.0,1.0,-12.58,-0.366,-0.019,0.0,28.0,26.49,0.0,0.0,9.0,0.0,0.0,-11.44,-0.2,-0.98,0.08,-1.45,0.06,1.12,311.0,1.0,1.0,0.0,50.0
7100,1,walk,walk,7141,,7141.0,20.0,0.0,0.0,1.0,-12.58,-0.365,-0.005,0.0,28.0,26.49,0.0,0.0,9.0,0.0,0.0,-11.44,-0.2,-0.98,0.08,-1.43,0.06,1.14,311.0,1.0,1.0,0.0,50.0
7100,1,walk,walk,7142,,7142.0,20.0,0.0,0.0,1.0,-12.58,-0.365,0.011,0.0,28.0,26.49,0.0,0.0,9.0,0.0,0.0,-11.44,-0.2,-0.98,0.08,-1.42,0.07,1.16,311.0,1.0,1.0,0.0,50.0
7100,1,walk,walk,7143,,7143.0,20.0,0.0,0.0,1.0,-12.57,-0.366,0.028,0.0,28.0,26.49,0.0,0.0,9.0,0.0,0.0,-11.44,-0.2,-0.98,0.08,-1.41,0.07,1.19,311.0,1.0,1.0,0.0,50.0
7140,1,walk,walk,7144,,7144.0,20.0,0.0,0.0,1.0,-12.57,-0.366,0.013,0.0,28.0,26.49,0.0,0.0,9.0,0.0,0.0,-11.45,-0.2,-0.98,0.08,-1.41,0.07,1.22,311.0,1.0,1.0,0.0,50.0
7140,1,walk,walk,7145,,7145.0,20.0,0.0,0.0,1.0,-12.57,-0.365,0.103,0.0,28.0,26.49,0.0,0.0,9.0,0.0,0.0,-11.45,-0.2,-0.98,0.08,-1.41,0.07,1.24,311.0,1.0,1.0,0.0,50.0
7200,1,walk,walk,7146,,7146.0,20.0,0.0,0.0,1.0,-12.57,-0.366,0.002,0.0,28.0,26.49,0.0,0.0,9.0,0.0,0.0,-11.46,-0.2,-0.98,0.08,-1.42,0.06,1.26,311.0,1.0,1.0,0.0,50.0
7200,1,walk,walk,7147,,7147.0,20.0,0.0,0.0,1.0,-12.57,-0.365,0.014,0.0,28.0,26.49,0.0,0.0,9.0,0.0,0.0,-11.47,-0.2,-0.98,0.08,-1.43,0.05,1.28,311.0,1.0,1.0,0.0,50.0
7200,1,walk,walk,7148,,7148.0,20.0,0.0,0.0,1.0,-12.57,-0.366,0.001,0.0,28.0,26.49,0.0,0.0,9.0,0.0,0.0,-11.47,-0.2,-0.98,0.08,-1.45,0.03,1.3,311.0,1.0,1.0,0.0,50.0
7200,1,walk,walk,7149,,7149.0,20.0,0.0,0.0,1.0,-12.57,-0.365,0.017,0.0,28.0,26.49,0.0,0.0,9.0,0.0,0.0,-11.48,-0.2,-0.98,0.08,-1.48,0.01,1.31,311.0,1.0,1.0,0.0,50.0
7240,1,walk,walk,7150,,7150.0,20.0,0.0,0.0,1.0,-12.57,-0.366,0.026,0.0,28.0,26.49,0.0,0.0,9.0,0.0,0.0,-11.49,-0.2,-0.98,0.08,-1.5,-0.01,1.32,311.0,1.0,1.0,0.0,50.0
7240,1,walk,walk,7151,,7151.0,20.0,0.0,0.0,1.0,-12.57,-0.365,0.058,0.0,28.0,26.49,0.0,0.0,9.0,0.0,0.0,-11.5,-0.2,-0.98,0.08,-1.52,-0.03,1.33,311.0,1.0,1.0,0.0,50.0
7300,1,walk,walk,7152,,7152.0,20.0,0.0,0.0,1.0,-12.57,-0.366,-0.014,0.0,28.0,26.49,0.0,0.0,9.0,0.0,0.0,-11.51,-0.2,-0.98,0.08,-1.54,-0.05,1.33,311.0,1.0,1.0,0.0,50.0
7300,1,walk,walk,7153,,7153.0,20.0,0.0,0.0,1.0,-12.57,-0.366,-0.048,0.0,28.0,26.49,0.0,0.0,9.0,0.0,0.0,-11.52,-0.2,-0.98,0.08,-1.55,-0.07,1.34,311.0,1.0,1.0,0.0,50.0
7340,1,walk,walk,7154,,7154.0,20.0,0.0,0.0,1.0,-12.57,-0.366,0.01,0.0,28.0,26.49,0.0,0.0,9.0,0.0,0.0,-11.53,-0.2,-0.98,0.08,-1.56,-0.09,1.34,311.0,1.0,1.0,0.0,50.0
7340,1,walk,walk,7155,,7155.0,20.0,0.0,0.0,1.0,-12.57,-0.366,0.044,0.0,28.0,26.49,0.0,0.0,9.0,0.0,0.0,-11.53,-0.2,-0.98,0.08,-1.57,-0.1,1.35,311.0,1.0,1.0,0.0,50.0
7360,1,walk,walk,7156,,7156.0,20.0,0.0,0.0,1.0,-12.58,-0.366,-0.013,0.0,28.0,26.49,0.0,0.0,9.0,0.0,0.0,-11.54,-0.2,-0.98,0.08,-1.58,-0.1,1.36,311.0,1.0,1.0,0.0,50.0
7400,1,walk,walk,7157,,7157.0,20.0,0.0,0.0,1.0,-12.58,-0.365,-0.026,0.0,28.0,26.49,0.0,0.0,9.0,0.0,0.0,-11.55,-0.2,-0.98,0.08,-1.59,-0.09,1.37,311.0,1.0,1.0,0.0,50.0
7400,1,walk,walk,7158,,7158.0,20.0,0.0,0.0,1.0,-12.58,-0.365,-0.087,0.0,28.0,26.49,0.0,0.0,9.0,0.0,0.0,-11.55,-0.2,-0.98,0.08,-1.59,-0.08,1.37,311.0,1.0,1.0,0.0,50.0
7440,1,walk,walk,7159,,7159.0,20.0,0.0,0.0,1.0,-12.58,-0.366,-0.028,0.0,28.0,26.49,0.0,0.0,9.0,0.0,0.0,-11.56,-0.2,-0.98,0.08,-1.6,-0.07,1.37,311.0,1.0,1.0,0.0,50.0
7440,1,walk,walk,7160,,7160.0,20.0,0.0,0.0,1.0,-12.59,-0.366,-0.033,0.0,28.0,26.49,0.0,0.0,9.0,0.0,0.0,-11.57,-0.2,-0.98,0.08,-1.6,-0.07,1.36,311.0,1.0,1.0,0.0,50.0
7440,1,walk,walk,7161,,7161.0,20.0,0.0,0.0,1.0,-12.59,-0.366,0.005,0.0,28.0,26.46,0.0,0.0,9.0,0.0,0.0,-11.57,-0.2,-0.98,0.08,-1.61,-0.07,1.35,311.0,1.0,1.0,0.0,50.0
7500,1,walk,walk,7162,,7162.0,20.0,0.0,0.0,1.0,-12.6,-0.365,0.025,0.0,28.0,26.49,0.0,0.0,9.0,0.0,0.0,-11.58,-0.2,-0.98,0.08,-1.61,-0.07,1.33,311.0,1.0,1.0,0.0,50.0
7500,1,walk,walk,7163,,7163.0,20.0,0.0,0.0,1.0,-12.6,-0.366,-0.05,0.0,28.0,26.49,0.0,0.0,9.0,0.0,0.0,-11.58,-0.2,-0.98,0.08,-1.6,-0.07,1.32,311.0,1.0,1.0,0.0,50.0
7500,1,walk,walk,7164,,7164.0,20.0,0.0,0.0,1.0,-12.6,-0.366,0.028,0.0,28.0,26.49,0.0,0.0,9.0,0.0,0.0,-11.59,-0.2,-0.98,0.08,-1.6,-0.06,1.3,311.0,1.0,1.0,0.0,50.0
7540,1,walk,walk,7165,,7165.0,20.0,0.0,0.0,1.0,-12.61,-0.366,-0.065,0.0,28.0,26.49,0.0,0.0,9.0,0.0,0.0,-11.59,-0.2,-0.98,0.08,-1.59,-0.07,1.29,311.0,1.0,1.0,0.0,50.0
7540,1,walk,walk,7166,,7166.0,20.0,0.0,0.0,1.0,-12.61,-0.365,0.022,0.0,28.0,26.49,0.0,0.0,9.0,0.0,0.0,-11.6,-0.2,-0.98,0.08,-1.59,-0.07,1.28,311.0,1.0,1.0,0.0,50.0
7600,1,walk,walk,7167,,7167.0,20.0,0.0,0.0,1.0,-12.62,-0.365,0.028,0.0,28.0,26.49,0.0,0.0,9.0,0.0,0.0,-11.6,-0.2,-0.98,0.08,-1.59,-0.08,1.26,311.0,1.0,1.0,0.0,50.0
7600,1,walk,walk,7168,,7168.0,20.0,0.0,0.0,1.0,-12.62,-0.365,0.005,0.0,28.0,26.49,0.0,0.0,9.0,0.0,0.0,-11.6,-0.2,-0.98,0.08,-1.58,-0.08,1.25,311.0,1.0,1.0,0.0,50.0
7640,1,walk,walk,7169,,7169.0,20.0,0.0,0.0,1.0,-12.63,-0.366,-0.038,0.0,28.0,26.49,0.0,0.0,9.0,0.0,0.0,-11.6,-0.2,-0.98,0.08,-1.59,-0.07,1.24,311.0,1.0,1.0,0.0,50.0
7640,1,walk,walk,7170,,7170.0,20.0,0.0,0.0,1.0,-12.63,-0.365,-0.03,0.0,28.0,26.49,0.0,0.0,9.0,0.0,0.0,-11.61,-0.2,-0.98,0.08,-1.59,-0.06,1.22,311.0,1.0,1.0,0.0,50.0
7660,1,walk,walk,7171,,7171.0,20.0,0.0,0.0,1.0,-12.64,-0.365,0.049,0.0,28.0,26.49,0.0,0.0,9.0,0.0,0.0,-11.62,-0.2,-0.98,0.08,-1.59,-0.05,1.21,311.0,1.0,1.0,0.0,50.0
7700,1,walk,walk,7172,,7172.0,20.0,0.0,0.0,1.0,-12.64,-0.365,-0.003,0.0,28.0,26.49,0.0,0.0,9.0,0.0,0.0,-11.63,-0.2,-0.98,0.08,-1.59,-0.04,1.2,311.0,1.0,1.0,0.0,50.0
7700,1,walk,walk,7173,,7173.0,20.0,0.0,0.0,1.0,-12.64,-0.365,-0.022,0.0,28.0,26.49,0.0,0.0,9.0,0.0,0.0,-11.64,-0.2,-0.98,0.08,-1.59,-0.03,1.18,311.0,1.0,1.0,0.0,50.0
7740,1,walk,walk,7174,,7174.0,20.0,0.0,0.0,1.0,-12.65,-0.365,0.01,0.0,28.0,26.49,0.0,0.0,9.0,0.0,0.0,-11.65,-0.2,-0.98,0.08,-1.59,-0.02,1.17,311.0,1.0,1.0,0.0,50.0
7740,1,walk,walk,7175,,7175.0,20.0,0.0,0.0,1.0,-12.65,-0.365,0.006,0.0,28.0,26.49,0.0,0.0,9.0,0.0,0.0,-11.65,-0.2,-0.98,0.08,-1.58,-0.01,1.15,311.0,1.0,1.0,0.0,50.0
7740,1,walk,walk,7176,,7176.0,20.0,0.0,0.0,1.0,-12.66,-0.366,-0.089,0.0,28.0,26.49,0.0,0.0,9.0,0.0,0.0,-11.65,-0.2,-0.98,0.08,-1.57,0.0,1.14,311.0,1.0,1.0,0.0,50.0
7800,1,walk,walk,7177,,7177.0,20.0,0.0,0.0,1.0,-12.66,-0.365,0.021,0.0,28.0,26.49,0.0,0.0,9.0,0.0,0.0,-11.65,-0.2,-0.98,0.08,-1.57,0.01,1.12,311.0,1.0,1.0,0.0,50.0
7800,1,walk,walk,7178,,7178.0,20.0,0.0,0.0,1.0,-12.66,-0.365,0.041,0.0,28.0,26.49,0.0,0.0,9.0,0.0,0.0,-11.65,-0.2,-0.98,0.08,-1.56,0.03,1.11,311.0,1.0,1.0,0.0,50.0
7800,1,walk,walk,7179,,7179.0,20.0,0.0,0.0,1.0,-12.67,-0.365,-0.009,0.0,28.0,26.49,0.0,0.0,9.0,0.0,0.0,-11.64,-0.2,-0.98,0.08,-1.56,0.04,1.09,311.0,1.0,1.0,0.0,50.0
7840,1,walk,walk,7180,,7180.0,20.0,0.0,0.0,1.0,-12.67,-0.365,0.01,0.0,28.0,26.49,0.0,0.0,9.0,0.0,0.0,-11.64,-0.2,-0.98,0.08,-1.56,0.05,1.08,311.0,1.0,1.0,0.0,50.0
7840,1,walk,walk,7181,,7181.0,20.0,0.0,0.0,1.0,-12.67,-0.365,-0.056,0.0,28.0,26.49,0.0,0.0,9.0,0.0,0.0,-11.63,-0.2,-0.98,0.08,-1.56,0.06,1.07,311.0,1.0,1.0,0.0,50.0
7900,1,walk,walk,7182,,7182.0,20.0,0.0,0.0,1.0,-12.67,-0.365,-0.062,0.0,28.0,26.49,0.0,0.0,9.0,0.0,0.0,-11.63,-0.2,-0.98,0.08,-1.57,0.07,1.06,311.0,1.0,1.0,0.0,50.0
7900,1,walk,walk,7183,,7183.0,20.0,0.0,0.0,1.0,-12.68,-0.365,-0.044,0.0,28.0,26.49,0.0,0.0,9.0,0.0,0.0,-11.63,-0.2,-0.98,0.08,-1.59,0.07,1.05,311.0,1.0,1.0,0.0,50.0
7940,1,walk,walk,7184,,7184.0,20.0,0.0,0.0,1.0,-12.68,-0.366,-0.026,0.0,28.0,26.49,0.0,0.0,9.0,0.0,0.0,-11.62,-0.2,-0.98,0.08,-1.6,0.07,1.04,311.0,1.0,1.0,0.0,50.0
7940,1,walk,walk,7185,,7185.0,20.0,0.0,0.0,1.0,-12.68,-0.365,0.044,0.0,28.0,26.49,0.0,0.0,9.0,0.0,0.0,-11.62,-0.2,-0.98,0.08,-1.61,0.08,1.03,311.0,1.0,1.0,0.0,50.0
8000,1,walk,walk,7186,,7186.0,20.0,0.0,0.0,1.0,-12.68,-0.366,-0.058,0.0,28.0,26.49,0.0,0.0,9.0,0.0,0.0,-11.62,-0.2,-0.98,0.08,-1.62,0.07,1.02,311.0,1.0,1.0,0.0,50.0
8000,1,walk,walk,7187,,7187.0,20.0,0.0,0.0,1.0,-12.68,-0.366,-0.034,0.0,28.0,26.49,0.0,0.0,9.0,0.0,0.0,-11.62,-0.2,-0.98,0.08,-1.63,0.06,1.0,311.0,1.0,1.0,0.0,50.0
8000,1,walk,walk,7188,,7188.0,20.0,0.0,0.0,1.0,-12.68,-0.366,0.023,0.0,28.0,26.49,0.0,0.0,9.0,0.0,0.0,-11.61,-0.2,-0.98,0.08,-1.64,0.06,0.98,311.0,1.0,1.0,0.0,50.0
8040,1,walk,walk,7189,,7189.0,20.0,0.0,0.0,1.0,-12.68,-0.365,0.014,0.0,28.0,26.49,0.0,0.0,9.0,0.0,0.0,-11.61,-0.2,-0.98,0.08,-1.64,0.05,0.96,311.0,1.0,1.0,0.0,50.0
8040,1,walk,walk,7190,,7190.0,20.0,0.0,0.0,1.0,-12.68,-0.366,0.057,0.0,28.0,26.49,0.0,0.0,9.0,0.0,0.0,-11.6,-0.2,-0.98,0.08,-1.65,0.05,0.94,311.0,1.0,1.0,0.0,50.0
8040,1,walk,walk,7191,,7191.0,20.0,0.0,0.0,1.0,-12.68,-0.366,-0.136,0.0,28.0,26.49,0.0,0.0,9.0,0.0,0.0,-11.6,-0.2,-0.98,0.08,-1.65,0.06,0.93,311.0,1.0,1.0,0.0,50.0
8100,1,walk,walk,7192,,7192.0,20.0,0.0,0.0,1.0,-12.68,-0.366,-0.001,0.0,28.0,26.49,0.0,0.0,9.0,0.0,0.0,-11.59,-0.2,-0.98,0.08,-1.66,0.05,0.92,311.0,1.0,1.0,0.0,50.0
8100,1,walk,walk,7193,,7193.0,20.0,0.0,0.0,1.0,-12.68,-0.366,0.042,0.0,28.0,26.49,0.0,0.0,9.0,0.0,0.0,-11.59,-0.2,-0.98,0.08,-1.66,0.05,0.91,311.0,1.0,1.0,0.0,50.0
8100,1,walk,walk,7194,,7194.0,20.0,0.0,0.0,1.0,-12.68,-0.366,-0.019,0.0,28.0,26.49,0.0,0.0,9.0,0.0,0.0,-11.58,-0.2,-0.98,0.08,-1.67,0.04,0.9,311.0,1.0,1.0,0.0,50.0
8140,1,walk,walk,7195,,7195.0,20.0,0.0,0.0,1.0,-12.68,-0.366,0.003,0.0,28.0,26.49,0.0,0.0,9.0,0.0,0.0,-11.57,-0.2,-0.98,0.08,-1.67,0.03,0.9,311.0,1.0,1.0,0.0,50.0
8140,1,walk,walk,7196,,7196.0,20.0,0.0,0.0,1.0,-12.68,-0.365,0.033,0.0,28.0,26.49,0.0,0.0,9.0,0.0,0.0,-11.57,-0.2,-0.98,0.08,-1.67,0.03,0.89,311.0,1.0,1.0,0.0,50.0
8200,1,walk,walk,7197,,7197.0,20.0,0.0,0.0,1.0,-12.68,-0.365,0.01,0.0,28.0,26.49,0.0,0.0,9.0,0.0,0.0,-11.56,-0.2,-0.98,0.08,-1.67,0.02,0.89,311.0,1.0,1.0,0.0,50.0
8200,1,walk,walk,7198,,7198.0,20.0,0.0,0.0,1.0,-12.68,-0.366,-0.007,0.0,28.0,26.49,0.0,0.0,9.0,0.0,0.0,-11.56,-0.2,-0.98,0.08,-1.68,0.02,0.88,311.0,1.0,1.0,0.0,50.0
8240,1,walk,walk,7199,,7199.0,20.0,0.0,0.0,1.0,-12.67,-0.365,-0.042,0.0,28.0,26.46,0.0,0.0,9.0,0.0,0.0,-11.55,-0.2,-0.98,0.08,-1.69,0.01,0.88,311.0,1.0,1.0,0.0,50.0
8240,1,walk,walk,7200,,7200.0,20.0,0.0,0.0,1.0,-12.67,-0.366,-0.018,0.0,28.0,26.49,0.0,0.0,9.0,0.0,0.0,-11.55,-0.2,-0.98,0.08,-1.7,0.01,0.88,311.0,1.0,1.0,0.0,50.0
8260,1,walk,walk,7201,,7201.0,20.0,0.0,0.0,1.0,-12.67,-0.365,0.015,0.0,28.0,26.49,0.0,0.0,9.0,0.0,0.0,-11.54,-0.2,-0.98,0.08,-1.7,0.01,0.87,311.0,1.0,1.0,0.0,50.0
8300,1,walk,walk,7202,,7202.0,20.0,0.0,0.0,1.0,-12.67,-0.365,0.034,0.0,28.0,26.49,0.0,0.0,9.0,0.0,0.0,-11.54,-0.2,-0.98,0.08,-1.71,0.02,0.87,311.0,1.0,1.0,0.0,50.0
8300,1,walk,walk,7203,,7203.0,20.0,0.0,0.0,1.0,-12.66,-0.365,0.001,0.0,28.0,26.49,0.0,0.0,9.0,0.0,0.0,-11.54,-0.2,-0.98,0.08,-1.71,0.04,0.86,311.0,1.0,1.0,0.0,50.0
8340,1,walk,walk,7204,,7204.0,20.0,0.0,0.0,1.0,-12.66,-0.366,-0.075,0.0,28.0,26.49,0.0,0.0,9.0,0.0,0.0,-11.53,-0.2,-0.98,0.08,-1.71,0.05,0.86,311.0,1.0,1.0,0.0,50.0
8340,1,walk,walk,7205,,7205.0,20.0,0.0,0.0,1.0,-12.66,-0.366,-0.044,0.0,28.0,26.49,0.0,0.0,9.0,0.0,0.0,-11.53,-0.2,-0.98,0.08,-1.7,0.06,0.86,311.0,1.0,1.0,0.0,50.0
8340,1,walk,walk,7206,,7206.0,20.0,0.0,0.0,1.0,-12.65,-0.366,-0.068,0.0,28.0,26.49,0.0,0.0,9.0,0.0,0.0,-11.53,-0.2,-0.98,0.08,-1.7,0.07,0.85,311.0,1.0,1.0,0.0,50.0
8400,1,walk,walk,7207,,7207.0,20.0,0.0,0.0,1.0,-12.65,-0.366,0.013,0.0,28.0,26.49,0.0,0.0,9.0,0.0,0.0,-11.52,-0.2,-0.98,0.08,-1.69,0.08,0.85,311.0,1.0,1.0,0.0,50.0
8400,1,walk,walk,7208,,7208.0,20.0,0.0,0.0,1.0,-12.64,-0.365,0.05,0.0,28.0,26.46,0.0,0.0,9.0,0.0,0.0,-11.51,-0.2,-0.98,0.08,-1.68,0.08,0.84,311.0,1.0,1.0,0.0,50.0
8400,1,walk,walk,7209,,7209.0,20.0,0.0,0.0,1.0,-12.64,-0.365,0.053,0.0,28.0,26.49,0.0,0.0,9.0,0.0,0.0,-11.5,-0.2,-0.98,0.08,-1.67,0.08,0.83,311.0,1.0,1.0,0.0,50.0
8440,1,walk,walk,7210,,7210.0,20.0,0.0,0.0,1.0,-12.63,-0.366,-0.025,0.0,28.0,26.49,0.0,0.0,9.0,0.0,0.0,-11.49,-0.2,-0.98,0.08,-1.65,0.08,0.82,311.0,1.0,1.0,0.0,50.0
8500,1,walk,walk,7211,,7211.0,20.0,0.0,0.0,1.0,-12.63,-0.365,-0.032,0.0,28.0,26.49,0.0,0.0,9.0,0.0,0.0,-11.48,-0.2,-0.98,0.08,-1.64,0.08,0.82,311.0,1.0,1.0,0.0,50.0
8500,1,walk,walk,7212,,7212.0,20.0,0.0,0.0,1.0,-12.63,-0.366,-0.079,0.0,28.0,26.49,0.0,0.0,9.0,0.0,0.0,-11.47,-0.2,-0.98,0.08,-1.63,0.09,0.82,311.0,1.0,1.0,0.0,50.0
8500,1,walk,walk,7213,,7213.0,20.0,0.0,0.0,1.0,-12.62,-0.366,0.017,0.0,28.0,26.49,0.0,0.0,9.0,0.0,0.0,-11.47,-0.2,-0.98,0.08,-1.63,0.1,0.82,311.0,1.0,1.0,0.0,50.0
8540,1,walk,walk,7214,,7214.0,20.0,0.0,0.0,1.0,-12.62,-0.365,0.105,0.0,28.0,26.49,0.0,0.0,9.0,0.0,0.0,-11.46,-0.2,-0.98,0.08,-1.62,0.11,0.83,311.0,1.0,1.0,0.0,50.0
8540,1,walk,walk,7215,,7215.0,20.0,0.0,0.0,1.0,-12.61,-0.366,-0.033,0.0,28.0,26.49,0.0,0.0,9.0,0.0,0.0,-11.46,-0.2,-0.98,0.08,-1.61,0.12,0.85,311.0,1.0,1.0,0.0,50.0
8560,1,walk,walk,7216,,7216.0,20.0,0.0,0.0,1.0,-12.61,-0.366,-0.088,0.0,28.0,26.49,0.0,0.0,9.0,0.0,0.0,-11.46,-0.2,-0.98,0.08,-1.61,0.13,0.86,311.0,1.0,1.0,0.0,50.0
8600,1,walk,walk,7217,,7217.0,20.0,0.0,0.0,1.0,-12.6,-0.366,-0.057,0.0,28.0,26.46,0.0,0.0,9.0,0.0,0.0,-11.46,-0.2,-0.98,0.08,-1.61,0.13,0.88,311.0,1.0,1.0,0.0,50.0
8600,1,walk,walk,7218,,7218.0,20.0,0.0,0.0,1.0,-12.6,-0.365,0.056,0.0,28.0,26.49,0.0,0.0,9.0,0.0,0.0,-11.46,-0.2,-0.98,0.08,-1.6,0.13,0.89,311.0,1.0,1.0,0.0,50.0
8640,1,walk,walk,7219,,7219.0,20.0,0.0,0.0,1.0,-12.59,-0.366,0.062,0.0,28.0,26.49,0.0,0.0,9.0,0.0,0.0,-11.46,-0.2,-0.98,0.08,-1.6,0.12,0.91,311.0,1.0,1.0,0.0,50.0
8640,1,walk,walk,7220,,7220.0,20.0,0.0,0.0,1.0,-12.59,-0.365,0.101,0.0,28.0,26.49,0.0,0.0,9.0,0.0,0.0,-11.46,-0.2,-0.98,0.08,-1.6,0.11,0.92,311.0,1.0,1.0,0.0,50.0
8700,1,walk,walk,7221,,7221.0,20.0,0.0,0.0,1.0,-12.58,-0.366,0.084,0.0,28.0,26.49,0.0,0.0,9.0,0.0,0.0,-11.45,-0.2,-0.98,0.08,-1.6,0.1,0.93,311.0,1.0,1.0,0.0,50.0
8700,1,walk,walk,7222,,7222.0,20.0,0.0,0.0,1.0,-12.58,-0.365,0.064,0.0,28.0,26.49,0.0,0.0,9.0,0.0,0.0,-11.44,-0.2,-0.98,0.08,-1.6,0.1,0.94,311.0,1.0,1.0,0.0,50.0
8700,1,walk,walk,7223,,7223.0,20.0,0.0,0.0,1.0,-12.57,-0.366,0.022,0.0,28.0,26.49,0.0,0.0,9.0,0.0,0.0,-11.44,-0.2,-0.98,0.08,-1.59,0.1,0.94,311.0,1.0,1.0,0.0,50.0
8700,1,walk,walk,7224,,7224.0,20.0,0.0,0.0,1.0,-12.57,-0.366,-0.019,0.0,28.0,26.49,0.0,0.0,9.0,0.0,0.0,-11.43,-0.2,-0.98,0.08,-1.59,0.09,0.94,311.0,1.0,1.0,0.0,50.0
8740,1,walk,walk,7225,,7225.0,20.0,0.0,0.0,1.0,-12.56,-0.366,0.026,0.0,28.0,26.49,0.0,0.0,9.0,0.0,0.0,-11.43,-0.2,-0.98,0.08,-1.58,0.08,0.94,311.0,1.0,1.0,0.0,50.0
8740,1,walk,walk,7226,,7226.0,20.0,0.0,0.0,1.0,-12.56,-0.365,0.038,0.0,28.0,26.49,0.0,0.0,9.0,0.0,0.0,-11.43,-0.2,-0.98,0.08,-1.58,0.05,0.92,311.0,1.0,1.0,0.0,50.0
8800,1,walk,walk,7227,,7227.0,20.0,0.0,0.0,1.0,-12.55,-0.366,0.04,0.0,28.0,26.49,0.0,0.0,9.0,0.0,0.0,-11.43,-0.2,-0.98,0.08,-1.59,0.02,0.9,311.0,1.0,1.0,0.0,50.0
8800,1,walk,walk,7228,,7228.0,20.0,0.0,0.0,1.0,-12.55,-0.366,-0.003,0.0,28.0,26.49,0.0,0.0,9.0,0.0,0.0,-11.43,-0.2,-0.98,0.08,-1.6,-0.02,0.88,311.0,1.0,1.0,0.0,50.0
8840,1,walk,walk,7229,,7229.0,20.0,0.0,0.0,1.0,-12.54,-0.366,-0.005,0.0,28.0,26.49,0.0,0.0,9.0,0.0,0.0,-11.43,-0.2,-0.98,0.08,-1.62,-0.06,0.85,311.0,1.0,1.0,0.0,50.0
8840,1,walk,walk,7230,,7230.0,20.0,0.0,0.0,1.0,-12.54,-0.366,0.01,0.0,28.0,26.49,0.0,0.0,9.0,0.0,0.0,-11.43,-0.2,-0.98,0.08,-1.64,-0.09,0.83,311.0,1.0,1.0,0.0,50.0
8900,1,walk,walk,7231,,7231.0,20.0,0.0,0.0,1.0,-12.53,-0.366,0.002,0.0,28.0,26.49,0.0,0.0,9.0,0.0,0.0,-11.42,-0.2,-0.98,0.08,-1.65,-0.11,0.82,311.0,1.0,1.0,0.0,50.0
8900,1,walk,walk,7232,,7232.0,20.0,0.0,0.0,1.0,-12.53,-0.366,-0.013,0.0,28.0,26.49,0.0,0.0,9.0,0.0,0.0,-11.41,-0.2,-0.98,0.08,-1.66,-0.14,0.81,311.0,1.0,1.0,0.0,50.0
8900,1,walk,walk,7233,,7233.0,20.0,0.0,0.0,1.0,-12.53,-0.366,0.03,0.0,28.0,26.49,0.0,0.0,9.0,0.0,0.0,-11.38,-0.2,-0.98,0.08,-1.67,-0.15,0.82,311.0,1.0,1.0,0.0,50.0
8940,1,walk,walk,7234,,7234.0,20.0,0.0,0.0,1.0,-12.52,-0.366,0.046,0.0,28.0,26.49,0.0,0.0,9.0,0.0,0.0,-11.34,-0.2,-0.98,0.08,-1.67,-0.15,0.83,311.0,1.0,1.0,0.0,50.0
8940,1,walk,walk,7235,,7235.0,20.0,0.0,0.0,1.0,-12.52,-0.366,-0.042,0.0,28.0,26.49,0.0,0.0,9.0,0.0,0.0,-11.29,-0.2,-0.98,0.08,-1.66,-0.14,0.85,311.0,1.0,1.0,0.0,50.0
8940,1,walk,walk,7236,,7236.0,20.0,0.0,0.0,1.0,-12.51,-0.366,0.062,0.0,28.0,26.49,0.0,0.0,9.0,0.0,0.0,-11.25,-0.2,-0.98,0.08,-1.65,-0.11,0.88,311.0,1.0,1.0,0.0,50.0
9000,1,walk,walk,7237,,7237.0,20.0,0.0,0.0,1.0,-12.51,-0.366,0.019,0.0,28.0,26.49,0.0,0.0,9.0,0.0,0.0,-11.2,-0.19,-0.98,0.08,-1.63,-0.06,0.92,311.0,1.0,1.0,0.0,50.0
9000,1,walk,walk,7238,,7238.0,20.0,0.0,0.0,1.0,-12.5,-0.366,0.046,0.0,28.0,26.49,0.0,0.0,9.0,0.0,0.0,-11.16,-0.19,-0.98,0.08,-1.61,0.01,0.96,311.0,1.0,1.0,0.0,50.0
9040,1,walk,walk,7239,,7239.0,20.0,0.0,0.0,1.0,-12.5,-0.366,-0.095,0.0,28.0,26.49,0.0,0.0,9.0,0.0,0.0,-11.13,-0.19,-0.98,0.08,-1.59,0.1,1.0,311.0,1.0,1.0,0.0,50.0
9040,1,walk,walk,7240,,7240.0,20.0,0.0,0.0,1.0,-12.49,-0.366,-0.032,0.0,28.0,26.46,0.0,0.0,9.0,0.0,0.0,-11.12,-0.19,-0.98,0.08,-1.57,0.19,1.04,311.0,1.0,1.0,0.0,50.0
9040,1,walk,walk,7241,,7241.0,20.0,0.0,0.0,1.0,-12.49,-0.366,0.036,0.0,28.0,26.49,0.0,0.0,9.0,0.0,0.0,-11.12,-0.19,-0.98,0.08,-1.56,0.27,1.09,311.0,1.0,1.0,0.0,50.0
9100,1,walk,walk,7242,,7242.0,20.0,0.0,0.0,1.0,-12.48,-0.366,-0.005,0.0,28.0,26.49,0.0,0.0,9.0,0.0,0.0,-11.12,-0.19,-0.98,0.08,-1.55,0.33,1.13,311.0,1.0,1.0,0.0,50.0
9100,1,walk,walk,7243,,7243.0,20.0,0.0,0.0,1.0,-12.48,-0.366,0.037,0.0,28.0,26.49,0.0,0.0,9.0,0.0,0.0,-11.13,-0.19,-0.98,0.08,-1.56,0.37,1.16,311.0,1.0,1.0,0.0,50.0
9140,1,walk,walk,7244,,7244.0,20.0,0.0,0.0,1.0,-12.47,-0.366,0.045,0.0,28.0,26.49,0.0,0.0,9.0,0.0,0.0,-11.14,-0.19,-0.98,0.08,-1.57,0.38,1.19,311.0,1.0,1.0,0.0,50.0
9140,1,walk,walk,7245,,7245.0,20.0,0.0,0.0,1.0,-12.47,-0.366,-0.037,0.0,28.0,26.49,0.0,0.0,9.0,0.0,0.0,-11.15,-0.19,-0.98,0.08,-1.59,0.39,1.23,311.0,1.0,1.0,0.0,50.0
9160,1,walk,walk,7246,,7246.0,20.0,0.0,0.0,1.0,-12.46,-0.365,-0.026,0.0,28.0,26.49,0.0,0.0,9.0,0.0,0.0,-11.14,-0.19,-0.98,0.08,-1.63,0.38,1.26,311.0,1.0,1.0,0.0,50.0
9200,1,walk,walk,7247,,7247.0,20.0,0.0,0.0,1.0,-12.45,-0.365,0.009,0.0,28.0,26.49,0.0,0.0,9.0,0.0,0.0,-11.12,-0.19,-0.98,0.08,-1.66,0.38,1.3,311.0,1.0,1.0,0.0,50.0
9200,1,walk,walk,7248,,7248.0,20.0,0.0,0.0,1.0,-12.45,-0.365,-0.007,0.0,28.0,26.49,0.0,0.0,9.0,0.0,0.0,-11.09,-0.19,-0.98,0.08,-1.7,0.4,1.33,311.0,1.0,1.0,0.0,50.0
9240,1,walk,walk,7249,,7249.0,20.0,0.0,0.0,1.0,-12.45,-0.363,0.147,0.0,28.0,26.49,0.0,0.0,9.0,0.0,0.0,-11.04,-0.19,-0.98,0.08,-1.73,0.44,1.35,311.0,1.0,1.0,0.0,50.0
9240,1,walk,walk,7250,,7250.0,20.0,0.0,0.0,1.0,-12.44,-0.36,0.182,0.0,28.0,26.49,0.0,0.0,9.0,0.0,0.0,-10.98,-0.19,-0.98,0.08,-1.75,0.54,1.32,311.0,1.0,1.0,0.0,50.0
9240,1,walk,walk,7251,,7251.0,20.0,0.0,0.0,1.0,-12.44,-0.358,0.146,0.0,28.0,26.49,0.0,0.0,9.0,0.0,0.0,-10.92,-0.19,-0.98,0.08,-1.76,0.7,1.27,311.0,1.0,1.0,0.0,50.0
9300,1,walk,walk,7252,,7252.0,20.0,0.0,0.0,1.0,-12.43,-0.357,-0.03,0.0,28.0,26.49,0.0,0.0,9.0,0.0,0.0,-10.88,-0.19,-0.98,0.08,-1.76,0.93,1.2,311.0,1.0,1.0,0.0,50.0
9300,1,walk,walk,7253,,7253.0,20.0,0.0,0.0,1.0,-12.43,-0.356,0.048,0.0,28.0,26.49,0.0,0.0,9.0,0.0,0.0,-10.86,-0.19,-0.98,0.08,-1.76,1.2,1.13,311.0,1.0,1.0,0.0,50.0
9300,1,walk,walk,7254,,7254.0,20.0,0.0,0.0,1.0,-12.43,-0.356,0.036,0.0,28.0,26.49,0.0,0.0,9.0,0.0,0.0,-10.86,-0.19,-0.98,0.08,-1.74,1.49,1.09,311.0,1.0,1.0,0.0,50.0
9340,1,walk,walk,7255,,7255.0,20.0,0.0,0.0,1.0,-12.42,-0.356,0.014,0.0,28.0,26.49,0.0,0.0,9.0,0.0,0.0,-10.89,-0.19,-0.98,0.08,-1.73,1.79,1.08,311.0,1.0,1.0,0.0,50.0
9400,1,walk,walk,7256,,7256.0,20.0,0.0,0.0,1.0,-12.42,-0.356,0.002,0.0,28.0,26.49,0.0,0.0,9.0,0.0,0.0,-10.93,-0.19,-0.98,0.08,-1.71,2.11,1.11,311.0,1.0,1.0,0.0,50.0
9400,1,walk,walk,7257,,7257.0,20.0,0.0,0.0,1.0,-12.41,-0.356,-0.03,0.0,28.0,26.49,0.0,0.0,9.0,0.0,0.0,-11.0,-0.19,-0.98,0.08,-1.69,2.43,1.16,311.0,1.0,1.0,0.0,50.0
9400,1,walk,walk,7258,,7258.0,20.0,0.0,0.0,1.0,-12.41,-0.356,-0.057,0.0,28.0,26.49,0.0,0.0,9.0,0.0,0.0,-11.08,-0.19,-0.98,0.08,-1.68,2.74,1.23,311.0,1.0,1.0,0.0,50.0
9440,1,walk,walk,7259,,7259.0,20.0,0.0,0.0,1.0,-12.41,-0.356,0.007,0.0,28.0,26.49,0.0,0.0,9.0,0.0,0.0,-11.17,-0.19,-0.98,0.08,-1.67,3.04,1.32,311.0,1.0,1.0,0.0,50.0
9440,1,walk,walk,7260,,7260.0,20.0,0.0,0.0,1.0,-12.4,-0.356,0.019,0.0,28.0,26.49,0.0,0.0,9.0,0.0,0.0,-11.26,-0.2,-0.98,0.08,-1.66,3.3,1.41,311.0,1.0,1.0,0.0,50.0
9460,1,walk,walk,7261,,7261.0,20.0,0.0,0.0,1.0,-12.4,-0.356,0.01,0.0,28.0,26.49,0.0,0.0,9.0,0.0,0.0,-11.34,-0.2,-0.98,0.08,-1.66,3.54,1.51,311.0,1.0,1.0,0.0,50.0
9500,1,walk,walk,7262,,7262.0,20.0,0.0,0.0,1.0,-12.39,-0.356,-0.081,0.0,28.0,26.49,0.0,0.0,9.0,0.0,0.0,-11.42,-0.2,-0.98,0.08,-1.65,3.75,1.61,311.0,1.0,1.0,0.0,50.0
9500,1,walk,walk,7263,,7263.0,20.0,0.0,0.0,1.0,-12.39,-0.356,-0.037,0.0,28.0,26.49,0.0,0.0,9.0,0.0,0.0,-11.49,-0.2,-0.98,0.08,-1.65,3.94,1.71,311.0,1.0,1.0,0.0,50.0
9540,1,walk,walk,7264,,7264.0,20.0,0.0,0.0,1.0,-12.39,-0.356,-0.01,0.0,28.0,26.49,0.0,0.0,9.0,0.0,0.0,-11.54,-0.2,-0.98,0.08,-1.64,4.1,1.8,311.0,1.0,1.0,0.0,50.0
9540,1,walk,walk,7265,,7265.0,20.0,0.0,0.0,1.0,-12.39,-0.356,0.006,0.0,28.0,26.46,0.0,0.0,9.0,0.0,0.0,-11.58,-0.2,-0.98,0.08,-1.64,4.22,1.89,311.0,1.0,1.0,0.0,50.0
9540,1,walk,walk,7266,,7266.0,20.0,0.0,0.0,1.0,-12.39,-0.356,0.001,0.0,28.0,26.49,0.0,0.0,9.0,0.0,0.0,-11.61,-0.2,-0.98,0.07,-1.64,4.31,1.96,311.0,1.0,1.0,0.0,50.0
9600,1,walk,walk,7267,,7267.0,20.0,0.0,0.0,1.0,-12.39,-0.356,-0.115,0.0,28.0,26.49,0.0,0.0,9.0,0.0,0.0,-11.64,-0.2,-0.98,0.07,-1.64,4.38,2.01,311.0,1.0,1.0,0.0,50.0
9600,1,walk,walk,7268,,7268.0,20.0,0.0,0.0,1.0,-12.39,-0.356,-0.013,0.0,28.0,26.49,0.0,0.0,9.0,0.0,0.0,-11.65,-0.2,-0.98,0.07,-1.65,4.43,2.04,311.0,1.0,1.0,0.0,50.0
9600,1,walk,walk,7269,,7269.0,20.0,0.0,0.0,1.0,-12.4,-0.356,-0.048,0.0,28.0,26.49,0.0,0.0,9.0,0.0,0.0,-11.67,-0.2,-0.98,0.07,-1.65,4.47,2.06,311.0,1.0,1.0,0.0,50.0
9640,1,walk,walk,7270,,7270.0,20.0,0.0,0.0,1.0,-12.4,-0.356,0.006,0.0,28.0,26.49,0.0,0.0,9.0,0.0,0.0,-11.68,-0.2,-0.98,0.07,-1.66,4.5,2.06,311.0,1.0,1.0,0.0,50.0
9640,1,walk,walk,7271,,7271.0,20.0,0.0,0.0,1.0,-12.41,-0.356,0.021,0.0,28.0,26.49,0.0,0.0,9.0,0.0,0.0,-11.7,-0.2,-0.98,0.07,-1.67,4.52,2.05,311.0,1.0,1.0,0.0,50.0
9700,1,walk,walk,7272,,7272.0,20.0,0.0,0.0,1.0,-12.42,-0.356,-0.044,0.0,28.0,26.49,0.0,0.0,9.0,0.0,0.0,-11.73,-0.2,-0.98,0.07,-1.69,4.51,2.03,311.0,1.0,1.0,0.0,50.0
9700,1,walk,walk,7273,,7273.0,20.0,0.0,0.0,1.0,-12.44,-0.356,-0.041,0.0,28.0,26.46,0.0,0.0,9.0,0.0,0.0,-11.76,-0.2,-0.98,0.07,-1.7,4.47,2.0,311.0,1.0,1.0,0.0,50.0
9740,1,walk,walk,7274,,7274.0,20.0,0.0,0.0,1.0,-12.45,-0.356,0.025,0.0,28.0,26.49,0.0,0.0,9.0,0.0,0.0,-11.81,-0.21,-0.98,0.07,-1.71,4.39,1.96,311.0,1.0,1.0,0.0,50.0
9740,1,walk,walk,7275,,7275.0,20.0,0.0,0.0,1.0,-12.46,-0.356,0.009,0.0,28.0,26.49,0.0,0.0,9.0,0.0,0.0,-11.86,-0.21,-0.98,0.07,-1.73,4.28,1.9,311.0,1.0,1.0,0.0,50.0
9760,1,walk,walk,7276,,7276.0,20.0,0.0,0.0,1.0,-12.48,-0.356,-0.019,0.0,28.0,26.49,0.0,0.0,9.0,0.0,0.0,-11.92,-0.21,-0.98,0.07,-1.75,4.12,1.83,311.0,1.0,1.0,0.0,50.0
9800,1,walk,walk,7277,,7277.0,20.0,0.0,0.0,1.0,-12.5,-0.357,0.021,0.0,28.0,26.49,0.0,0.0,9.0,0.0,0.0,-11.97,-0.21,-0.98,0.07,-1.77,3.93,1.76,311.0,1.0,1.0,0.0,50.0
9800,1,walk,walk,7278,,7278.0,20.0,0.0,0.0,1.0,-12.52,-0.357,-0.025,0.0,28.0,26.49,0.0,0.0,9.0,0.0,0.0,-12.02,-0.21,-0.98,0.07,-1.79,3.71,1.67,311.0,1.0,1.0,0.0,50.0
9840,1,walk,walk,7279,,7279.0,20.0,0.0,0.0,1.0,-12.53,-0.357,0.006,0.0,28.0,26.49,0.0,0.0,9.0,0.0,0.0,-12.06,-0.21,-0.98,0.07,-1.82,3.48,1.58,311.0,1.0,1.0,0.0,50.0
9840,1,walk,walk,7280,,7280.0,20.0,0.0,0.0,1.0,-12.55,-0.357,-0.002,0.0,28.0,26.49,0.0,0.0,9.0,0.0,0.0,-12.09,-0.21,-0.98,0.07,-1.86,3.25,1.5,311.0,1.0,1.0,0.0,50.0
9840,1,walk,walk,7281,,7281.0,20.0,0.0,0.0,1.0,-12.57,-0.358,-0.033,0.0,28.0,26.49,0.0,0.0,9.0,0.0,0.0,-12.11,-0.21,-0.98,0.07,-1.89,3.0,1.41,311.0,1.0,1.0,0.0,50.0
9900,1,walk,walk,7282,,7282.0,20.0,0.0,0.0,1.0,-12.59,-0.358,-0.046,0.0,28.0,26.49,0.0,0.0,9.0,0.0,0.0,-12.12,-0.21,-0.98,0.07,-1.93,2.74,1.32,311.0,1.0,1.0,0.0,50.0
9900,1,walk,walk,7283,,7283.0,20.0,0.0,0.0,1.0,-12.61,-0.358,-0.01,0.0,28.0,26.49,0.0,0.0,9.0,0.0,0.0,-12.13,-0.21,-0.98,0.07,-1.97,2.47,1.24,311.0,1.0,1.0,0.0,50.0
9900,1,walk,walk,7284,,7284.0,20.0,0.0,0.0,1.0,-12.63,-0.358,-0.05,0.0,28.0,26.49,0.0,0.0,9.0,0.0,0.0,-12.12,-0.21,-0.98,0.07,-2.01,2.2,1.16,311.0,1.0,1.0,0.0,50.0
9940,1,walk,walk,7285,,7285.0,20.0,0.0,0.0,1.0,-12.65,-0.359,-0.085,0.0,28.0,26.49,0.0,0.0,9.0,0.0,0.0,-12.11,-0.21,-0.98,0.07,-2.04,1.94,1.09,311.0,1.0,1.0,0.0,50.0
9940,1,walk,walk,7286,,7286.0,20.0,0.0,0.0,1.0,-12.67,-0.36,-0.089,0.0,28.0,26.49,0.0,0.0,9.0,0.0,0.0,-12.08,-0.21,-0.98,0.07,-2.08,1.69,1.03,311.0,1.0,1.0,0.0,50.0
10000,1,walk,walk,7287,,7287.0,20.0,0.0,0.0,1.0,-12.69,-0.361,-0.028,0.0,28.0,26.49,0.0,0.0,9.0,0.0,0.0,-12.05,-0.21,-0.98,0.07,-2.1,1.47,0.99,311.0,1.0,1.0,0.0,50.0
10000,1,walk,walk,7288,,7288.0,20.0,0.0,0.0,1.0,-12.7,-0.362,-0.079,0.0,28.0,26.49,0.0,0.0,9.0,0.0,0.0,-12.0,-0.21,-0.98,0.07,-2.13,1.27,0.97,311.0,1.0,1.0,0.0,50.0
10040,1,walk,walk,7289,,7289.0,20.0,0.0,0.0,1.0,-12.72,-0.362,-0.017,0.0,28.0,26.49,0.0,0.0,9.0,0.0,0.0,-11.95,-0.21,-0.98,0.07,-2.14,1.1,0.97,311.0,1.0,1.0,0.0,50.0
10040,1,walk,walk,7290,,7290.0,20.0,0.0,0.0,1.0,-12.73,-0.363,-0.073,0.0,28.0,26.49,0.0,0.0,9.0,0.0,0.0,-11.89,-0.21,-0.98,0.07,-2.15,0.97,0.97,311.0,1.0,1.0,0.0,50.0
10060,1,walk,walk,7291,,7291.0,20.0,0.0,0.0,1.0,-12.74,-0.363,-0.048,0.0,28.0,26.49,0.0,0.0,9.0,0.0,0.0,-11.82,-0.21,-0.98,0.07,-2.16,0.89,0.98,311.0,1.0,1.0,0.0,50.0
10100,1,walk,walk,7292,,7292.0,20.0,0.0,0.0,1.0,-12.76,-0.364,-0.033,0.0,28.0,26.49,0.0,0.0,9.0,0.0,0.0,-11.75,-0.2,-0.98,0.06,-2.16,0.85,0.99,311.0,1.0,1.0,0.0,50.0
10100,1,walk,walk,7293,,7293.0,20.0,0.0,0.0,1.0,-12.77,-0.365,-0.081,0.0,28.0,26.49,0.0,0.0,9.0,0.0,0.0,-11.69,-0.2,-0.98,0.06,-2.16,0.83,1.02,311.0,1.0,1.0,0.0,50.0
10140,1,walk,walk,7294,,7294.0,20.0,0.0,0.0,1.0,-12.78,-0.366,-0.033,0.0,28.0,26.49,0.0,0.0,9.0,0.0,0.0,-11.63,-0.2,-0.98,0.06,-2.15,0.83,1.07,311.0,1.0,1.0,0.0,50.0
10140,1,walk,walk,7295,,7295.0,20.0,0.0,0.0,1.0,-12.78,-0.366,-0.028,0.0,28.0,26.49,0.0,0.0,9.0,0.0,0.0,-11.58,-0.2,-0.98,0.06,-2.15,0.83,1.11,311.0,1.0,1.0,0.0,50.0
10200,1,walk,walk,7296,,7296.0,20.0,0.0,0.0,1.0,-12.79,-0.366,-0.033,0.0,28.0,26.49,0.0,0.0,9.0,0.0,0.0,-11.54,-0.2,-0.98,0.06,-2.15,0.85,1.16,311.0,1.0,1.0,0.0,50.0
10200,1,walk,walk,7297,,7297.0,20.0,0.0,0.0,1.0,-12.8,-0.366,-0.018,0.0,28.0,26.49,0.0,0.0,9.0,0.0,0.0,-11.51,-0.2,-0.98,0.06,-2.15,0.89,1.19,311.0,1.0,1.0,0.0,50.0
10200,1,walk,walk,7298,,7298.0,20.0,0.0,0.0,1.0,-12.8,-0.366,-0.037,0.0,28.0,26.49,0.0,0.0,9.0,0.0,0.0,-11.5,-0.2,-0.98,0.06,-2.15,0.92,1.2,311.0,1.0,1.0,0.0,50.0
10200,1,walk,walk,7299,,7299.0,20.0,0.0,0.0,1.0,-12.8,-0.366,0.013,0.0,28.0,26.49,0.0,0.0,9.0,0.0,0.0,-11.51,-0.2,-0.98,0.06,-2.15,0.93,1.2,311.0,1.0,1.0,0.0,50.0
10240,1,walk,walk,7300,,7300.0,20.0,0.0,0.0,1.0,-12.81,-0.366,0.037,0.0,28.0,26.49,0.0,0.0,9.0,0.0,0.0,-11.53,-0.2,-0.98,0.06,-2.14,0.91,1.19,311.0,1.0,1.0,0.0,50.0
10300,1,walk,walk,7301,,7301.0,20.0,0.0,0.0,1.0,-12.81,-0.367,-0.03,0.0,28.0,26.49,0.0,0.0,9.0,0.0,0.0,-11.55,-0.2,-0.98,0.06,-2.14,0.86,1.17,311.0,1.0,1.0,0.0,50.0
10300,1,walk,walk,7302,,7302.0,20.0,0.0,0.0,1.0,-12.81,-0.367,-0.04,0.0,28.0,26.49,0.0,0.0,9.0,0.0,0.0,-11.58,-0.2,-0.98,0.06,-2.13,0.79,1.15,311.0,1.0,1.0,0.0,50.0
10300,1,walk,walk,7303,,7303.0,20.0,0.0,0.0,1.0,-12.81,-0.368,-0.066,0.0,28.0,26.49,0.0,0.0,9.0,0.0,0.0,-11.62,-0.2,-0.98,0.06,-2.13,0.69,1.13,311.0,1.0,1.0,0.0,50.0
10340,1,walk,walk,7304,,7304.0,20.0,0.0,0.0,1.0,-12.81,-0.369,-0.06,0.0,28.0,26.49,0.0,0.0,9.0,0.0,0.0,-11.66,-0.2,-0.98,0.06,-2.12,0.57,1.12,311.0,1.0,1.0,0.0,50.0
10340,1,walk,walk,7305,,7305.0,20.0,0.0,0.0,1.0,-12.81,-0.369,0.046,0.0,28.0,26.49,0.0,0.0,9.0,0.0,0.0,-11.7,-0.2,-0.98,0.06,-2.13,0.43,1.12,311.0,1.0,1.0,0.0,50.0
10360,1,walk,walk,7306,,7306.0,20.0,0.0,0.0,1.0,-12.81,-0.369,0.075,0.0,28.0,26.49,0.0,0.0,9.0,0.0,0.0,-11.73,-0.2,-0.98,0.06,-2.13,0.28,1.12,311.0,1.0,1.0,0.0,50.0
10400,1,walk,walk,7307,,7307.0,20.0,0.0,0.0,1.0,-12.81,-0.369,-0.019,0.0,28.0,26.49,0.0,0.0,9.0,0.0,0.0,-11.76,-0.2,-0.98,0.06,-2.14,0.12,1.12,311.0,1.0,1.0,0.0,50.0
10400,1,walk,walk,7308,,7308.0,20.0,0.0,0.0,1.0,-12.81,-0.37,-0.057,0.0,28.0,26.49,0.0,0.0,9.0,0.0,0.0,-11.77,-0.2,-0.98,0.06,-2.15,-0.05,1.11,311.0,1.0,1.0,0.0,50.0
10440,1,walk,walk,7309,,7309.0,20.0,0.0,0.0,1.0,-12.81,-0.37,0.053,0.0,28.0,26.49,0.0,0.0,9.0,0.0,0.0,-11.78,-0.2,-0.98,0.06,-2.15,-0.21,1.09,311.0,1.0,1.0,0.0,50.0
10440,1,walk,walk,7310,,7310.0,20.0,0.0,0.0,1.0,-12.81,-0.37,-0.003,0.0,28.0,26.49,0.0,0.0,9.0,0.0,0.0,-11.76,-0.2,-0.98,0.06,-2.15,-0.37,1.07,311.0,1.0,1.0,0.0,50.0
10440,1,walk,walk,7311,,7311.0,20.0,0.0,0.0,1.0,-12.81,-0.37,-0.054,0.0,28.0,26.49,0.0,0.0,9.0,0.0,0.0,-11.74,-0.2,-0.98,0.06,-2.15,-0.52,1.03,311.0,1.0,1.0,0.0,50.0
10500,1,walk,walk,7312,,7312.0,20.0,0.0,0.0,1.0,-12.81,-0.37,-0.022,0.0,28.0,26.49,0.0,0.0,9.0,0.0,0.0,-11.71,-0.2,-0.98,0.06,-2.15,-0.63,0.99,311.0,1.0,1.0,0.0,50.0
10500,1,walk,walk,7313,,7313.0,20.0,0.0,0.0,1.0,-12.8,-0.37,0.032,0.0,28.0,26.49,0.0,0.0,9.0,0.0,0.0,-11.67,-0.2,-0.98,0.06,-2.15,-0.72,0.95,311.0,1.0,1.0,0.0,50.0
10540,1,walk,walk,7314,,7314.0,20.0,0.0,0.0,1.0,-12.8,-0.37,-0.046,0.0,28.0,26.49,0.0,0.0,9.0,0.0,0.0,-11.63,-0.2,-0.98,0.06,-2.13,-0.77,0.91,311.0,1.0,1.0,0.0,50.0
10540,1,walk,walk,7315,,7315.0,20.0,0.0,0.0,1.0,-12.8,-0.37,0.042,0.0,28.0,26.49,0.0,0.0,9.0,0.0,0.0,-11.6,-0.2,-0.98,0.06,-2.12,-0.8,0.87,311.0,1.0,1.0,0.0,50.0
10600,1,walk,walk,7316,,7316.0,20.0,0.0,0.0,1.0,-12.8,-0.37,0.005,0.0,28.0,26.49,0.0,0.0,9.0,0.0,0.0,-11.58,-0.2,-0.98,0.06,-2.1,-0.81,0.83,311.0,1.0,1.0,0.0,50.0
10600,1,walk,walk,7317,,7317.0,20.0,0.0,0.0,1.0,-12.8,-0.37,0.053,0.0,28.0,26.49,0.0,0.0,9.0,0.0,0.0,-11.57,-0.2,-0.98,0.06,-2.07,-0.81,0.8,311.0,1.0,1.0,0.0,50.0
10600,1,walk,walk,7318,,7318.0,20.0,0.0,0.0,1.0,-12.8,-0.37,-0.003,0.0,28.0,26.49,0.0,0.0,9.0,0.0,0.0,-11.57,-0.2,-0.98,0.06,-2.05,-0.82,0.77,311.0,1.0,1.0,0.0,50.0
10640,1,walk,walk,7319,,7319.0,20.0,0.0,0.0,1.0,-12.8,-0.37,-0.049,0.0,28.0,26.49,0.0,0.0,9.0,0.0,0.0,-11.57,-0.2,-0.98,0.06,-2.03,-0.82,0.75,311.0,1.0,1.0,0.0,50.0
10640,1,walk,walk,7320,,7320.0,20.0,0.0,0.0,1.0,-12.79,-0.37,0.023,0.0,28.0,26.49,0.0,0.0,9.0,0.0,0.0,-11.57,-0.2,-0.98,0.06,-2.0,-0.82,0.73,311.0,1.0,1.0,0.0,50.0
10660,1,walk,walk,7321,,7321.0,20.0,0.0,0.0,1.0,-12.79,-0.37,-0.069,0.0,28.0,26.49,0.0,0.0,9.0,0.0,0.0,-11.58,-0.2,-0.98,0.06,-1.97,-0.83,0.71,311.0,1.0,1.0,0.0,50.0
10700,1,walk,walk,7322,,7322.0,20.0,0.0,0.0,1.0,-12.79,-0.37,0.048,0.0,28.0,26.49,0.0,0.0,9.0,0.0,0.0,-11.58,-0.2,-0.98,0.06,-1.93,-0.85,0.69,311.0,1.0,1.0,0.0,50.0
10700,1,walk,walk,7323,,7323.0,20.0,0.0,0.0,1.0,-12.78,-0.37,-0.032,0.0,28.0,26.49,0.0,0.0,9.0,0.0,0.0,-11.57,-0.2,-0.98,0.06,-1.89,-0.86,0.67,311.0,1.0,1.0,0.0,50.0
10740,1,walk,walk,7324,,7324.0,20.0,0.0,0.0,1.0,-12.78,-0.37,0.054,0.0,28.0,26.49,0.0,0.0,9.0,0.0,0.0,-11.57,-0.2,-0.98,0.06,-1.85,-0.86,0.66,311.0,1.0,1.0,0.0,50.0
10740,1,walk,walk,7325,,7325.0,20.0,0.0,0.0,1.0,-12.77,-0.37,0.023,0.0,28.0,26.49,0.0,0.0,9.0,0.0,0.0,-11.56,-0.2,-0.98,0.06,-1.81,-0.86,0.65,311.0,1.0,1.0,0.0,50.0
10740,1,walk,walk,7326,,7326.0,20.0,0.0,0.0,1.0,-12.77,-0.37,0.037,0.0,28.0,26.49,0.0,0.0,9.0,0.0,0.0,-11.54,-0.2,-0.98,0.06,-1.76,-0.86,0.64,311.0,1.0,1.0,0.0,50.0
10800,1,walk,walk,7327,,7327.0,20.0,0.0,0.0,1.0,-12.76,-0.371,0.069,0.0,28.0,26.46,0.0,0.0,9.0,0.0,0.0,-11.53,-0.2,-0.98,0.06,-1.72,-0.85,0.65,311.0,1.0,1.0,0.0,50.0
10800,1,walk,walk,7328,,7328.0,20.0,0.0,0.0,1.0,-12.75,-0.371,0.017,0.0,28.0,26.49,0.0,0.0,9.0,0.0,0.0,-11.52,-0.2,-0.98,0.06,-1.67,-0.84,0.66,311.0,1.0,1.0,0.0,50.0
10800,1,walk,walk,7329,,7329.0,20.0,0.0,0.0,1.0,-12.74,-0.371,-0.089,0.0,28.0,26.49,0.0,0.0,9.0,0.0,0.0,-11.51,-0.2,-0.98,0.06,-1.62,-0.84,0.68,311.0,1.0,1.0,0.0,50.0
10840,1,walk,walk,7330,,7330.0,20.0,0.0,0.0,1.0,-12.74,-0.372,0.001,0.0,28.0,26.49,0.0,0.0,9.0,0.0,0.0,-11.5,-0.2,-0.98,0.06,-1.57,-0.84,0.71,311.0,1.0,1.0,0.0,50.0
10840,1,walk,walk,7331,,7331.0,20.0,0.0,0.0,1.0,-12.73,-0.372,0.029,0.0,28.0,26.49,0.0,0.0,9.0,0.0,0.0,-11.49,-0.2,-0.98,0.06,-1.53,-0.83,0.75,311.0,1.0,1.0,0.0,50.0
10900,1,walk,walk,7332,,7332.0,20.0,0.0,0.0,1.0,-12.72,-0.372,-0.089,0.0,28.0,26.49,0.0,0.0,9.0,0.0,0.0,-11.47,-0.2,-0.98,0.06,-1.49,-0.82,0.8,311.0,1.0,1.0,0.0,50.0
10940,1,walk,walk,7333,,7333.0,20.0,0.0,0.0,1.0,-12.71,-0.372,0.003,0.0,28.0,26.49,0.0,0.0,9.0,0.0,0.0,-11.45,-0.2,-0.98,0.06,-1.46,-0.8,0.85,311.0,1.0,1.0,0.0,50.0
10940,1,walk,walk,7334,,7334.0,20.0,0.0,0.0,1.0,-12.7,-0.372,-0.07,0.0,28.0,26.49,0.0,0.0,9.0,0.0,0.0,-11.42,-0.2,-0.98,0.06,-1.43,-0.76,0.9,311.0,1.0,1.0,0.0,50.0
10940,1,walk,walk,7335,,7335.0,20.0,0.0,0.0,1.0,-12.69,-0.372,-0.037,0.0,28.0,26.49,0.0,0.0,9.0,0.0,0.0,-11.39,-0.2,-0.98,0.06,-1.4,-0.72,0.94,311.0,1.0,1.0,0.0,50.0
10960,1,walk,walk,7336,,7336.0,20.0,0.0,0.0,1.0,-12.69,-0.372,0.041,0.0,28.0,26.49,0.0,0.0,9.0,0.0,0.0,-11.36,-0.2,-0.98,0.06,-1.37,-0.66,0.98,311.0,1.0,1.0,0.0,50.0
11000,1,walk,walk,7337,,7337.0,20.0,0.0,0.0,1.0,-12.68,-0.372,0.011,0.0,28.0,26.49,0.0,0.0,9.0,0.0,0.0,-11.33,-0.2,-0.98,0.06,-1.35,-0.6,1.01,311.0,1.0,1.0,0.0,50.0
11000,1,walk,walk,7338,,7338.0,20.0,0.0,0.0,1.0,-12.67,-0.372,-0.023,0.0,28.0,26.49,0.0,0.0,9.0,0.0,0.0,-11.3,-0.2,-0.98,0.06,-1.32,-0.54,1.03,311.0,1.0,1.0,0.0,50.0
11040,1,walk,walk,7339,,7339.0,20.0,0.0,0.0,1.0,-12.66,-0.372,0.036,0.0,28.0,26.49,0.0,0.0,9.0,0.0,0.0,-11.29,-0.2,-0.98,0.06,-1.31,-0.49,1.04,311.0,1.0,1.0,0.0,50.0
11040,1,walk,walk,7340,,7340.0,20.0,0.0,0.0,1.0,-12.65,-0.372,-0.015,0.0,28.0,26.49,0.0,0.0,9.0,0.0,0.0,-11.28,-0.2,-0.98,0.06,-1.29,-0.44,1.05,311.0,1.0,1.0,0.0,50.0
11040,1,walk,walk,7341,,7341.0,20.0,0.0,0.0,1.0,-12.64,-0.372,-0.062,0.0,28.0,26.49,0.0,0.0,9.0,0.0,0.0,-11.27,-0.2,-0.98,0.06,-1.28,-0.4,1.06,311.0,1.0,1.0,0.0,50.0
11100,1,walk,walk,7342,,7342.0,20.0,0.0,0.0,1.0,-12.64,-0.372,0.034,0.0,28.0,26.49,0.0,0.0,9.0,0.0,0.0,-11.27,-0.2,-0.98,0.06,-1.28,-0.35,1.06,311.0,1.0,1.0,0.0,50.0
11100,1,walk,walk,7343,,7343.0,20.0,0.0,0.0,1.0,-12.63,-0.372,-0.01,0.0,28.0,26.49,0.0,0.0,9.0,0.0,0.0,-11.28,-0.2,-0.98,0.06,-1.28,-0.31,1.06,311.0,1.0,1.0,0.0,50.0
11100,1,walk,walk,7344,,7344.0,20.0,0.0,0.0,1.0,-12.62,-0.372,0.054,0.0,28.0,26.49,0.0,0.0,9.0,0.0,0.0,-11.29,-0.2,-0.98,0.06,-1.28,-0.25,1.07,311.0,1.0,1.0,0.0,50.0
11140,1,walk,walk,7345,,7345.0,20.0,0.0,0.0,1.0,-12.62,-0.372,0.006,0.0,28.0,26.49,0.0,0.0,9.0,0.0,0.0,-11.3,-0.2,-0.98,0.06,-1.29,-0.21,1.08,311.0,1.0,1.0,0.0,50.0
11140,1,walk,walk,7346,,7346.0,20.0,0.0,0.0,1.0,-12.61,-0.372,0.042,0.0,28.0,26.49,0.0,0.0,9.0,0.0,0.0,-11.33,-0.2,-0.98,0.06,-1.3,-0.17,1.1,311.0,1.0,1.0,0.0,50.0
11200,1,walk,walk,7347,,7347.0,20.0,0.0,0.0,1.0,-12.6,-0.372,-0.062,0.0,28.0,26.49,0.0,0.0,9.0,0.0,0.0,-11.36,-0.2,-0.98,0.06,-1.33,-0.14,1.11,311.0,1.0,1.0,0.0,50.0
11200,1,walk,walk,7348,,7348.0,20.0,0.0,0.0,1.0,-12.6,-0.372,-0.028,0.0,28.0,26.49,0.0,0.0,9.0,0.0,0.0,-11.39,-0.2,-0.98,0.06,-1.35,-0.11,1.12,311.0,1.0,1.0,0.0,50.0
11240,1,walk,walk,7349,,7349.0,20.0,0.0,0.0,1.0,-12.59,-0.372,0.096,0.0,28.0,26.49,0.0,0.0,9.0,0.0,0.0,-11.42,-0.2,-0.98,0.06,-1.38,-0.09,1.13,311.0,1.0,1.0,0.0,50.0
11240,1,walk,walk,7350,,7350.0,20.0,0.0,0.0,1.0,-12.59,-0.372,0.007,0.0,28.0,26.49,0.0,0.0,9.0,0.0,0.0,-11.45,-0.2,-0.98,0.06,-1.4,-0.08,1.14,311.0,1.0,1.0,0.0,50.0
11260,1,walk,walk,7351,,7351.0,20.0,0.0,0.0,1.0,-12.58,-0.372,-0.011,0.0,28.0,26.49,0.0,0.0,9.0,0.0,0.0,-11.47,-0.2,-0.98,0.06,-1.43,-0.07,1.15,311.0,1.0,1.0,0.0,50.0
11300,1,walk,walk,7352,,7352.0,20.0,0.0,0.0,1.0,-12.58,-0.372,0.01,0.0,28.0,26.46,0.0,0.0,9.0,0.0,0.0,-11.49,-0.2,-0.98,0.06,-1.45,-0.05,1.15,311.0,1.0,1.0,0.0,50.0
11300,1,walk,walk,7353,,7353.0,20.0,0.0,0.0,1.0,-12.57,-0.372,0.013,0.0,28.0,26.49,0.0,0.0,9.0,0.0,0.0,-11.51,-0.2,-0.98,0.06,-1.47,-0.04,1.15,311.0,1.0,1.0,0.0,50.0
11340,1,walk,walk,7354,,7354.0,20.0,0.0,0.0,1.0,-12.57,-0.372,-0.011,0.0,28.0,26.49,0.0,0.0,9.0,0.0,0.0,-11.52,-0.2,-0.98,0.06,-1.49,-0.03,1.15,311.0,1.0,1.0,0.0,50.0
11340,1,walk,walk,7355,,7355.0,20.0,0.0,0.0,1.0,-12.57,-0.372,-0.021,0.0,28.0,26.49,0.0,0.0,9.0,0.0,0.0,-11.53,-0.2,-0.98,0.06,-1.5,-0.01,1.15,311.0,1.0,1.0,0.0,50.0
11340,1,walk,walk,7356,,7356.0,20.0,0.0,0.0,1.0,-12.56,-0.372,-0.061,0.0,28.0,26.46,0.0,0.0,9.0,0.0,0.0,-11.53,-0.2,-0.98,0.06,-1.52,0.0,1.15,311.0,1.0,1.0,0.0,50.0
11400,1,walk,walk,7357,,7357.0,20.0,0.0,0.0,1.0,-12.56,-0.372,-0.007,0.0,28.0,26.49,0.0,0.0,9.0,0.0,0.0,-11.54,-0.2,-0.98,0.06,-1.53,0.02,1.14,311.0,1.0,1.0,0.0,50.0
11400,1,walk,walk,7358,,7358.0,20.0,0.0,0.0,1.0,-12.56,-0.372,0.028,0.0,28.0,26.49,0.0,0.0,9.0,0.0,0.0,-11.54,-0.2,-0.98,0.06,-1.54,0.04,1.13,311.0,1.0,1.0,0.0,50.0
11400,1,walk,walk,7359,,7359.0,20.0,0.0,0.0,1.0,-12.56,-0.372,0.023,0.0,28.0,26.49,0.0,0.0,9.0,0.0,0.0,-11.55,-0.2,-0.98,0.06,-1.55,0.05,1.12,311.0,1.0,1.0,0.0,50.0
11440,1,walk,walk,7360,,7360.0,20.0,0.0,0.0,1.0,-12.56,-0.372,-0.023,0.0,28.0,26.49,0.0,0.0,9.0,0.0,0.0,-11.55,-0.2,-0.98,0.06,-1.56,0.07,1.1,311.0,1.0,1.0,0.0,50.0
11440,1,walk,walk,7361,,7361.0,20.0,0.0,0.0,1.0,-12.56,-0.372,-0.046,0.0,28.0,26.49,0.0,0.0,9.0,0.0,0.0,-11.55,-0.2,-0.98,0.06,-1.57,0.08,1.08,311.0,1.0,1.0,0.0,50.0
11500,1,walk,walk,7362,,7362.0,20.0,0.0,0.0,1.0,-12.56,-0.372,-0.033,0.0,28.0,26.49,0.0,0.0,9.0,0.0,0.0,-11.56,-0.2,-0.98,0.06,-1.58,0.1,1.06,311.0,1.0,1.0,0.0,50.0
11500,1,walk,walk,7363,,7363.0,20.0,0.0,0.0,1.0,-12.56,-0.372,-0.001,0.0,28.0,26.49,0.0,0.0,9.0,0.0,0.0,-11.56,-0.2,-0.98,0.06,-1.59,0.11,1.05,311.0,1.0,1.0,0.0,50.0
11540,1,walk,walk,7364,,7364.0,20.0,0.0,0.0,1.0,-12.56,-0.372,-0.069,0.0,28.0,26.49,0.0,0.0,9.0,0.0,0.0,-11.57,-0.2,-0.98,0.06,-1.6,0.12,1.03,311.0,1.0,1.0,0.0,50.0
11540,1,walk,walk,7365,,7365.0,20.0,0.0,0.0,1.0,-12.56,-0.372,0.075,0.0,28.0,26.49,0.0,0.0,9.0,0.0,0.0,-11.57,-0.2,-0.98,0.06,-1.62,0.11,1.02,311.0,1.0,1.0,0.0,50.0
11560,1,walk,walk,7366,,7366.0,20.0,0.0,0.0,1.0,-12.56,-0.372,-0.002,0.0,28.0,26.49,0.0,0.0,9.0,0.0,0.0,-11.58,-0.2,-0.98,0.06,-1.64,0.11,1.01,311.0,1.0,1.0,0.0,50.0
11600,1,walk,walk,7367,,7367.0,20.0,0.0,0.0,1.0,-12.56,-0.372,0.046,0.0,28.0,26.49,0.0,0.0,9.0,0.0,0.0,-11.58,-0.2,-0.98,0.06,-1.66,0.09,1.0,311.0,1.0,1.0,0.0,50.0
11600,1,walk,walk,7368,,7368.0,20.0,0.0,0.0,1.0,-12.56,-0.372,0.006,0.0,28.0,26.49,0.0,0.0,9.0,0.0,0.0,-11.58,-0.2,-0.98,0.06,-1.67,0.07,0.99,311.0,1.0,1.0,0.0,50.0
11640,1,walk,walk,7369,,7369.0,20.0,0.0,0.0,1.0,-12.56,-0.372,-0.05,0.0,28.0,26.49,0.0,0.0,9.0,0.0,0.0,-11.57,-0.2,-0.98,0.06,-1.69,0.04,0.99,311.0,1.0,1.0,0.0,50.0
11640,1,walk,walk,7370,,7370.0,20.0,0.0,0.0,1.0,-12.56,-0.372,-0.048,0.0,28.0,26.49,0.0,0.0,9.0,0.0,0.0,-11.56,-0.2,-0.98,0.06,-1.7,0.01,0.98,311.0,1.0,1.0,0.0,50.0
11700,1,walk,walk,7371,,7371.0,20.0,0.0,0.0,1.0,-12.56,-0.372,0.005,0.0,28.0,26.49,0.0,0.0,9.0,0.0,0.0,-11.54,-0.2,-0.98,0.06,-1.7,-0.01,0.98,311.0,1.0,1.0,0.0,50.0
11700,1,walk,walk,7372,,7372.0,20.0,0.0,0.0,1.0,-12.56,-0.372,-0.01,0.0,28.0,26.49,0.0,0.0,9.0,0.0,0.0,-11.53,-0.2,-0.98,0.06,-1.71,-0.03,0.99,311.0,1.0,1.0,0.0,50.0
11700,1,walk,walk,7373,,7373.0,20.0,0.0,0.0,1.0,-12.56,-0.372,-0.046,0.0,28.0,26.49,0.0,0.0,9.0,0.0,0.0,-11.51,-0.2,-0.98,0.06,-1.72,-0.03,1.0,311.0,1.0,1.0,0.0,50.0
11700,1,walk,walk,7374,,7374.0,20.0,0.0,0.0,1.0,-12.56,-0.372,-0.002,0.0,28.0,26.49,0.0,0.0,9.0,0.0,0.0,-11.5,-0.2,-0.98,0.06,-1.73,-0.04,1.01,311.0,1.0,1.0,0.0,50.0
11740,1,walk,walk,7375,,7375.0,20.0,0.0,0.0,1.0,-12.56,-0.372,0.042,0.0,28.0,26.49,0.0,0.0,9.0,0.0,0.0,-11.49,-0.2,-0.98,0.06,-1.73,-0.06,1.02,311.0,1.0,1.0,0.0,50.0
11740,1,walk,walk,7376,,7376.0,20.0,0.0,0.0,1.0,-12.56,-0.372,-0.028,0.0,28.0,26.49,0.0,0.0,9.0,0.0,0.0,-11.49,-0.2,-0.98,0.06,-1.73,-0.07,1.04,311.0,1.0,1.0,0.0,50.0
11800,1,walk,walk,7377,,7377.0,20.0,0.0,0.0,1.0,-12.56,-0.372,0.017,0.0,28.0,26.49,0.0,0.0,9.0,0.0,0.0,-11.49,-0.2,-0.98,0.06,-1.73,-0.09,1.05,311.0,1.0,1.0,0.0,50.0
11800,1,walk,walk,7378,,7378.0,20.0,0.0,0.0,1.0,-12.56,-0.372,0.002,0.0,28.0,26.49,0.0,0.0,9.0,0.0,0.0,-11.48,-0.2,-0.98,0.06,-1.72,-0.11,1.06,311.0,1.0,1.0,0.0,50.0
11840,1,walk,walk,7379,,7379.0,20.0,0.0,0.0,1.0,-12.56,-0.372,0.048,0.0,28.0,26.46,0.0,0.0,9.0,0.0,0.0,-11.48,-0.2,-0.98,0.06,-1.71,-0.13,1.08,311.0,1.0,1.0,0.0,50.0
11840,1,walk,walk,7380,,7380.0,20.0,0.0,0.0,1.0,-12.56,-0.372,0.062,0.0,28.0,26.49,0.0,0.0,9.0,0.0,0.0,-11.48,-0.2,-0.98,0.06,-1.7,-0.14,1.09,311.0,1.0,1.0,0.0,50.0
11900,1,walk,walk,7381,,7381.0,20.0,0.0,0.0,1.0,-12.56,-0.372,-0.018,0.0,28.0,26.49,0.0,0.0,9.0,0.0,0.0,-11.49,-0.2,-0.98,0.06,-1.68,-0.15,1.1,311.0,1.0,1.0,0.0,50.0
11900,1,walk,walk,7382,,7382.0,20.0,0.0,0.0,1.0,-12.56,-0.372,0.064,0.0,28.0,26.49,0.0,0.0,9.0,0.0,0.0,-11.49,-0.2,-0.98,0.06,-1.67,-0.16,1.11,311.0,1.0,1.0,0.0,50.0
11900,1,walk,walk,7383,,7383.0,20.0,0.0,0.0,1.0,-12.56,-0.372,0.033,0.0,28.0,26.49,0.0,0.0,9.0,0.0,0.0,-11.5,-0.2,-0.98,0.06,-1.66,-0.17,1.12,311.0,1.0,1.0,0.0,50.0
11940,1,walk,walk,7384,,7384.0,20.0,0.0,0.0,1.0,-12.56,-0.371,0.084,0.0,28.0,26.49,0.0,0.0,9.0,0.0,0.0,-11.5,-0.2,-0.98,0.06,-1.64,-0.17,1.13,311.0,1.0,1.0,0.0,50.0
11940,1,walk,walk,7385,,7385.0,20.0,0.0,0.0,1.0,-12.56,-0.372,-0.056,0.0,28.0,26.49,0.0,0.0,9.0,0.0,0.0,-11.51,-0.2,-0.98,0.06,-1.63,-0.17,1.15,311.0,1.0,1.0,0.0,50.0
11940,1,walk,walk,7386,,7386.0,20.0,0.0,0.0,1.0,-12.56,-0.372,-0.061,0.0,28.0,26.49,0.0,0.0,9.0,0.0,0.0,-11.51,-0.2,-0.98,0.06,-1.62,-0.16,1.16,311.0,1.0,1.0,0.0,50.0
12000,1,walk,walk,7387,,7387.0,20.0,0.0,0.0,1.0,-12.56,-0.371,0.103,0.0,28.0,26.49,0.0,0.0,9.0,0.0,0.0,-11.52,-0.2,-0.98,0.06,-1.62,-0.15,1.18,311.0,1.0,1.0,0.0,50.0
12000,1,walk,walk,7388,,7388.0,20.0,0.0,0.0,1.0,-12.56,-0.372,-0.104,0.0,28.0,26.49,0.0,0.0,9.0,0.0,0.0,-11.52,-0.2,-0.98,0.06,-1.61,-0.14,1.19,311.0,1.0,1.0,0.0,50.0
12000,1,walk,walk,7389,,7389.0,20.0,0.0,0.0,1.0,-12.56,-0.372,-0.005,0.0,28.0,26.49,0.0,0.0,9.0,0.0,0.0,-11.52,-0.2,-0.98,0.06,-1.61,-0.13,1.2,311.0,1.0,1.0,0.0,50.0
12040,1,walk,walk,7390,,7390.0,20.0,0.0,0.0,1.0,-12.56,-0.372,-0.052,0.0,28.0,26.49,0.0,0.0,9.0,0.0,0.0,-11.51,-0.2,-0.98,0.06,-1.6,-0.12,1.21,311.0,1.0,1.0,0.0,50.0
12040,1,walk,walk,7391,,7391.0,20.0,0.0,0.0,1.0,-12.56,-0.372,-0.01,0.0,28.0,26.49,0.0,0.0,9.0,0.0,0.0,-11.51,-0.2,-0.98,0.06,-1.59,-0.11,1.22,311.0,1.0,1.0,0.0,50.0
12100,1,walk,walk,7392,,7392.0,20.0,0.0,0.0,1.0,-12.56,-0.372,0.037,0.0,28.0,26.49,0.0,0.0,9.0,0.0,0.0,-11.51,-0.2,-0.98,0.06,-1.58,-0.09,1.22,311.0,1.0,1.0,0.0,50.0
12100,1,walk,walk,7393,,7393.0,20.0,0.0,0.0,1.0,-12.56,-0.372,-0.017,0.0,28.0,26.49,0.0,0.0,9.0,0.0,0.0,-11.51,-0.2,-0.98,0.06,-1.57,-0.08,1.23,311.0,1.0,1.0,0.0,50.0
12140,1,walk,walk,7394,,7394.0,20.0,0.0,0.0,1.0,-12.56,-0.371,0.052,0.0,28.0,26.49,0.0,0.0,9.0,0.0,0.0,-11.51,-0.2,-0.98,0.06,-1.56,-0.07,1.24,311.0,1.0,1.0,0.0,50.0
12140,1,walk,walk,7395,,7395.0,20.0,0.0,0.0,1.0,-12.56,-0.372,-0.081,0.0,28.0,26.49,0.0,0.0,9.0,0.0,0.0,-11.51,-0.2,-0.98,0.06,-1.55,-0.06,1.24,311.0,1.0,1.0,0.0,50.0
12160,1,walk,walk,7396,,7396.0,20.0,0.0,0.0,1.0,-12.56,-0.371,0.033,0.0,28.0,26.49,0.0,0.0,9.0,0.0,0.0,-11.52,-0.2,-0.98,0.06,-1.54,-0.05,1.25,311.0,1.0,1.0,0.0,50.0
12200,1,walk,walk,7397,,7397.0,20.0,0.0,0.0,1.0,-12.57,-0.371,0.045,0.0,28.0,26.49,0.0,0.0,9.0,0.0,0.0,-11.52,-0.2,-0.98,0.06,-1.54,-0.05,1.25,311.0,1.0,1.0,0.0,50.0
12200,1,walk,walk,7398,,7398.0,20.0,0.0,0.0,1.0,-12.57,-0.371,0.013,0.0,28.0,26.49,0.0,0.0,9.0,0.0,0.0,-11.53,-0.2,-0.98,0.06,-1.54,-0.05,1.25,311.0,1.0,1.0,0.0,50.0
12240,1,walk,walk,7399,,7399.0,20.0,0.0,0.0,1.0,-12.57,-0.371,-0.033,0.0,28.0,26.49,0.0,0.0,9.0,0.0,0.0,-11.53,-0.2,-0.98,0.06,-1.55,-0.05,1.26,311.0,1.0,1.0,0.0,50.0
12240,1,walk,walk,7400,,7400.0,20.0,0.0,0.0,1.0,-12.57,-0.371,0.046,0.0,28.0,26.49,0.0,0.0,9.0,0.0,0.0,-11.53,-0.2,-0.98,0.06,-1.55,-0.05,1.26,311.0,1.0,1.0,0.0,50.0
12240,1,walk,walk,7401,,7401.0,20.0,0.0,0.0,1.0,-12.57,-0.371,0.023,0.0,28.0,26.49,0.0,0.0,9.0,0.0,0.0,-11.53,-0.2,-0.98,0.06,-1.55,-0.04,1.26,311.0,1.0,1.0,0.0,50.0
12300,1,walk,walk,7402,,7402.0,20.0,0.0,0.0,1.0,-12.58,-0.371,-0.083,0.0,28.0,26.49,0.0,0.0,9.0,0.0,0.0,-11.53,-0.2,-0.98,0.06,-1.55,-0.02,1.26,311.0,1.0,1.0,0.0,50.0
12300,1,walk,walk,7403,,7403.0,20.0,0.0,0.0,1.0,-12.58,-0.371,0.06,0.0,28.0,26.49,0.0,0.0,9.0,0.0,0.0,-11.53,-0.2,-0.98,0.06,-1.54,0.0,1.26,311.0,1.0,1.0,0.0,50.0
12300,1,walk,walk,7404,,7404.0,20.0,0.0,0.0,1.0,-12.58,-0.371,-0.005,0.0,28.0,26.49,0.0,0.0,9.0,0.0,0.0,-11.53,-0.2,-0.98,0.06,-1.54,0.02,1.25,311.0,1.0,1.0,0.0,50.0
12340,1,walk,walk,7405,,7405.0,20.0,0.0,0.0,1.0,-12.59,-0.371,0.033,0.0,28.0,26.49,0.0,0.0,9.0,0.0,0.0,-11.53,-0.2,-0.98,0.06,-1.53,0.04,1.25,311.0,1.0,1.0,0.0,50.0
12340,1,walk,walk,7406,,7406.0,20.0,0.0,0.0,1.0,-12.59,-0.371,-0.023,0.0,28.0,26.49,0.0,0.0,9.0,0.0,0.0,-11.55,-0.2,-0.98,0.06,-1.53,0.07,1.25,311.0,1.0,1.0,0.0,50.0
12400,1,walk,walk,7407,,7407.0,20.0,0.0,0.0,1.0,-12.59,-0.371,-0.036,0.0,28.0,26.49,0.0,0.0,9.0,0.0,0.0,-11.56,-0.2,-0.98,0.06,-1.52,0.09,1.24,311.0,1.0,1.0,0.0,50.0
12400,1,walk,walk,7408,,7408.0,20.0,0.0,0.0,1.0,-12.59,-0.372,-0.116,0.0,28.0,26.49,0.0,0.0,9.0,0.0,0.0,-11.58,-0.2,-0.98,0.06,-1.52,0.11,1.24,311.0,1.0,1.0,0.0,50.0
12440,1,walk,walk,7409,,7409.0,20.0,0.0,0.0,1.0,-12.6,-0.371,0.036,0.0,28.0,26.49,0.0,0.0,9.0,0.0,0.0,-11.59,-0.2,-0.98,0.06,-1.51,0.11,1.24,311.0,1.0,1.0,0.0,50.0
12440,1,walk,walk,7410,,7410.0,20.0,0.0,0.0,1.0,-12.6,-0.371,0.002,0.0,28.0,26.49,0.0,0.0,9.0,0.0,0.0,-11.61,-0.2,-0.98,0.06,-1.5,0.11,1.24,311.0,1.0,1.0,0.0,50.0
12460,1,walk,walk,7411,,7411.0,20.0,0.0,0.0,1.0,-12.6,-0.371,-0.025,0.0,28.0,26.49,0.0,0.0,9.0,0.0,0.0,-11.62,-0.2,-0.98,0.06,-1.49,0.1,1.24,311.0,1.0,1.0,0.0,50.0
12500,1,walk,walk,7412,,7412.0,20.0,0.0,0.0,1.0,-12.61,-0.371,0.003,0.0,28.0,26.49,0.0,0.0,9.0,0.0,0.0,-11.63,-0.2,-0.98,0.06,-1.48,0.1,1.23,311.0,1.0,1.0,0.0,50.0
12500,1,walk,walk,7413,,7413.0,20.0,0.0,0.0,1.0,-12.61,-0.371,-0.069,0.0,28.0,26.49,0.0,0.0,9.0,0.0,0.0,-11.63,-0.2,-0.98,0.06,-1.47,0.09,1.22,311.0,1.0,1.0,0.0,50.0
12540,1,walk,walk,7414,,7414.0,20.0,0.0,0.0,1.0,-12.61,-0.371,0.021,0.0,28.0,26.49,0.0,0.0,9.0,0.0,0.0,-11.63,-0.2,-0.98,0.06,-1.46,0.1,1.21,311.0,1.0,1.0,0.0,50.0
12540,1,walk,walk,7415,,7415.0,20.0,0.0,0.0,1.0,-12.62,-0.371,-0.03,0.0,28.0,26.49,0.0,0.0,9.0,0.0,0.0,-11.63,-0.2,-0.98,0.06,-1.46,0.1,1.2,311.0,1.0,1.0,0.0,50.0
12540,1,walk,walk,7416,,7416.0,20.0,0.0,0.0,1.0,-12.62,-0.371,-0.033,0.0,28.0,26.49,0.0,0.0,9.0,0.0,0.0,-11.63,-0.2,-0.98,0.06,-1.46,0.11,1.19,311.0,1.0,1.0,0.0,50.0
12600,1,walk,walk,7417,,7417.0,20.0,0.0,0.0,1.0,-12.62,-0.371,0.066,0.0,28.0,26.49,0.0,0.0,9.0,0.0,0.0,-11.64,-0.2,-0.98,0.06,-1.46,0.12,1.19,311.0,1.0,1.0,0.0,50.0
12600,1,walk,walk,7418,,7418.0,20.0,0.0,0.0,1.0,-12.63,-0.371,-0.045,0.0,28.0,26.49,0.0,0.0,9.0,0.0,0.0,-11.65,-0.2,-0.98,0.06,-1.47,0.12,1.19,311.0,1.0,1.0,0.0,50.0
12600,1,walk,walk,7419,,7419.0,20.0,0.0,0.0,1.0,-12.63,-0.371,0.002,0.0,28.0,26.49,0.0,0.0,9.0,0.0,0.0,-11.66,-0.2,-0.98,0.06,-1.49,0.11,1.19,311.0,1.0,1.0,0.0,50.0
12640,1,walk,walk,7420,,7420.0,20.0,0.0,0.0,1.0,-12.63,-0.371,0.018,0.0,28.0,26.49,0.0,0.0,9.0,0.0,0.0,-11.67,-0.2,-0.98,0.06,-1.5,0.09,1.19,311.0,1.0,1.0,0.0,50.0
12640,1,walk,walk,7421,,7421.0,20.0,0.0,0.0,1.0,-12.64,-0.371,0.042,0.0,28.0,26.49,0.0,0.0,9.0,0.0,0.0,-11.67,-0.2,-0.98,0.06,-1.51,0.07,1.2,311.0,1.0,1.0,0.0,50.0
12700,1,walk,walk,7422,,7422.0,20.0,0.0,0.0,1.0,-12.64,-0.371,-0.065,0.0,28.0,26.49,0.0,0.0,9.0,0.0,0.0,-11.68,-0.2,-0.98,0.06,-1.53,0.05,1.21,311.0,1.0,1.0,0.0,50.0
12700,1,walk,walk,7423,,7423.0,20.0,0.0,0.0,1.0,-12.64,-0.371,-0.054,0.0,28.0,26.49,0.0,0.0,9.0,0.0,0.0,-11.68,-0.2,-0.98,0.06,-1.54,0.02,1.22,311.0,1.0,1.0,0.0,50.0
12740,1,walk,walk,7424,,7424.0,20.0,0.0,0.0,1.0,-12.65,-0.371,-0.058,0.0,28.0,26.49,0.0,0.0,9.0,0.0,0.0,-11.68,-0.2,-0.98,0.06,-1.56,0.0,1.24,311.0,1.0,1.0,0.0,50.0
12740,1,walk,walk,7425,,7425.0,20.0,0.0,0.0,1.0,-12.65,-0.371,0.037,0.0,28.0,26.49,0.0,0.0,9.0,0.0,0.0,-11.68,-0.2,-0.98,0.06,-1.57,-0.02,1.26,311.0,1.0,1.0,0.0,50.0
12760,1,walk,walk,7426,,7426.0,20.0,0.0,0.0,1.0,-12.65,-0.371,0.028,0.0,28.0,26.49,0.0,0.0,9.0,0.0,0.0,-11.67,-0.2,-0.98,0.06,-1.57,-0.03,1.27,311.0,1.0,1.0,0.0,50.0
12800,1,walk,walk,7427,,7427.0,20.0,0.0,0.0,1.0,-12.66,-0.371,-0.03,0.0,28.0,26.49,0.0,0.0,9.0,0.0,0.0,-11.67,-0.2,-0.98,0.06,-1.57,-0.05,1.28,311.0,1.0,1.0,0.0,50.0
12800,1,walk,walk,7428,,7428.0,20.0,0.0,0.0,1.0,-12.66,-0.371,-0.014,0.0,28.0,26.49,0.0,0.0,9.0,0.0,0.0,-11.67,-0.2,-0.98,0.06,-1.57,-0.07,1.29,311.0,1.0,1.0,0.0,50.0
12840,1,walk,walk,7429,,7429.0,20.0,0.0,0.0,1.0,-12.66,-0.371,0.049,0.0,28.0,26.49,0.0,0.0,9.0,0.0,0.0,-11.67,-0.2,-0.98,0.06,-1.56,-0.09,1.29,311.0,1.0,1.0,0.0,50.0
12840,1,walk,walk,7430,,7430.0,20.0,0.0,0.0,1.0,-12.67,-0.371,-0.017,0.0,28.0,26.49,0.0,0.0,9.0,0.0,0.0,-11.67,-0.2,-0.98,0.06,-1.56,-0.11,1.28,311.0,1.0,1.0,0.0,50.0
12840,1,walk,walk,7431,,7431.0,20.0,0.0,0.0,1.0,-12.67,-0.371,0.06,0.0,28.0,26.49,0.0,0.0,9.0,0.0,0.0,-11.67,-0.2,-0.98,0.06,-1.55,-0.13,1.27,311.0,1.0,1.0,0.0,50.0
12900,1,walk,walk,7432,,7432.0,20.0,0.0,0.0,1.0,-12.68,-0.371,0.017,0.0,28.0,26.49,0.0,0.0,9.0,0.0,0.0,-11.67,-0.2,-0.98,0.06,-1.54,-0.15,1.26,311.0,1.0,1.0,0.0,50.0
12900,1,walk,walk,7433,,7433.0,20.0,0.0,0.0,1.0,-12.68,-0.371,-0.042,0.0,28.0,26.49,0.0,0.0,9.0,0.0,0.0,-11.67,-0.2,-0.98,0.06,-1.54,-0.17,1.25,311.0,1.0,1.0,0.0,50.0
12900,1,walk,walk,7434,,7434.0,20.0,0.0,0.0,1.0,-12.68,-0.371,0.056,0.0,28.0,26.49,0.0,0.0,9.0,0.0,0.0,-11.67,-0.2,-0.98,0.06,-1.53,-0.18,1.25,311.0,1.0,1.0,0.0,50.0
12940,1,walk,walk,7435,,7435.0,20.0,0.0,0.0,1.0,-12.69,-0.371,-0.014,0.0,28.0,26.49,0.0,0.0,9.0,0.0,0.0,-11.67,-0.2,-0.98,0.06,-1.52,-0.19,1.24,311.0,1.0,1.0,0.0,50.0
12940,1,walk,walk,7436,,7436.0,20.0,0.0,0.0,1.0,-12.69,-0.371,-0.021,0.0,28.0,26.49,0.0,0.0,9.0,0.0,0.0,-11.68,-0.2,-0.98,0.06,-1.52,-0.19,1.23,311.0,1.0,1.0,0.0,50.0
13000,1,walk,walk,7437,,7437.0,20.0,0.0,0.0,1.0,-12.7,-0.371,0.037,0.0,28.0,26.49,0.0,0.0,9.0,0.0,0.0,-11.69,-0.2,-0.98,0.06,-1.52,-0.2,1.23,311.0,1.0,1.0,0.0,50.0
13000,1,walk,walk,7438,,7438.0,20.0,0.0,0.0,1.0,-12.7,-0.371,0.048,0.0,28.0,26.49,0.0,0.0,9.0,0.0,0.0,-11.69,-0.2,-0.98,0.06,-1.52,-0.21,1.23,311.0,1.0,1.0,0.0,50.0
13040,1,walk,walk,7439,,7439.0,20.0,0.0,0.0,1.0,-12.7,-0.371,0.003,0.0,28.0,26.49,0.0,0.0,9.0,0.0,0.0,-11.69,-0.2,-0.98,0.06,-1.52,-0.22,1.22,311.0,1.0,1.0,0.0,50.0
13040,1,walk,walk,7440,,7440.0,20.0,0.0,0.0,1.0,-12.71,-0.371,0.01,0.0,28.0,26.49,0.0,0.0,9.0,0.0,0.0,-11.69,-0.2,-0.98,0.06,-1.52,-0.23,1.22,311.0,1.0,1.0,0.0,50.0
13060,1,walk,walk,7441,,7441.0,20.0,0.0,0.0,1.0,-12.71,-0.371,0.081,0.0,28.0,26.49,0.0,0.0,9.0,0.0,0.0,-11.69,-0.2,-0.98,0.06,-1.52,-0.23,1.21,311.0,1.0,1.0,0.0,50.0
13100,1,walk,walk,7442,,7442.0,20.0,0.0,0.0,1.0,-12.71,-0.371,0.013,0.0,28.0,26.49,0.0,0.0,9.0,0.0,0.0,-11.69,-0.2,-0.98,0.06,-1.52,-0.22,1.21,311.0,1.0,1.0,0.0,50.0
13100,1,walk,walk,7443,,7443.0,20.0,0.0,0.0,1.0,-12.72,-0.371,-0.036,0.0,28.0,26.49,0.0,0.0,9.0,0.0,0.0,-11.69,-0.2,-0.98,0.06,-1.52,-0.21,1.2,311.0,1.0,1.0,0.0,50.0
13140,1,walk,walk,7444,,7444.0,20.0,0.0,0.0,1.0,-12.72,-0.371,-0.083,0.0,28.0,26.49,0.0,0.0,9.0,0.0,0.0,-11.69,-0.2,-0.98,0.06,-1.51,-0.19,1.2,311.0,1.0,1.0,0.0,50.0
13140,1,walk,walk,7445,,7445.0,20.0,0.0,0.0,1.0,-12.73,-0.371,0.025,0.0,28.0,26.49,0.0,0.0,9.0,0.0,0.0,-11.69,-0.2,-0.98,0.06,-1.51,-0.17,1.19,311.0,1.0,1.0,0.0,50.0
13200,1,walk,walk,7446,,7446.0,20.0,0.0,0.0,1.0,-12.73,-0.371,-0.002,0.0,28.0,26.49,0.0,0.0,9.0,0.0,0.0,-11.69,-0.2,-0.98,0.06,-1.51,-0.14,1.19,311.0,1.0,1.0,0.0,50.0
13200,1,walk,walk,7447,,7447.0,20.0,0.0,0.0,1.0,-12.73,-0.371,-0.07,0.0,28.0,26.49,0.0,0.0,9.0,0.0,0.0,-11.69,-0.2,-0.98,0.06,-1.51,-0.12,1.19,311.0,1.0,1.0,0.0,50.0
13200,1,walk,walk,7448,,7448.0,20.0,0.0,0.0,1.0,-12.74,-0.371,0.044,0.0,28.0,26.49,0.0,0.0,9.0,0.0,0.0,-11.69,-0.2,-0.98,0.06,-1.51,-0.1,1.18,311.0,1.0,1.0,0.0,50.0
13200,1,walk,walk,7449,,7449.0,20.0,0.0,0.0,1.0,-12.74,-0.371,0.084,0.0,28.0,26.49,0.0,0.0,9.0,0.0,0.0,-11.69,-0.2,-0.98,0.06,-1.51,-0.08,1.18,311.0,1.0,1.0,0.0,50.0
13240,1,walk,walk,7450,,7450.0,20.0,0.0,0.0,1.0,-12.74,-0.371,0.001,0.0,28.0,26.49,0.0,0.0,9.0,0.0,0.0,-11.68,-0.2,-0.98,0.06,-1.5,-0.06,1.18,311.0,1.0,1.0,0.0,50.0
13240,1,walk,walk,7451,,7451.0,20.0,0.0,0.0,1.0,-12.74,-0.371,0.056,0.0,28.0,26.49,0.0,0.0,9.0,0.0,0.0,-11.68,-0.2,-0.98,0.06,-1.49,-0.05,1.18,311.0,1.0,1.0,0.0,50.0
13300,1,walk,walk,7452,,7452.0,20.0,0.0,0.0,1.0,-12.75,-0.371,-0.046,0.0,28.0,26.49,0.0,0.0,9.0,0.0,0.0,-11.68,-0.2,-0.98,0.06,-1.48,-0.03,1.18,311.0,1.0,1.0,0.0,50.0
13300,1,walk,walk,7453,,7453.0,20.0,0.0,0.0,1.0,-12.75,-0.371,0.041,0.0,28.0,26.49,0.0,0.0,9.0,0.0,0.0,-11.68,-0.2,-0.98,0.06,-1.46,-0.01,1.18,311.0,1.0,1.0,0.0,50.0
13340,1,walk,walk,7454,,7454.0,20.0,0.0,0.0,1.0,-12.75,-0.371,-0.076,0.0,28.0,26.49,0.0,0.0,9.0,0.0,0.0,-11.69,-0.2,-0.98,0.06,-1.44,0.0,1.19,311.0,1.0,1.0,0.0,50.0
13340,1,walk,walk,7455,,7455.0,20.0,0.0,0.0,1.0,-12.75,-0.371,-0.052,0.0,28.0,26.49,0.0,0.0,9.0,0.0,0.0,-11.69,-0.2,-0.98,0.06,-1.43,0.02,1.19,311.0,1.0,1.0,0.0,50.0
13360,1,walk,walk,7456,,7456.0,20.0,0.0,0.0,1.0,-12.76,-0.371,-0.042,0.0,28.0,26.49,0.0,0.0,9.0,0.0,0.0,-11.7,-0.2,-0.98,0.06,-1.41,0.02,1.19,311.0,1.0,1.0,0.0,50.0
13400,1,walk,walk,7457,,7457.0,20.0,0.0,0.0,1.0,-12.76,-0.371,-0.041,0.0,28.0,26.49,0.0,0.0,9.0,0.0,0.0,-11.7,-0.2,-0.98,0.06,-1.4,0.03,1.18,311.0,1.0,1.0,0.0,50.0
13400,1,walk,walk,7458,,7458.0,20.0,0.0,0.0,1.0,-12.76,-0.371,0.077,0.0,28.0,26.46,0.0,0.0,9.0,0.0,0.0,-11.71,-0.2,-0.98,0.06,-1.39,0.03,1.18,311.0,1.0,1.0,0.0,50.0
13440,1,walk,walk,7459,,7459.0,20.0,0.0,0.0,1.0,-12.76,-0.371,-0.001,0.0,28.0,26.49,0.0,0.0,9.0,0.0,0.0,-11.72,-0.2,-0.98,0.06,-1.38,0.02,1.17,311.0,1.0,1.0,0.0,50.0
13440,1,walk,walk,7460,,7460.0,20.0,0.0,0.0,1.0,-12.76,-0.371,0.092,0.0,28.0,26.49,0.0,0.0,9.0,0.0,0.0,-11.72,-0.2,-0.98,0.06,-1.38,0.01,1.16,311.0,1.0,1.0,0.0,50.0
13440,1,walk,walk,7461,,7461.0,20.0,0.0,0.0,1.0,-12.76,-0.371,0.049,0.0,28.0,26.49,0.0,0.0,9.0,0.0,0.0,-11.72,-0.2,-0.98,0.06,-1.37,0.01,1.15,311.0,1.0,1.0,0.0,50.0
13500,1,walk,walk,7462,,7462.0,20.0,0.0,0.0,1.0,-12.77,-0.371,-0.042,0.0,28.0,26.49,0.0,0.0,9.0,0.0,0.0,-11.72,-0.2,-0.98,0.06,-1.37,0.0,1.15,311.0,1.0,1.0,0.0,50.0
13500,1,walk,walk,7463,,7463.0,20.0,0.0,0.0,1.0,-12.77,-0.371,-0.081,0.0,28.0,26.49,0.0,0.0,9.0,0.0,0.0,-11.71,-0.2,-0.98,0.06,-1.37,0.0,1.15,311.0,1.0,1.0,0.0,50.0
13540,1,walk,walk,7464,,7464.0,20.0,0.0,0.0,1.0,-12.77,-0.371,0.052,0.0,28.0,26.49,0.0,0.0,9.0,0.0,0.0,-11.71,-0.2,-0.98,0.06,-1.38,0.0,1.15,311.0,1.0,1.0,0.0,50.0
13540,1,walk,walk,7465,,7465.0,20.0,0.0,0.0,1.0,-12.77,-0.371,0.005,0.0,28.0,26.49,0.0,0.0,9.0,0.0,0.0,-11.71,-0.2,-0.98,0.06,-1.38,0.0,1.16,311.0,1.0,1.0,0.0,50.0
13540,1,walk,walk,7466,,7466.0,20.0,0.0,0.0,1.0,-12.77,-0.371,0.037,0.0,28.0,26.49,0.0,0.0,9.0,0.0,0.0,-11.71,-0.2,-0.98,0.06,-1.39,0.0,1.15,311.0,1.0,1.0,0.0,50.0
13600,1,walk,walk,7467,,7467.0,20.0,0.0,0.0,1.0,-12.77,-0.371,-0.032,0.0,28.0,26.49,0.0,0.0,9.0,0.0,0.0,-11.71,-0.2,-0.98,0.06,-1.39,-0.01,1.15,311.0,1.0,1.0,0.0,50.0
13600,1,walk,walk,7468,,7468.0,20.0,0.0,0.0,1.0,-12.78,-0.371,0.023,0.0,28.0,26.49,0.0,0.0,9.0,0.0,0.0,-11.72,-0.2,-0.98,0.06,-1.4,-0.02,1.14,311.0,1.0,1.0,0.0,50.0
13640,1,walk,walk,7469,,7469.0,20.0,0.0,0.0,1.0,-12.78,-0.371,0.061,0.0,28.0,26.49,0.0,0.0,9.0,0.0,0.0,-11.72,-0.2,-0.98,0.06,-1.4,-0.04,1.13,311.0,1.0,1.0,0.0,50.0
13640,1,walk,walk,7470,,7470.0,20.0,0.0,0.0,1.0,-12.78,-0.371,-0.022,0.0,28.0,26.46,0.0,0.0,9.0,0.0,0.0,-11.72,-0.2,-0.98,0.06,-1.4,-0.05,1.11,311.0,1.0,1.0,0.0,50.0
13660,1,walk,walk,7471,,7471.0,20.0,0.0,0.0,1.0,-12.78,-0.371,0.001,0.0,28.0,26.49,0.0,0.0,9.0,0.0,0.0,-11.72,-0.2,-0.98,0.06,-1.4,-0.07,1.1,311.0,1.0,1.0,0.0,50.0
13700,1,walk,walk,7472,,7472.0,20.0,0.0,0.0,1.0,-12.78,-0.371,0.034,0.0,28.0,26.49,0.0,0.0,9.0,0.0,0.0,-11.72,-0.2,-0.98,0.06,-1.39,-0.08,1.1,311.0,1.0,1.0,0.0,50.0
13700,1,walk,walk,7473,,7473.0,20.0,0.0,0.0,1.0,-12.78,-0.371,-0.002,0.0,28.0,26.49,0.0,0.0,9.0,0.0,0.0,-11.72,-0.2,-0.98,0.06,-1.39,-0.08,1.09,311.0,1.0,1.0,0.0,50.0
13740,1,walk,walk,7474,,7474.0,20.0,0.0,0.0,1.0,-12.78,-0.371,-0.028,0.0,28.0,26.49,0.0,0.0,9.0,0.0,0.0,-11.71,-0.2,-0.98,0.06,-1.39,-0.09,1.1,311.0,1.0,1.0,0.0,50.0
13740,1,walk,walk,7475,,7475.0,20.0,0.0,0.0,1.0,-12.79,-0.371,-0.028,0.0,28.0,26.49,0.0,0.0,9.0,0.0,0.0,-11.71,-0.2,-0.98,0.06,-1.39,-0.08,1.1,311.0,1.0,1.0,0.0,50.0
13740,1,walk,walk,7476,,7476.0,20.0,0.0,0.0,1.0,-12.79,-0.371,-0.025,0.0,28.0,26.49,0.0,0.0,9.0,0.0,0.0,-11.71,-0.2,-0.98,0.06,-1.39,-0.08,1.1,311.0,1.0,1.0,0.0,50.0
13800,1,walk,walk,7477,,7477.0,20.0,0.0,0.0,1.0,-12.79,-0.371,0.073,0.0,28.0,26.49,0.0,0.0,9.0,0.0,0.0,-11.71,-0.2,-0.98,0.06,-1.4,-0.07,1.11,311.0,1.0,1.0,0.0,50.0
13800,1,walk,walk,7478,,7478.0,20.0,0.0,0.0,1.0,-12.79,-0.371,-0.009,0.0,28.0,26.49,0.0,0.0,9.0,0.0,0.0,-11.71,-0.2,-0.98,0.06,-1.41,-0.06,1.11,311.0,1.0,1.0,0.0,50.0
13800,1,walk,walk,7479,,7479.0,20.0,0.0,0.0,1.0,-12.79,-0.371,-0.108,0.0,28.0,26.49,0.0,0.0,9.0,0.0,0.0,-11.7,-0.2,-0.98,0.06,-1.42,-0.05,1.11,311.0,1.0,1.0,0.0,50.0
13840,1,walk,walk,7480,,7480.0,20.0,0.0,0.0,1.0,-12.79,-0.371,0.052,0.0,28.0,26.49,0.0,0.0,9.0,0.0,0.0,-11.7,-0.2,-0.98,0.06,-1.42,-0.04,1.12,311.0,1.0,1.0,0.0,50.0
13840,1,walk,walk,7481,,7481.0,20.0,0.0,0.0,1.0,-12.79,-0.371,0.023,0.0,28.0,26.49,0.0,0.0,9.0,0.0,0.0,-11.7,-0.2,-0.98,0.06,-1.43,-0.03,1.12,311.0,1.0,1.0,0.0,50.0
13900,1,walk,walk,7482,,7482.0,20.0,0.0,0.0,1.0,-12.79,-0.371,0.052,0.0,28.0,26.49,0.0,0.0,9.0,0.0,0.0,-11.7,-0.2,-0.98,0.06,-1.43,-0.03,1.12,311.0,1.0,1.0,0.0,50.0
13900,1,walk,walk,7483,,7483.0,20.0,0.0,0.0,1.0,-12.79,-0.371,0.046,0.0,28.0,26.49,0.0,0.0,9.0,0.0,0.0,-11.69,-0.2,-0.98,0.06,-1.44,-0.03,1.12,311.0,1.0,1.0,0.0,50.0
13940,1,walk,walk,7484,,7484.0,20.0,0.0,0.0,1.0,-12.79,-0.371,-0.005,0.0,28.0,26.49,0.0,0.0,9.0,0.0,0.0,-11.69,-0.2,-0.98,0.06,-1.44,-0.03,1.12,311.0,1.0,1.0,0.0,50.0
13940,1,walk,walk,7485,,7485.0,20.0,0.0,0.0,1.0,-12.79,-0.371,0.072,0.0,28.0,26.49,0.0,0.0,9.0,0.0,0.0,-11.68,-0.2,-0.98,0.06,-1.45,-0.03,1.11,311.0,1.0,1.0,0.0,50.0
13960,1,walk,walk,7486,,7486.0,20.0,0.0,0.0,1.0,-12.79,-0.371,-0.108,0.0,28.0,26.49,0.0,0.0,9.0,0.0,0.0,-11.68,-0.2,-0.98,0.06,-1.45,-0.02,1.11,311.0,1.0,1.0,0.0,50.0
14000,1,walk,walk,7487,,7487.0,20.0,0.0,0.0,1.0,-12.79,-0.371,0.01,0.0,28.0,26.49,0.0,0.0,9.0,0.0,0.0,-11.68,-0.2,-0.98,0.06,-1.44,-0.02,1.11,311.0,1.0,1.0,0.0,50.0
14000,1,walk,walk,7488,,7488.0,20.0,0.0,0.0,1.0,-12.79,-0.371,0.042,0.0,28.0,26.46,0.0,0.0,9.0,0.0,0.0,-11.68,-0.2,-0.98,0.06,-1.43,-0.02,1.11,311.0,1.0,1.0,0.0,50.0
14040,1,walk,walk,7489,,7489.0,20.0,0.0,0.0,1.0,-12.79,-0.371,0.038,0.0,28.0,26.49,0.0,0.0,9.0,0.0,0.0,-11.68,-0.2,-0.98,0.06,-1.42,-0.02,1.11,311.0,1.0,1.0,0.0,50.0
14040,1,walk,walk,7490,,7490.0,20.0,0.0,0.0,1.0,-12.79,-0.371,-0.007,0.0,28.0,26.49,0.0,0.0,9.0,0.0,0.0,-11.7,-0.2,-0.98,0.06,-1.41,-0.01,1.11,311.0,1.0,1.0,0.0,50.0
14040,1,walk,walk,7491,,7491.0,20.0,0.0,0.0,1.0,-12.79,-0.371,-0.017,0.0,28.0,26.46,0.0,0.0,9.0,0.0,0.0,-11.71,-0.2,-0.98,0.06,-1.4,-0.01,1.11,311.0,1.0,1.0,0.0,50.0
14100,1,walk,walk,7492,,7492.0,20.0,0.0,0.0,1.0,-12.79,-0.371,0.009,0.0,28.0,26.49,0.0,0.0,9.0,0.0,0.0,-11.73,-0.2,-0.98,0.06,-1.39,-0.02,1.11,311.0,1.0,1.0,0.0,50.0
14100,1,walk,walk,7493,,7493.0,20.0,0.0,0.0,1.0,-12.79,-0.371,0.01,0.0,28.0,26.46,0.0,0.0,9.0,0.0,0.0,-11.75,-0.2,-0.98,0.06,-1.38,-0.04,1.11,311.0,1.0,1.0,0.0,50.0
14140,1,walk,walk,7494,,7494.0,20.0,0.0,0.0,1.0,-12.79,-0.37,0.062,0.0,28.0,26.49,0.0,0.0,9.0,0.0,0.0,-11.76,-0.2,-0.98,0.06,-1.38,-0.06,1.11,311.0,1.0,1.0,0.0,50.0
14140,1,walk,walk,7495,,7495.0,20.0,0.0,0.0,1.0,-12.79,-0.371,-0.018,0.0,28.0,26.49,0.0,0.0,9.0,0.0,0.0,-11.77,-0.2,-0.98,0.06,-1.38,-0.07,1.12,311.0,1.0,1.0,0.0,50.0
14140,1,walk,walk,7496,,7496.0,20.0,0.0,0.0,1.0,-12.79,-0.371,-0.014,0.0,28.0,26.49,0.0,0.0,9.0,0.0,0.0,-11.77,-0.2,-0.98,0.06,-1.38,-0.07,1.12,311.0,1.0,1.0,0.0,50.0
14200,1,walk,walk,7497,,7497.0,20.0,0.0,0.0,1.0,-12.79,-0.371,0.085,0.0,28.0,26.49,0.0,0.0,9.0,0.0,0.0,-11.77,-0.2,-0.98,0.06,-1.38,-0.07,1.13,311.0,1.0,1.0,0.0,50.0
14200,1,walk,walk,7498,,7498.0,20.0,0.0,0.0,1.0,-12.79,-0.371,-0.085,0.0,28.0,26.49,0.0,0.0,9.0,0.0,0.0,-11.77,-0.2,-0.98,0.06,-1.38,-0.06,1.14,311.0,1.0,1.0,0.0,50.0
14240,1,walk,walk,7499,,7499.0,20.0,0.0,0.0,1.0,-12.79,-0.37,0.054,0.0,28.0,26.49,0.0,0.0,9.0,0.0,0.0,-11.76,-0.2,-0.98,0.06,-1.38,-0.06,1.15,311.0,1.0,1.0,0.0,50.0
14240,1,walk,walk,7500,,7500.0,20.0,0.0,0.0,1.0,-12.79,-0.371,-0.056,0.0,28.0,26.49,0.0,0.0,9.0,0.0,0.0,-11.77,-0.2,-0.98,0.06,-1.38,-0.05,1.16,311.0,1.0,1.0,0.0,50.0
14260,1,walk,walk,7501,,7501.0,20.0,0.0,0.0,1.0,-12.79,-0.371,0.042,0.0,28.0,26.49,0.0,0.0,9.0,0.0,0.0,-11.77,-0.2,-0.98,0.06,-1.39,-0.05,1.17,311.0,1.0,1.0,0.0,50.0
14300,1,walk,walk,7502,,7502.0,20.0,0.0,0.0,1.0,-12.79,-0.371,0.003,0.0,28.0,26.49,0.0,0.0,9.0,0.0,0.0,-11.77,-0.2,-0.98,0.06,-1.39,-0.05,1.17,311.0,1.0,1.0,0.0,50.0
14300,1,walk,walk,7503,,7503.0,20.0,0.0,0.0,1.0,-12.79,-0.371,-0.03,0.0,28.0,26.49,0.0,0.0,9.0,0.0,0.0,-11.77,-0.2,-0.98,0.06,-1.39,-0.06,1.18,311.0,1.0,1.0,0.0,50.0
14340,1,walk,walk,7504,,7504.0,20.0,0.0,0.0,1.0,-12.79,-0.371,0.025,0.0,28.0,26.49,0.0,0.0,9.0,0.0,0.0,-11.77,-0.2,-0.98,0.06,-1.39,-0.07,1.18,311.0,1.0,1.0,0.0,50.0
14340,1,walk,walk,7505,,7505.0,20.0,0.0,0.0,1.0,-12.8,-0.371,0.042,0.0,28.0,26.49,0.0,0.0,9.0,0.0,0.0,-11.76,-0.2,-0.98,0.06,-1.39,-0.09,1.18,311.0,1.0,1.0,0.0,50.0
14400,1,walk,walk,7506,,7506.0,20.0,0.0,0.0,1.0,-12.8,-0.371,-0.081,0.0,28.0,26.49,0.0,0.0,9.0,0.0,0.0,-11.75,-0.2,-0.98,0.06,-1.39,-0.1,1.18,311.0,1.0,1.0,0.0,50.0
14400,1,walk,walk,7507,,7507.0,20.0,0.0,0.0,1.0,-12.8,-0.371,-0.089,0.0,28.0,26.49,0.0,0.0,9.0,0.0,0.0,-11.74,-0.2,-0.98,0.06,-1.4,-0.11,1.18,311.0,1.0,1.0,0.0,50.0
