icmT,accX,accY,accZ,accT,gyrX,gyrY,gyrZ,gyrT,magX,magY,magZ,magT
0.000000,0.166504,0.000000,0.000000,0.000000,-6.103516,0.000000,0.000000,0.000000,32.549957,0.000000,0.000000,0.000000
10.000000,0.179687,-0.238769,0.994629,1.000000,-5.859375,-0.793457,-0.671387,1.000000,33.599960,35.399963,-89.400009,1.000000
20.000000,0.158203,-0.234375,0.988281,2.000000,-6.591797,-0.549316,-0.305176,2.000000,33.299957,35.699966,-89.100006,2.000000
30.000000,0.172852,-0.243164,1.003418,3.000000,-5.554199,-0.854492,-0.793457,3.000000,31.949966,34.649963,-88.050003,3.000000
40.000000,0.178223,-0.245117,0.998535,4.000000,-5.371094,-0.183105,-0.732422,4.000000,31.949966,34.349960,-88.200012,4.000000
50.000000,0.172363,-0.242187,0.998047,5.000000,-5.798340,0.362396,-0.732422,5.000000,33.599960,34.349960,-88.200012,5.000000
60.000000,0.167480,-0.256836,0.989258,6.000000,-6.042480,-0.183105,-0.061035,6.000000,31.499954,35.999954,-87.300003,6.000000
70.000000,0.180664,-0.257324,0.993652,7.000000,-6.103516,-0.183105,0.000000,7.000000,31.499954,35.399963,-88.350006,7.000000
80.000000,0.171875,-0.253906,0.990234,8.000000,-6.347656,-0.061035,0.240326,8.000000,33.749954,35.399963,-88.350006,8.000000
90.000000,0.170410,-0.244629,0.988769,9.000000,-6.164551,-0.244141,0.484467,9.000000,32.849960,36.599960,-88.650009,9.000000
100.000000,0.169922,-0.253906,0.982910,10.000000,-5.798340,-0.976562,0.484467,10.000000,32.849960,35.699966,-88.350006,10.000000
110.000000,0.165039,-0.239746,0.990234,11.000000,-4.760742,-0.793457,0.484467,11.000000,32.849960,35.699966,-88.350006,11.000000
120.000000,0.164062,-0.251953,0.990234,12.000000,-5.371094,-0.671387,-0.183105,12.000000,33.449966,35.399963,-88.800003,12.000000
130.000000,0.157227,-0.248047,0.994140,13.000000,-5.920410,-0.671387,-0.244141,13.000000,33.449966,34.799957,-87.900009,13.000000
140.000000,0.165039,-0.243164,1.002929,14.000000,-5.798340,-1.037598,0.850677,14.000000,33.599960,34.799957,-87.900009,14.000000
150.000000,0.162598,-0.239746,1.013183,15.000000,-5.859375,-0.061035,1.705170,15.000000,33.149963,35.399963,-89.400009,15.000000
160.000000,0.175781,-0.234863,1.014648,16.000000,-6.042480,-0.061035,1.155853,16.000000,33.149963,35.549957,-88.650009,16.000000
170.000000,0.156250,-0.223633,1.005371,17.000000,-5.798340,-0.244141,0.484467,17.000000,32.849960,35.549957,-88.650009,17.000000
180.000000,0.149902,-0.232910,1.006347,18.000000,-4.943848,-0.244141,0.423431,18.000000,34.349960,35.999954,-87.000000,18.000000
190.000000,0.166504,-0.240234,0.994629,19.000000,-4.821777,0.850677,0.362396,19.000000,33.449966,34.199966,-88.350006,19.000000
200.000000,0.142578,-0.243164,0.989258,20.000000,-4.821777,0.545502,-0.732422,20.000000,33.449966,35.849960,-88.650009,20.000000
210.000000,0.128906,-0.244629,0.987793,21.000000,-5.493164,0.118256,-0.671387,21.000000,33.749954,35.849960,-88.650009,21.000000
220.000000,0.147949,-0.238281,0.970703,22.000000,-5.859375,-0.915527,-0.793457,22.000000,33.599960,36.299957,-88.200012,22.000000
230.000000,0.149902,-0.239258,0.986816,23.000000,-6.835938,-1.403809,0.118256,23.000000,33.599960,34.949966,-88.050003,23.000000
240.000000,0.173828,-0.237305,0.984375,24.000000,-6.530762,-1.403809,0.240326,24.000000,33.299957,34.949966,-88.050003,24.000000
250.000000,0.170410,-0.254394,1.000000,25.000000,-6.469727,-1.953125,0.240326,25.000000,34.499954,35.999954,-88.350006,25.000000
260.000000,0.181152,-0.256348,1.003906,26.000000,-5.554199,-1.342773,0.057220,26.000000,34.499954,34.049957,-88.200012,26.000000
270.000000,0.178223,-0.252930,0.993164,27.000000,-5.310059,-0.671387,-0.549316,27.000000,34.049957,34.049957,-88.200012,27.000000
280.000000,0.174805,-0.246094,1.001465,28.000000,-5.615234,-0.488281,0.000000,28.000000,31.799957,34.949966,-88.800003,28.000000
290.000000,0.169434,-0.254883,1.013672,29.000000,-5.371094,-1.220703,0.301361,29.000000,31.799957,34.949966,-88.350006,29.000000
300.000000,0.173828,-0.236816,1.000976,30.000000,-5.920410,-0.183105,0.118256,30.000000,33.299957,34.949966,-88.350006,30.000000
310.000000,0.168945,-0.253906,1.000488,31.000000,-5.676270,-0.427246,0.301361,31.000000,33.449966,34.649963,-88.350006,31.000000
320.000000,0.167480,-0.252441,0.998047,32.000000,-5.493164,-0.610352,-0.061035,32.000000,33.449966,36.299957,-90.000000,32.000000
330.000000,0.158203,-0.256836,0.996582,33.000000,-4.821777,-0.610352,0.667572,33.000000,32.399963,36.299957,-90.000000,33.000000
340.000000,0.169434,-0.260742,1.001953,34.000000,-5.187988,-0.549316,0.972748,34.000000,34.049957,36.299957,-88.950012,34.000000
350.000000,0.141602,-0.253906,0.990234,35.000000,-4.943848,-0.793457,1.399994,35.000000,33.749954,34.949966,-89.100006,35.000000
360.000000,0.145508,-0.253418,0.980469,36.000000,-5.493164,-0.366211,1.522064,36.000000,34.349960,34.349960,-88.200012,36.000000
370.000000,0.159668,-0.232910,0.986328,37.000000,-5.493164,-1.464844,1.705170,37.000000,34.349960,34.649963,-88.050003,37.000000
380.000000,0.161133,-0.241699,0.978515,38.000000,-4.882812,-1.159668,0.545502,38.000000,34.349960,35.699966,-88.800003,38.000000
390.000000,0.153320,-0.218750,0.997558,39.000000,-5.249023,-1.708984,0.118256,39.000000,33.449966,35.699966,-88.800003,39.000000
400.000000,0.160644,-0.224121,0.992676,40.000000,-5.737305,-1.525879,-0.488281,40.000000,33.449966,35.099960,-88.650009,40.000000
410.000000,0.157715,-0.228516,1.004883,41.000000,-6.408691,-1.892090,-1.159668,41.000000,33.449966,34.799957,-87.150009,41.000000
420.000000,0.168945,-0.232910,1.001953,42.000000,-6.103516,-1.770020,-2.563477,42.000000,34.499954,34.799957,-87.150009,42.000000
430.000000,0.183594,-0.240234,1.012207,43.000000,-6.286621,-1.281738,-1.647949,43.000000,34.199966,34.349960,-88.650009,43.000000
440.000000,0.174316,-0.248535,0.996094,44.000000,-6.225586,-0.366211,-1.464844,44.000000,34.199966,35.549957,-88.650009,44.000000
450.000000,0.160156,-0.250488,1.005371,45.000000,-5.737305,-0.427246,-1.220703,45.000000,32.399963,35.549957,-88.650009,45.000000
460.000000,0.166016,-0.250977,0.983398,46.000000,-5.493164,-0.549316,-2.075195,46.000000,33.749954,35.549957,-88.950012,46.000000
470.000000,0.164551,-0.260742,0.984863,47.000000,-5.493164,0.179291,-1.708984,47.000000,33.749954,35.549957,-88.950012,47.000000
480.000000,0.157227,-0.262695,0.985840,48.000000,-5.676270,-1.220703,-1.647949,48.000000,33.299957,35.549957,-88.950012,48.000000
490.000000,0.151855,-0.266602,0.995605,49.000000,-6.408691,-2.197266,-0.976562,49.000000,33.599960,35.399963,-89.400009,49.000000
500.000000,0.184570,-0.258301,0.991211,50.000000,-6.225586,-2.380371,-0.793457,50.000000,33.749954,35.999954,-89.100006,50.000000
510.000000,0.171875,-0.259766,0.993164,51.000000,-6.042480,-2.441406,-0.183105,51.000000,33.749954,35.849960,-88.650009,51.000000
520.000000,0.177734,-0.251953,1.001953,52.000000,-5.554199,-2.136230,0.484467,52.000000,34.499954,35.849960,-88.650009,52.000000
530.000000,0.172852,-0.243164,1.002929,53.000000,-5.187988,-0.793457,0.362396,53.000000,33.299957,35.099960,-88.650009,53.000000
540.000000,0.169434,-0.240723,1.013672,54.000000,-5.432129,-1.647949,0.240326,54.000000,33.299957,35.699966,-88.800003,54.000000
550.000000,0.181641,-0.241699,0.992187,55.000000,-5.065918,-0.793457,-0.549316,55.000000,33.449966,35.699966,-88.800003,55.000000
560.000000,0.164062,-0.247559,1.015625,56.000000,-5.676270,-0.732422,-0.427246,56.000000,34.199966,34.049957,-88.200012,56.000000
570.000000,0.154297,-0.263184,1.009277,57.000000,-5.737305,-1.159668,-0.366211,57.000000,34.199966,35.849960,-88.650009,57.000000
580.000000,0.176269,-0.259766,1.007812,58.000000,-5.371094,-0.732422,0.850677,58.000000,33.299957,35.849960,-88.650009,58.000000
590.000000,0.162598,-0.255371,0.999023,59.000000,-5.371094,-0.854492,1.216888,59.000000,34.349960,34.199966,-88.050003,59.000000
600.000000,0.154297,-0.250488,0.988769,60.000000,-5.249023,-0.366211,1.522064,60.000000,34.349960,35.999954,-88.800003,60.000000
610.000000,0.168945,-0.245117,0.987304,61.000000,-4.394531,-0.244141,0.545502,61.000000,33.299957,35.999954,-88.800003,61.000000
620.000000,0.157715,-0.246094,0.998047,62.000000,-4.821777,-0.854492,0.000000,62.000000,32.849960,35.399963,-88.050003,62.000000
630.000000,0.161621,-0.250488,0.993164,63.000000,-5.371094,-0.549316,0.057220,63.000000,32.849960,34.649963,-88.800003,63.000000
640.000000,0.153320,-0.242676,0.986328,64.000000,-5.249023,-0.427246,0.301361,64.000000,34.199966,34.649963,-88.800003,64.000000
650.000000,0.158203,-0.249023,0.993164,65.000000,-6.164551,-1.342773,0.728607,65.000000,34.199966,35.549957,-87.900009,65.000000
660.000000,0.156250,-0.217773,1.005859,66.000000,-5.737305,-0.915527,0.423431,66.000000,34.199966,34.049957,-87.900009,66.000000
670.000000,0.167969,-0.216797,1.013183,67.000000,-4.821777,-0.122070,-1.098633,67.000000,34.199966,34.049957,-87.900009,67.000000
680.000000,0.160156,-0.217285,1.008789,68.000000,-4.638672,0.484467,-1.770020,68.000000,34.049957,35.549957,-89.250000,68.000000
690.000000,0.158203,-0.223633,1.024902,69.000000,-5.126953,0.000000,-2.929688,69.000000,34.049957,35.399963,-89.100006,69.000000
700.000000,0.153809,-0.233398,0.999023,70.000000,-5.371094,1.033783,-2.868652,70.000000,32.849960,35.399963,-89.100006,70.000000
710.000000,0.157715,-0.253418,0.999511,71.000000,-6.469727,1.094818,-3.112793,71.000000,32.849960,35.999954,-88.800003,71.000000
720.000000,0.172852,-0.224121,0.997558,72.000000,-7.324219,0.362396,-1.831055,72.000000,32.849960,36.749954,-88.350006,72.000000
730.000000,0.170898,-0.247559,0.983398,73.000000,-6.958008,-0.549316,-1.403809,73.000000,34.949966,36.749954,-88.350006,73.000000
740.000000,0.180664,-0.239258,0.980957,74.000000,-6.286621,-0.305176,-0.793457,74.000000,34.199966,35.849960,-89.250000,74.000000
750.000000,0.155273,-0.258789,0.988769,75.000000,-5.554199,-0.549316,-0.488281,75.000000,34.199966,34.349960,-89.700012,75.000000
760.000000,0.160156,-0.264648,0.983886,76.000000,-3.540039,-0.122070,-1.403809,76.000000,32.849960,34.349960,-89.700012,76.000000
770.000000,0.137695,-0.264648,0.985840,77.000000,-3.540039,-0.549316,-1.464844,77.000000,33.449966,35.999954,-88.350006,77.000000
780.000000,0.151855,-0.244141,0.984375,78.000000,-3.723145,-0.427246,-1.647949,78.000000,33.449966,34.799957,-88.950012,78.000000
790.000000,0.141113,-0.237305,1.007812,79.000000,-5.859375,-1.525879,-1.892090,79.000000,33.749954,34.799957,-88.950012,79.000000
800.000000,0.164062,-0.241699,1.003906,80.000000,-6.530762,-1.525879,-2.014160,80.000000,33.749954,36.299957,-89.250000,80.000000
810.000000,0.175293,-0.233887,1.010254,81.000000,-6.225586,-0.427246,-2.258301,81.000000,33.449966,35.549957,-89.700012,81.000000
820.000000,0.183105,-0.244629,1.017090,82.000000,-5.493164,-0.183105,-1.525879,82.000000,33.449966,37.049957,-88.200012,82.000000
830.000000,0.186035,-0.244629,1.007324,83.000000,-4.211426,0.728607,-2.441406,83.000000,34.049957,37.049957,-88.200012,83.000000
840.000000,0.160156,-0.236328,1.005859,84.000000,-4.638672,0.362396,-2.990723,84.000000,34.049957,36.749954,-87.000000,84.000000
850.000000,0.163574,-0.243652,0.996094,85.000000,-5.126953,0.911713,-2.746582,85.000000,34.049957,36.449966,-88.050003,85.000000
860.000000,0.160156,-0.254883,0.990234,86.000000,-5.493164,0.362396,-2.197266,86.000000,33.299957,36.449966,-88.050003,86.000000
870.000000,0.148437,-0.247070,0.986328,87.000000,-5.554199,0.118256,-1.525879,87.000000,33.749954,34.649963,-89.100006,87.000000
880.000000,0.151367,-0.257324,0.981933,88.000000,-5.371094,-0.732422,-1.220703,88.000000,33.749954,34.799957,-87.900009,88.000000
890.000000,0.141113,-0.254883,0.979004,89.000000,-5.432129,-0.488281,-0.610352,89.000000,33.299957,34.799957,-87.900009,89.000000
900.000000,0.157227,-0.245605,0.985840,90.000000,-5.126953,-0.549316,-1.220703,90.000000,34.049957,34.199966,-88.050003,90.000000
910.000000,0.151855,-0.249512,0.978027,91.000000,-4.882812,-0.793457,-1.342773,91.000000,34.049957,36.749954,-89.100006,91.000000
920.000000,0.144531,-0.230957,0.986328,92.000000,-4.089355,-0.549316,-2.380371,92.000000,33.749954,36.749954,-89.100006,92.000000
930.000000,0.132324,-0.226562,0.984375,93.000000,-3.845215,-0.244141,-3.479004,93.000000,33.449966,36.299957,-88.950012,93.000000
940.000000,0.140625,-0.210449,0.990234,94.000000,-5.310059,-1.281738,-3.540039,94.000000,33.449966,35.099960,-87.900009,94.000000
950.000000,0.153320,-0.209473,0.994140,95.000000,-7.934570,-2.319336,-3.723145,95.000000,34.349960,35.099960,-87.900009,95.000000
960.000000,0.171875,-0.219727,1.008301,96.000000,-9.155273,-3.967285,-4.272461,96.000000,32.699966,35.399963,-89.400009,96.000000
970.000000,0.164551,-0.226562,1.009277,97.000000,-8.789062,-4.028320,-3.540039,97.000000,32.699966,35.549957,-87.450012,97.000000
980.000000,0.186523,-0.243652,1.010742,98.000000,-7.934570,-2.990723,-3.540039,98.000000,34.949966,35.549957,-87.450012,98.000000
990.000000,0.183594,-0.248047,0.994140,99.000000,-7.202148,-2.624512,-4.394531,99.000000,33.749954,35.849960,-88.950012,99.000000
1000.000000,0.172852,-0.255859,0.994629,100.000000,-6.347656,-2.319336,-4.882812,100.000000,33.749954,35.549957,-87.900009,100.000000
1010.000000,0.188477,-0.247070,0.987793,101.000000,-5.371094,-0.976562,-6.042480,101.000000,34.499954,35.549957,-87.900009,101.000000
1020.000000,0.165527,-0.272461,0.990234,102.000000,-5.310059,-0.854492,-5.737305,102.000000,33.599960,34.349960,-90.000000,102.000000
1030.000000,0.181152,-0.275391,0.979492,103.000000,-5.004883,-1.586914,-5.920410,103.000000,33.599960,35.699966,-89.100006,103.000000
1040.000000,0.178711,-0.267578,0.987793,104.000000,-5.676270,-2.136230,-3.906250,104.000000,33.299957,35.699966,-89.100006,104.000000
1050.000000,0.185547,-0.261719,1.004883,105.000000,-5.981445,-2.197266,-3.112793,105.000000,33.449966,36.449966,-88.350006,105.000000
1060.000000,0.173340,-0.245117,0.995605,106.000000,-6.408691,-2.624512,-3.417969,106.000000,33.449966,36.599960,-88.950012,106.000000
1070.000000,0.165527,-0.250977,1.018066,107.000000,-6.408691,-2.197266,-2.929688,107.000000,33.149963,36.599960,-88.950012,107.000000
1080.000000,0.163086,-0.229004,1.009765,108.000000,-5.859375,-1.770020,-3.173828,108.000000,33.449966,36.299957,-87.900009,108.000000
1090.000000,0.166504,-0.240234,1.005859,109.000000,-6.225586,-1.831055,-3.173828,109.000000,33.449966,35.849960,-87.900009,109.000000
1100.000000,0.162598,-0.237793,1.009277,110.000000,-5.371094,-0.549316,-3.784180,110.000000,32.399963,35.849960,-87.900009,110.000000
1110.000000,0.152344,-0.236328,1.011719,111.000000,-6.225586,0.423431,-3.967285,111.000000,33.749954,35.849960,-88.200012,111.000000
1120.000000,0.152832,-0.228027,1.012207,112.000000,-5.371094,0.362396,-4.638672,112.000000,33.149963,36.299957,-88.200012,112.000000
1130.000000,0.154297,-0.249512,0.995605,113.000000,-4.943848,-1.770020,-5.493164,113.000000,33.149963,36.599960,-88.650009,113.000000
1140.000000,0.161133,-0.246094,0.972656,114.000000,-5.065918,-0.976562,-4.516602,114.000000,33.599960,36.599960,-88.650009,114.000000
1150.000000,0.148926,-0.247070,1.008789,115.000000,-4.577637,-2.563477,-4.394531,115.000000,34.049957,34.649963,-88.350006,115.000000
1160.000000,0.160156,-0.254394,0.998535,116.000000,-5.126953,-2.990723,-3.540039,116.000000,34.049957,34.649963,-88.050003,116.000000
1170.000000,0.165039,-0.245605,0.998047,117.000000,-5.371094,-4.211426,-2.929688,117.000000,33.599960,34.649963,-88.050003,117.000000
1180.000000,0.155273,-0.260254,0.982422,118.000000,-5.126953,-5.371094,-2.502441,118.000000,32.249954,35.999954,-88.800003,118.000000
1190.000000,0.165039,-0.251465,0.978515,119.000000,-4.577637,-6.958008,-2.746582,119.000000,32.249954,35.399963,-88.800003,119.000000
1200.000000,0.165527,-0.247070,0.978027,120.000000,-7.629395,-5.798340,-2.990723,120.000000,33.149963,35.399963,-88.800003,120.000000
1210.000000,0.163086,-0.256348,0.995117,121.000000,-5.249023,-10.681152,-4.760742,121.000000,34.049957,34.349960,-87.900009,121.000000
1220.000000,0.171387,-0.228516,0.957519,122.000000,-3.234863,-5.493164,-2.929688,122.000000,34.049957,34.649963,-88.800003,122.000000
1230.000000,0.148926,-0.260254,0.985351,123.000000,-9.277344,-4.699707,-2.624512,123.000000,32.399963,34.649963,-88.800003,123.000000
1240.000000,0.186035,-0.175293,1.012207,124.000000,-2.380371,-12.695312,-4.821777,124.000000,32.699966,34.799957,-88.650009,124.000000
1250.000000,0.182129,-0.273437,0.945801,125.000000,-9.033203,-6.958008,-5.126953,125.000000,33.449966,35.849960,-89.700012,125.000000
1260.000000,0.213867,-0.240234,1.000976,126.000000,-3.601074,3.841400,-0.732422,126.000000,33.299957,35.849960,-89.250000,126.000000
1270.000000,0.210449,-0.203125,1.006347,127.000000,-2.197266,-0.793457,-2.990723,127.000000,33.299957,34.949966,-87.750000,127.000000
1280.000000,0.193359,-0.234863,0.991699,128.000000,-2.075195,-4.638672,-5.126953,128.000000,33.299957,35.399963,-88.350006,128.000000
1290.000000,0.175781,-0.257324,0.990722,129.000000,-4.577637,-2.441406,-5.798340,129.000000,33.149963,35.399963,-88.350006,129.000000
1300.000000,0.172852,-0.270019,0.979004,130.000000,-3.967285,-1.159668,-2.380371,130.000000,32.849960,34.799957,-88.650009,130.000000
1310.000000,0.140137,-0.256836,0.986328,131.000000,-3.845215,-0.854492,-2.319336,131.000000,32.849960,35.999954,-89.100006,131.000000
1320.000000,0.177246,-0.233398,1.014160,132.000000,5.733490,-0.183105,-6.896973,132.000000,33.299957,35.999954,-89.100006,132.000000
1330.000000,0.163086,-0.168945,1.023437,133.000000,1.277924,-1.647949,-4.516602,133.000000,33.599960,35.999954,-89.100006,133.000000
1340.000000,0.166504,-0.271484,1.001953,134.000000,-4.516602,-5.187988,-6.896973,134.000000,33.599960,35.999954,-89.400009,134.000000
1350.000000,0.191894,-0.274414,0.987793,135.000000,-4.455566,-1.220703,-4.211426,135.000000,32.399963,35.999954,-89.400009,135.000000
1360.000000,0.174316,-0.260742,0.989746,136.000000,-4.821777,-0.793457,-0.305176,136.000000,31.949966,36.299957,-89.700012,136.000000
1370.000000,0.178711,-0.215820,1.007324,137.000000,-1.892090,-1.953125,-1.525879,137.000000,31.949966,34.799957,-88.650009,137.000000
1380.000000,0.161621,-0.232910,0.989746,138.000000,-2.746582,-1.464844,-3.234863,138.000000,32.249954,34.799957,-88.650009,138.000000
1390.000000,0.159668,-0.185059,0.983886,139.000000,-2.563477,1.338959,-0.305176,139.000000,32.549957,35.399963,-89.100006,139.000000
1400.000000,0.192871,-0.245117,0.981445,140.000000,0.301361,1.033783,-5.859375,140.000000,32.549957,33.899963,-88.800003,140.000000
1410.000000,0.200195,-0.244629,1.002929,141.000000,-1.281738,1.277924,-10.070801,141.000000,33.749954,33.899963,-88.800003,141.000000
1420.000000,0.173828,-0.169922,1.008789,142.000000,-1.892090,-1.037598,-3.601074,142.000000,33.749954,36.599960,-87.150009,142.000000
1430.000000,0.174805,-0.268066,0.986816,143.000000,-3.234863,0.972748,-1.647949,143.000000,32.549957,35.099960,-89.700012,143.000000
1440.000000,0.191406,-0.232910,0.998535,144.000000,-1.770020,0.484467,-4.089355,144.000000,32.549957,34.949966,-89.400009,144.000000
1450.000000,0.173340,-0.239746,0.992676,145.000000,-1.342773,2.132416,-4.821777,145.000000,32.849960,34.949966,-89.400009,145.000000
1460.000000,0.105957,-0.195801,0.995117,146.000000,-4.821777,-0.122070,-3.051758,146.000000,32.699966,34.649963,-89.100006,146.000000
1470.000000,0.172852,-0.178711,0.999511,147.000000,-3.601074,-0.549316,-4.699707,147.000000,32.699966,34.799957,-90.300003,147.000000
1480.000000,0.153809,-0.241211,1.002441,148.000000,-5.493164,-2.136230,-2.990723,148.000000,32.699966,34.799957,-90.300003,148.000000
1490.000000,0.201660,-0.266113,0.995605,149.000000,-8.605957,0.362396,-0.793457,149.000000,32.399963,34.799957,-89.250000,149.000000
1500.000000,0.202148,-0.248535,1.012207,150.000000,-6.103516,1.338959,1.094818,150.000000,32.399963,35.849960,-88.200012,150.000000
1510.000000,0.178711,-0.260254,1.001953,151.000000,-6.958008,0.179291,1.277924,151.000000,32.249954,35.849960,-88.200012,151.000000
1520.000000,0.190430,-0.255371,0.992676,152.000000,-7.751465,-0.427246,0.972748,152.000000,30.749954,35.999954,-88.800003,152.000000
1530.000000,0.192383,-0.241211,1.005859,153.000000,-6.042480,0.606537,2.681732,153.000000,30.749954,34.649963,-89.850006,153.000000
1540.000000,0.181152,-0.234375,0.994629,154.000000,-6.347656,0.118256,1.033783,154.000000,32.699966,34.649963,-89.850006,154.000000
1550.000000,0.143066,-0.217773,1.003906,155.000000,-5.676270,0.911713,-0.366211,155.000000,32.699966,35.099960,-89.700012,155.000000
1560.000000,0.181152,-0.166992,0.975586,156.000000,-7.629395,-0.427246,-2.624512,156.000000,32.249954,35.099960,-89.700012,156.000000
1570.000000,0.167969,-0.221191,0.989258,157.000000,-7.141113,1.277924,-3.540039,157.000000,30.749954,33.899963,-88.050003,157.000000
1580.000000,0.157715,-0.206055,0.987793,158.000000,-5.737305,-0.793457,-3.723145,158.000000,33.149963,35.699966,-87.750000,158.000000
1590.000000,0.171875,-0.222168,0.986816,159.000000,-4.638672,-0.610352,-3.662109,159.000000,33.149963,35.099960,-89.250000,159.000000
1600.000000,0.161133,-0.241699,0.987793,160.000000,-3.112793,0.545502,-4.760742,160.000000,33.149963,35.099960,-89.250000,160.000000
1610.000000,0.153320,-0.229980,0.989746,161.000000,-3.723145,-0.305176,-6.164551,161.000000,31.799957,34.049957,-90.000000,161.000000
1620.000000,0.155273,-0.243164,0.998535,162.000000,-6.408691,-0.183105,-8.544922,162.000000,31.799957,34.949966,-89.400009,162.000000
1630.000000,0.179199,-0.232910,1.000000,163.000000,-6.591797,0.606537,-8.728027,163.000000,33.149963,34.949966,-89.400009,163.000000
1640.000000,0.180176,-0.237793,0.989258,164.000000,-5.615234,-2.746582,-7.507324,164.000000,32.399963,34.799957,-90.300003,164.000000
1650.000000,0.181641,-0.225586,1.005371,165.000000,-4.943848,-2.258301,-6.042480,165.000000,32.399963,36.599960,-89.250000,165.000000
1660.000000,0.188965,-0.232910,1.010254,166.000000,-4.028320,-1.525879,-5.187988,166.000000,31.949966,36.599960,-89.250000,166.000000
1670.000000,0.171875,-0.242676,0.994140,167.000000,-3.906250,-0.671387,-4.272461,167.000000,31.949966,34.349960,-89.250000,167.000000
1680.000000,0.149414,-0.216797,0.996094,168.000000,-4.882812,-1.159668,-4.516602,168.000000,31.949966,35.099960,-89.250000,168.000000
1690.000000,0.155762,-0.208496,1.001953,169.000000,-1.647949,-2.075195,-6.530762,169.000000,31.949966,35.099960,-89.250000,169.000000
1700.000000,0.133301,-0.143555,0.995605,170.000000,-2.075195,-4.089355,-5.371094,170.000000,32.549957,35.549957,-88.200012,170.000000
1710.000000,0.184082,-0.222656,1.020019,171.000000,-1.586914,-2.990723,-8.483887,171.000000,32.549957,35.399963,-89.100006,171.000000
1720.000000,0.196289,-0.230957,0.988281,172.000000,-3.540039,-1.586914,-7.263184,172.000000,32.399963,35.399963,-89.100006,172.000000
1730.000000,0.197754,-0.223633,1.007324,173.000000,-3.601074,-3.723145,-3.356934,173.000000,33.299957,34.049957,-86.850006,173.000000
1740.000000,0.157227,-0.258789,0.999511,174.000000,-3.417969,-1.708984,-3.173828,174.000000,31.799957,36.449966,-89.400009,174.000000
1750.000000,0.183594,-0.165527,1.000976,175.000000,-0.061035,1.033783,-3.479004,175.000000,31.799957,35.399963,-88.800003,175.000000
1760.000000,0.236816,-0.239746,1.008301,176.000000,-1.953125,0.545502,-5.676270,176.000000,31.649963,35.399963,-88.800003,176.000000
1770.000000,0.210449,-0.236816,0.999023,177.000000,1.216888,-1.220703,-1.892090,177.000000,31.349960,34.799957,-89.700012,177.000000
1780.000000,0.167969,-0.231445,0.991699,178.000000,2.437592,1.216888,-4.455566,178.000000,31.349960,35.099960,-89.700012,178.000000
1790.000000,0.165527,-0.215820,1.004394,179.000000,3.353119,0.789642,-3.662109,179.000000,31.799957,35.099960,-89.700012,179.000000
1800.000000,0.214355,-0.231445,1.011719,180.000000,3.902435,1.949310,-5.371094,180.000000,31.499954,34.199966,-88.350006,180.000000
1810.000000,0.159668,-0.214844,1.023437,181.000000,1.094818,0.057220,-5.554199,181.000000,31.499954,35.699966,-89.100006,181.000000
1820.000000,0.163574,-0.209473,1.037597,182.000000,2.071381,2.986908,-6.103516,182.000000,31.499954,35.699966,-89.100006,182.000000
1830.000000,0.165039,-0.186035,0.988769,183.000000,1.216888,6.832123,-10.192871,183.000000,31.949966,34.199966,-89.100006,183.000000
1840.000000,0.162598,-0.219727,1.011719,184.000000,-1.159668,2.986908,-12.451172,184.000000,31.949966,34.799957,-89.700012,184.000000
1850.000000,0.161133,-0.206055,0.977539,185.000000,-1.647949,4.940033,-10.559082,185.000000,31.649963,34.799957,-89.700012,185.000000
1860.000000,0.193359,-0.218262,1.003418,186.000000,-2.441406,2.132416,-10.314941,186.000000,31.649963,34.799957,-88.950012,186.000000
1870.000000,0.152344,-0.191406,1.028808,187.000000,-0.549316,0.972748,-8.483887,187.000000,30.899963,34.799957,-88.950012,187.000000
1880.000000,0.167480,-0.171875,1.012695,188.000000,1.338959,4.024506,-10.375977,188.000000,31.499954,35.549957,-90.300003,188.000000
1890.000000,0.157715,-0.163574,1.034179,189.000000,5.855560,1.644135,-10.620117,189.000000,31.349960,36.449966,-89.400009,189.000000
1900.000000,0.159668,-0.166504,1.039551,190.000000,8.358002,6.526947,-15.014648,190.000000,31.349960,35.099960,-90.300003,190.000000
1910.000000,0.169922,-0.132324,1.043945,191.000000,10.555267,6.587982,-16.906738,191.000000,32.249954,35.099960,-90.300003,191.000000
1920.000000,0.154785,-0.163086,1.028320,192.000000,11.470795,8.419037,-17.578125,192.000000,30.749954,36.449966,-89.400009,192.000000
1930.000000,0.153320,-0.151367,1.020019,193.000000,12.142181,8.419037,-19.042969,193.000000,30.749954,35.699966,-88.800003,193.000000
1940.000000,0.139160,-0.145508,1.026367,194.000000,12.142181,10.066986,-20.629883,194.000000,31.499954,35.699966,-88.800003,194.000000
1950.000000,0.145020,-0.134766,1.027344,195.000000,14.461517,9.944916,-23.498535,195.000000,31.649963,34.949966,-90.150009,195.000000
1960.000000,0.143555,-0.151855,1.039062,196.000000,13.362885,11.531830,-27.099609,196.000000,31.649963,35.099960,-90.300003,196.000000
1970.000000,0.151855,-0.145996,1.032226,197.000000,14.583588,14.095306,-32.531738,197.000000,29.999954,35.099960,-90.300003,197.000000
1980.000000,0.155762,-0.141602,1.044922,198.000000,19.100189,16.902924,-35.461426,198.000000,29.099960,33.899963,-90.600006,198.000000
1990.000000,0.144531,-0.150391,1.067871,199.000000,20.015717,16.658783,-36.437988,199.000000,29.099960,33.299957,-91.350006,199.000000
2000.000000,0.159668,-0.179687,1.051758,200.000000,27.217865,19.527435,-33.996582,200.000000,30.599960,33.299957,-91.350006,200.000000
2010.000000,0.154297,-0.186035,1.057129,201.000000,31.429291,20.931244,-32.531738,201.000000,29.999954,35.549957,-91.050003,201.000000
2020.000000,0.110352,-0.167480,1.046875,202.000000,29.537201,21.968842,-31.677246,202.000000,29.999954,34.649963,-92.700012,202.000000
2030.000000,0.099121,-0.125977,1.020019,203.000000,25.630951,19.710541,-29.113770,203.000000,28.949966,34.649963,-92.700012,203.000000
2040.000000,0.096680,-0.061035,1.017578,204.000000,19.710541,20.320892,-28.320312,204.000000,28.499954,34.949966,-91.200012,204.000000
2050.000000,0.080566,-0.024414,1.044433,205.000000,16.780853,20.320892,-30.212402,205.000000,28.199966,33.299957,-92.400009,205.000000
2060.000000,0.074707,-0.015137,1.014160,206.000000,15.377045,17.757416,-33.386230,206.000000,28.199966,32.699966,-92.250000,206.000000
2070.000000,0.076172,-0.032227,1.007812,207.000000,15.682220,16.231537,-38.330078,207.000000,28.649963,32.699966,-92.250000,207.000000
2080.000000,0.083496,-0.048340,1.009765,208.000000,17.635345,15.438080,-40.649414,208.000000,28.049957,33.449966,-92.700012,208.000000
2090.000000,0.092773,-0.088867,1.018066,209.000000,20.992279,13.851166,-45.471191,209.000000,28.049957,33.599960,-92.400009,209.000000
2100.000000,0.124023,-0.093262,1.014648,210.000000,27.034760,14.461517,-46.325684,210.000000,28.499954,33.599960,-92.400009,210.000000
2110.000000,0.123535,-0.087402,1.024902,211.000000,34.786224,16.475677,-48.217773,211.000000,28.049957,32.549957,-93.600006,211.000000
2120.000000,0.155762,-0.058594,1.063965,212.000000,40.645599,19.222260,-51.208496,212.000000,28.049957,32.549957,-93.900009,212.000000
2130.000000,0.157715,-0.075195,1.087890,213.000000,47.664642,24.532318,-54.199219,213.000000,27.149963,32.549957,-93.900009,213.000000
2140.000000,0.149902,-0.063477,1.106933,214.000000,56.392670,31.368256,-59.387207,214.000000,26.699966,32.399963,-93.300003,214.000000
2150.000000,0.089844,-0.061523,1.087890,215.000000,65.547943,37.105560,-66.040039,215.000000,25.799957,32.099960,-93.600006,215.000000
2160.000000,0.070312,-0.036621,0.994629,216.000000,66.890717,37.899017,-71.960449,216.000000,26.699966,31.649963,-96.150009,216.000000
2170.000000,0.075195,-0.033691,0.981933,217.000000,68.904877,37.410736,-75.439453,217.000000,26.699966,31.799957,-96.000000,217.000000
2180.000000,0.065918,-0.023438,0.982910,218.000000,70.980072,37.227631,-77.575684,218.000000,25.049957,31.799957,-96.000000,218.000000
2190.000000,0.064453,-0.039062,0.971679,219.000000,69.515228,28.743744,-80.261230,219.000000,26.249954,31.199966,-95.850006,219.000000
2200.000000,0.051270,-0.013184,0.988281,220.000000,67.195892,23.189545,-78.796387,220.000000,25.799957,30.299957,-98.100006,220.000000
2210.000000,0.023926,0.002930,0.996582,221.000000,65.303802,25.508881,-79.406738,221.000000,25.799957,29.399963,-97.650009,221.000000
2220.000000,0.017090,0.044922,0.975586,222.000000,63.533783,28.377533,-83.129883,222.000000,24.899963,29.399963,-97.650009,222.000000
2230.000000,0.021484,0.062012,0.966308,223.000000,60.543060,26.180267,-83.496094,223.000000,23.399963,29.249954,-98.550003,223.000000
2240.000000,0.051270,0.078613,0.988769,224.000000,58.101654,21.297455,-86.486816,224.000000,23.399963,27.749954,-98.850006,224.000000
2250.000000,0.056152,0.098145,1.001465,225.000000,58.712006,13.973236,-87.158203,225.000000,23.249954,27.749954,-98.850006,225.000000
2260.000000,0.054687,0.106445,0.975097,226.000000,61.275482,5.123138,-90.148926,226.000000,21.749954,26.699966,-99.300003,226.000000
2270.000000,0.027832,0.093262,1.009277,227.000000,57.552338,-2.258301,-93.322754,227.000000,21.749954,27.149963,-101.100006,227.000000
2280.000000,0.060547,0.104980,1.038086,228.000000,54.805756,-15.747070,-91.064453,228.000000,21.149963,27.149963,-101.100006,228.000000
2290.000000,0.065918,0.106445,0.999023,229.000000,49.739838,-18.127441,-92.102051,229.000000,19.949966,24.899963,-100.800003,229.000000
2300.000000,0.076660,0.100586,0.988281,230.000000,40.401459,-19.042969,-90.576172,230.000000,19.949966,25.199966,-101.550003,230.000000
2310.000000,0.078613,0.124512,0.991211,231.000000,31.612396,-11.779785,-86.791992,231.000000,20.699966,25.199966,-101.550003,231.000000
2320.000000,0.096680,0.161621,1.004394,232.000000,20.442963,-10.375977,-81.848145,232.000000,19.799957,24.449966,-101.100006,232.000000
2330.000000,0.088867,0.163574,1.001953,233.000000,11.959076,-18.127441,-78.125000,233.000000,19.799957,23.549957,-101.250000,233.000000
2340.000000,0.087891,0.160644,0.993164,234.000000,3.170013,-24.353027,-73.425293,234.000000,19.949966,23.549957,-101.250000,234.000000
2350.000000,0.101562,0.174805,0.965820,235.000000,-2.014160,-36.315918,-70.129395,235.000000,17.999954,24.149963,-102.900009,235.000000
2360.000000,0.104980,0.159180,0.976562,236.000000,-0.122070,-51.818848,-70.800781,236.000000,17.849960,23.249954,-102.750000,236.000000
2370.000000,0.084961,0.164062,0.967773,237.000000,8.235931,-66.223145,-72.631836,237.000000,17.849960,23.399963,-103.200012,237.000000
2380.000000,0.110352,0.147461,0.957031,238.000000,15.804291,-72.570801,-75.683594,238.000000,17.099960,23.399963,-103.200012,238.000000
2390.000000,0.082031,0.134277,0.972168,239.000000,24.227142,-69.885254,-76.293945,239.000000,16.799957,21.149963,-102.150009,239.000000
2400.000000,0.071289,0.140625,0.944336,240.000000,27.400970,-61.218262,-79.284668,240.000000,16.799957,22.649963,-101.850006,240.000000
2410.000000,0.050781,0.089355,0.940918,241.000000,26.607513,-40.405273,-81.787109,241.000000,16.649963,22.649963,-101.850006,241.000000
2420.000000,0.030273,0.103027,0.938476,242.000000,24.105072,-19.348145,-77.026367,242.000000,14.849960,20.999954,-101.700012,242.000000
2430.000000,0.057617,0.073730,0.879394,243.000000,14.034271,-5.249023,-68.420410,243.000000,14.849960,22.049957,-102.450012,243.000000
2440.000000,0.044922,0.094238,0.895508,244.000000,6.282806,-6.286621,-53.588867,244.000000,14.999954,22.049957,-102.450012,244.000000
2450.000000,0.071777,0.113281,0.876953,245.000000,7.686615,-12.329102,-40.039062,245.000000,14.999954,19.349960,-103.200012,245.000000
2460.000000,0.096680,0.221191,0.974609,246.000000,12.813568,-19.958496,-41.442871,246.000000,14.249954,18.899963,-101.550003,246.000000
2470.000000,0.099121,0.216797,0.950683,247.000000,17.940521,-26.184082,-50.720215,247.000000,13.949966,18.599960,-101.100006,247.000000
2480.000000,0.123535,0.202637,0.934570,248.000000,23.494720,-29.052734,-57.189941,248.000000,13.949966,18.899963,-102.600006,248.000000
2490.000000,0.098633,0.207031,0.965820,249.000000,36.739349,-29.174805,-62.133789,249.000000,13.049957,18.899963,-102.600006,249.000000
2500.000000,0.085449,0.216309,0.913086,250.000000,47.908783,-31.433105,-72.937012,250.000000,12.149963,18.299957,-102.000000,250.000000
2510.000000,0.090332,0.240234,0.900390,251.000000,50.106049,-31.372070,-79.956055,251.000000,13.199966,17.399963,-101.100006,251.000000
2520.000000,0.141602,0.205566,0.923340,252.000000,61.336517,-27.404785,-82.580566,252.000000,13.199966,15.899963,-101.100006,252.000000
2530.000000,0.225098,0.246094,0.909179,253.000000,63.167572,-27.099609,-77.758789,253.000000,12.149963,15.899963,-101.100006,253.000000
2540.000000,0.306152,0.273926,0.935058,254.000000,95.760345,-35.461426,-68.237305,254.000000,11.699966,17.099960,-102.600006,254.000000
2550.000000,0.143555,0.318848,1.061035,255.000000,110.164642,-49.926758,-62.561035,255.000000,11.699966,15.899963,-101.850006,255.000000
2560.000000,0.109375,0.205078,0.932129,256.000000,112.911224,-70.922852,-61.035156,256.000000,11.399963,15.899963,-101.850006,256.000000
2570.000000,-0.120605,0.184570,0.893066,257.000000,153.011322,-94.726562,-52.734375,257.000000,10.349960,14.099960,-102.900009,257.000000
2580.000000,0.285644,0.539062,1.126953,258.000000,79.830170,17.757416,-94.421387,258.000000,10.349960,14.099960,-101.850006,258.000000
2590.000000,-0.025391,0.490234,1.342285,259.000000,26.119232,-82.031250,-65.063477,259.000000,10.199966,14.099960,-101.850006,259.000000
2600.000000,0.062012,0.416016,0.964355,260.000000,10.921478,-23.742676,-52.185059,260.000000,10.499954,11.699966,-103.050003,260.000000
2610.000000,0.025879,0.395019,0.918457,261.000000,18.306732,-0.366211,-47.363281,261.000000,10.499954,10.949966,-101.250000,261.000000
2620.000000,0.000488,0.372559,0.881347,262.000000,14.400482,0.118256,-52.673340,262.000000,7.799957,10.949966,-101.250000,262.000000
2630.000000,0.187012,0.372070,0.855957,263.000000,46.688080,22.884369,-46.447754,263.000000,9.599960,10.049957,-102.600006,263.000000
2640.000000,0.139160,0.190430,1.043457,264.000000,29.170990,103.755951,-40.527344,264.000000,9.599960,10.799957,-102.150009,264.000000
2650.000000,0.070312,0.511230,0.936523,265.000000,23.860931,95.088959,-32.958984,265.000000,9.449966,10.799957,-102.150009,265.000000
2660.000000,-0.046875,0.520996,0.935547,266.000000,3.170013,110.958099,-28.320312,266.000000,10.649963,8.999954,-102.450012,266.000000
2670.000000,-0.023438,0.586426,0.886719,267.000000,-12.939453,92.830658,-30.395508,267.000000,9.899963,8.549957,-103.650009,267.000000
2680.000000,-0.001465,0.516601,0.938965,268.000000,-24.719238,84.529877,-22.888184,268.000000,9.899963,8.549957,-103.950012,268.000000
2690.000000,0.035645,0.465820,0.944336,269.000000,-18.676758,92.281342,-10.131836,269.000000,9.899963,8.549957,-103.950012,269.000000
2700.000000,-0.099121,0.437500,0.921386,270.000000,-7.812500,102.474213,1.522064,270.000000,10.499954,9.299957,-105.450012,270.000000
2710.000000,-0.109863,0.491211,0.856933,271.000000,-9.277344,130.123138,0.179291,271.000000,10.499954,7.499954,-105.900009,271.000000
2720.000000,-0.108398,0.536621,0.891601,272.000000,-28.686523,171.504974,-2.319336,272.000000,14.399963,7.499954,-105.900009,272.000000
2730.000000,-0.090820,0.483887,0.885742,273.000000,-45.288086,186.336517,-5.004883,273.000000,13.499954,7.199966,-106.950012,273.000000
2740.000000,-0.248047,0.432617,0.865722,274.000000,-60.729980,189.632416,3.047943,274.000000,13.499954,9.299957,-107.850006,274.000000
2750.000000,-0.235352,0.422851,0.727539,275.000000,-126.403809,207.698822,31.856537,275.000000,16.049957,9.299957,-107.850006,275.000000
2760.000000,-0.264648,0.417969,0.802734,276.000000,-160.400391,215.084076,38.570404,276.000000,16.049957,9.599960,-108.600006,276.000000
2770.000000,-0.381836,0.463867,0.815918,277.000000,-174.804688,239.620209,34.114838,277.000000,18.899963,9.599960,-108.600006,277.000000
2780.000000,-0.464355,0.495117,1.025879,278.000000,-186.889648,212.398529,42.537689,278.000000,20.849960,10.799957,-108.900009,278.000000
2790.000000,-0.397949,0.441406,1.123535,279.000000,-224.731445,183.101654,53.035736,279.000000,20.849960,10.499954,-108.450012,279.000000
2800.000000,-0.454101,0.459961,1.528808,280.000000,-190.368652,123.531342,40.523529,280.000000,21.449966,10.499954,-108.450012,280.000000
2810.000000,-0.321777,-0.111816,1.567871,281.000000,-149.597168,-14.770508,4.390717,281.000000,24.149963,12.149963,-108.150009,281.000000
2820.000000,-0.151855,-0.507812,1.526367,282.000000,1.094818,-106.445312,-55.419922,282.000000,24.599960,14.249954,-107.700012,282.000000
2830.000000,-0.227051,-0.368164,0.940918,283.000000,16.353607,-74.462891,-26.000977,283.000000,24.599960,14.849960,-107.100006,283.000000
2840.000000,-0.186035,0.083984,0.605469,284.000000,8.846283,-18.554688,-51.818848,284.000000,23.099960,14.849960,-107.100006,284.000000
2850.000000,-0.196289,0.224609,0.740234,285.000000,25.691986,21.602631,-25.268555,285.000000,21.749954,14.999954,-106.200012,285.000000
2860.000000,-0.010254,0.704590,0.628418,286.000000,-25.939941,69.637299,58.834076,286.000000,21.749954,15.149963,-106.050003,286.000000
2870.000000,-0.141113,0.310059,0.768066,287.000000,-49.255371,88.619232,59.322357,287.000000,22.049957,15.149963,-106.050003,287.000000
2880.000000,-0.040527,0.210449,0.975586,288.000000,-35.278320,50.167084,32.344818,288.000000,24.299957,15.749954,-107.700012,288.000000
2890.000000,-0.020020,0.376953,1.056152,289.000000,-39.978027,6.404877,46.138763,289.000000,24.299957,16.649963,-107.550003,289.000000
2900.000000,-0.108887,0.267578,0.965332,290.000000,-48.645020,-18.859863,35.274506,290.000000,24.899963,16.649963,-107.550003,290.000000
2910.000000,-0.107422,0.257812,1.048340,291.000000,-44.189453,-61.462402,23.311615,291.000000,24.299957,16.499954,-106.950012,291.000000
2920.000000,-0.204102,0.483887,1.228027,292.000000,-101.989746,-136.779785,26.363373,292.000000,24.299957,15.149963,-106.050003,292.000000
2930.000000,-0.217285,0.377930,1.108886,293.000000,-106.384277,-237.060547,9.151459,293.000000,23.099960,15.149963,-106.050003,293.000000
2940.000000,-0.201172,0.309570,0.931152,294.000000,-137.756348,-220.336914,-9.399414,294.000000,22.349960,16.199966,-105.900009,294.000000
2950.000000,-0.217773,0.083008,0.939453,295.000000,-122.131348,-179.443359,-19.836426,295.000000,22.349960,17.699966,-105.150009,295.000000
2960.000000,-0.205566,-0.037598,1.056640,296.000000,-98.022461,-158.996582,-20.263672,296.000000,21.299957,17.699966,-105.150009,296.000000
2970.000000,-0.154297,-0.166992,1.060058,297.000000,-60.852051,-126.525879,-36.193848,297.000000,19.049957,16.949966,-103.800003,297.000000
2980.000000,-0.107422,-0.199707,1.050293,298.000000,-30.944824,-105.834961,-44.555664,298.000000,19.349960,16.949966,-103.800003,298.000000
2990.000000,-0.002441,-0.128418,1.059570,299.000000,-10.375977,-97.351074,-55.175781,299.000000,19.349960,19.349960,-102.900009,299.000000
3000.000000,-0.039551,-0.015137,1.082519,300.000000,-1.220703,-93.444824,-57.922363,300.000000,19.049957,19.349960,-102.900009,300.000000
3010.000000,0.016602,-0.041016,1.002441,301.000000,8.052826,-89.294434,-56.701660,301.000000,18.449966,17.699966,-102.450012,301.000000
3020.000000,0.003906,0.046387,1.039551,302.000000,14.461517,-91.552734,-50.415039,302.000000,18.449966,19.799957,-102.000000,302.000000
3030.000000,-0.026855,0.123535,1.003906,303.000000,18.978119,-92.590332,-44.250488,303.000000,16.949966,19.799957,-102.000000,303.000000
3040.000000,-0.036621,0.107910,1.003906,304.000000,18.672943,-90.209961,-40.832520,304.000000,15.899963,17.999954,-100.950012,304.000000
3050.000000,0.020996,0.143555,0.905273,305.000000,-32.531738,-77.575684,-39.978027,305.000000,16.199966,19.049957,-100.950012,305.000000
3060.000000,-0.131348,0.145508,0.948730,306.000000,-46.997070,-43.701172,-31.066895,306.000000,15.899963,16.499954,-100.950012,306.000000
3070.000000,-0.963867,0.070801,1.022949,307.000000,-52.001953,-24.353027,-22.888184,307.000000,15.899963,17.999954,-100.200012,307.000000
3080.000000,0.871582,0.043457,1.621582,308.000000,-52.185059,-31.677246,6.832123,308.000000,15.299957,17.999954,-100.200012,308.000000
3090.000000,0.875488,-0.145996,0.287109,309.000000,6.465912,45.162201,-35.034180,309.000000,13.949966,17.849960,-99.000000,309.000000
3100.000000,-0.077148,-0.209473,1.722167,310.000000,84.407806,12.630463,-27.099609,310.000000,13.949966,18.899963,-101.100006,310.000000
3110.000000,-0.402832,-0.234375,0.235352,311.000000,30.941010,-18.859863,-10.803223,311.000000,14.849960,18.899963,-101.100006,311.000000
3120.000000,-0.365723,-0.320312,0.790527,312.000000,103.389740,-65.917969,18.062592,312.000000,14.849960,17.999954,-99.600006,312.000000
3130.000000,-0.283691,0.290039,1.251953,313.000000,58.284760,5.611420,-31.372070,313.000000,14.099960,17.699966,-99.900009,313.000000
3140.000000,-0.055176,0.289551,0.502930,314.000000,-8.483887,-14.160156,-30.334473,314.000000,14.099960,16.499954,-100.200012,314.000000
3150.000000,0.076172,0.423828,0.898437,315.000000,-31.555176,-8.300781,-36.987305,315.000000,14.849960,16.499954,-100.200012,315.000000
3160.000000,0.053223,0.273437,1.065429,316.000000,-11.291504,-15.441895,-32.104492,316.000000,14.699966,15.749954,-100.200012,316.000000
3170.000000,0.045410,0.134766,1.175293,317.000000,3.658295,-31.433105,-21.606445,317.000000,14.699966,16.349960,-101.100006,317.000000
3180.000000,0.020996,0.100098,1.102051,318.000000,0.911713,-43.579102,-20.080566,318.000000,12.299957,16.349960,-101.100006,318.000000
3190.000000,0.033691,0.118164,1.057129,319.000000,-0.854492,-41.748047,-27.404785,319.000000,11.399963,15.749954,-100.200012,319.000000
3200.000000,-0.014648,0.095215,1.055664,320.000000,3.841400,-24.902344,-33.691406,320.000000,11.399963,16.649963,-101.550003,320.000000
3210.000000,0.017578,0.106934,1.011719,321.000000,5.245209,-6.164551,-37.597656,321.000000,12.149963,16.649963,-101.550003,321.000000
3220.000000,0.015137,0.125488,1.025390,322.000000,4.878998,4.451752,-36.437988,322.000000,12.149963,16.649963,-100.050003,322.000000
3230.000000,-0.016602,0.167969,1.001953,323.000000,-5.859375,8.663177,-29.052734,323.000000,12.149963,14.849960,-102.150009,323.000000
3240.000000,0.031250,0.132812,0.982910,324.000000,-8.239746,-2.624512,-19.897461,324.000000,12.899963,14.849960,-102.150009,324.000000
3250.000000,0.048340,0.137695,0.998535,325.000000,-9.094238,-14.099121,-12.084961,325.000000,13.949966,15.149963,-100.500000,325.000000
3260.000000,0.069336,0.135254,1.027344,326.000000,-9.338379,-31.921387,-6.896973,326.000000,13.949966,14.849960,-102.150009,326.000000
3270.000000,0.058105,0.109375,0.999023,327.000000,-7.080078,-44.250488,-4.943848,327.000000,11.549957,14.849960,-102.150009,327.000000
3280.000000,0.059570,0.129883,1.026855,328.000000,-4.943848,-48.339844,-4.943848,328.000000,11.549957,15.749954,-99.900009,328.000000
3290.000000,0.056641,0.113770,1.008789,329.000000,0.000000,-41.992188,-5.126953,329.000000,12.299957,15.749954,-100.650009,329.000000
3300.000000,0.066895,0.108398,1.036133,330.000000,8.052826,-36.560059,-9.826660,330.000000,12.299957,15.749954,-100.200012,330.000000
3310.000000,0.091797,0.151855,1.030273,331.000000,15.499115,-33.874512,-16.784668,331.000000,12.449966,15.749954,-100.200012,331.000000
3320.000000,0.090332,0.133789,1.003906,332.000000,23.677826,-34.729004,-18.432617,332.000000,11.249954,15.149963,-100.050003,332.000000
3330.000000,0.120605,0.112793,0.984375,333.000000,33.687592,-39.916992,-19.897461,333.000000,11.249954,14.249954,-99.900009,333.000000
3340.000000,0.127441,0.160156,1.015625,334.000000,35.457611,-43.029785,-22.033691,334.000000,11.249954,14.249954,-99.900009,334.000000
3350.000000,0.213867,0.111816,0.990234,335.000000,50.777435,-47.668457,-20.812988,335.000000,10.349960,13.949966,-100.200012,335.000000
3360.000000,0.248535,0.267578,1.045898,336.000000,54.439545,-50.598145,-18.371582,336.000000,11.249954,14.849960,-100.050003,336.000000
3370.000000,0.152344,0.231934,1.015136,337.000000,35.457611,-55.908203,-26.306152,337.000000,10.799957,14.249954,-100.200012,337.000000
3380.000000,0.136230,0.275391,0.936035,338.000000,41.133881,-58.715820,-29.357910,338.000000,10.799957,13.499954,-100.200012,338.000000
3390.000000,-0.003906,0.214844,1.022461,339.000000,32.527924,-59.631348,-34.973145,339.000000,10.349960,13.499954,-100.200012,339.000000
3400.000000,0.115234,0.093750,0.869140,340.000000,35.640717,-54.077148,-24.291992,340.000000,9.749954,13.349960,-99.000000,340.000000
3410.000000,0.056152,0.240723,0.954101,341.000000,20.198822,-37.902832,-30.456543,341.000000,9.749954,13.199966,-98.550003,341.000000
3420.000000,0.106934,0.226562,0.922363,342.000000,32.711029,-31.738281,-26.428223,342.000000,9.299957,13.199966,-98.550003,342.000000
3430.000000,-0.011230,0.222656,0.992187,343.000000,3.719330,-24.169922,-30.212402,343.000000,7.799957,13.349960,-99.750000,343.000000
3440.000000,0.220215,0.173340,0.852051,344.000000,-8.056641,-20.019531,-14.465332,344.000000,9.449966,12.149963,-99.300003,344.000000
3450.000000,0.140137,0.389160,1.044922,345.000000,-47.424316,-10.498047,-25.024414,345.000000,9.449966,11.999954,-98.850006,345.000000
3460.000000,0.172363,0.334473,1.002929,346.000000,-65.002441,-1.647949,-21.301270,346.000000,8.399963,11.999954,-98.850006,346.000000
3470.000000,0.157715,0.259766,1.048340,347.000000,-50.109863,12.630463,-13.366699,347.000000,7.799957,11.249954,-99.900009,347.000000
3480.000000,0.138184,0.215820,1.098144,348.000000,-41.320801,21.724701,-3.723145,348.000000,7.799957,11.849960,-99.300003,348.000000
3490.000000,0.108398,0.190918,1.013672,349.000000,-48.034668,30.818939,5.123138,349.000000,7.649963,11.849960,-99.300003,349.000000
3500.000000,0.124023,0.221191,1.017578,350.000000,-40.710449,40.157318,7.015228,350.000000,7.949966,11.699966,-98.100006,350.000000
3510.000000,0.091797,0.166504,1.029785,351.000000,-34.790039,47.725677,5.794525,351.000000,7.949966,13.949966,-99.150009,351.000000
3520.000000,0.098633,0.174805,1.009765,352.000000,-41.809082,47.542572,7.808685,352.000000,7.649963,13.949966,-99.150009,352.000000
3530.000000,0.101074,0.215820,0.985840,353.000000,-56.091309,41.927338,6.465912,353.000000,8.549957,13.199966,-99.150009,353.000000
3540.000000,0.095703,0.244141,1.014160,354.000000,-64.270020,41.927338,2.498627,354.000000,8.549957,13.349960,-98.250000,354.000000
3550.000000,0.116699,0.205078,1.016601,355.000000,-46.997070,47.115326,3.170013,355.000000,8.849960,13.349960,-98.250000,355.000000
3560.000000,0.084473,0.147461,1.067383,356.000000,-29.602051,46.382904,6.710052,356.000000,9.449966,13.349960,-100.500000,356.000000
3570.000000,0.090332,0.126953,1.021484,357.000000,-24.963379,45.894623,12.630463,357.000000,9.449966,13.949966,-99.600006,357.000000
3580.000000,0.071289,0.121094,0.988281,358.000000,-26.062012,39.119720,13.240814,358.000000,10.349960,13.949966,-99.600006,358.000000
3590.000000,0.083008,0.143555,0.984863,359.000000,-24.169922,39.791107,12.630463,359.000000,10.499954,14.399963,-98.250000,359.000000
3600.000000,0.079102,0.100098,1.016113,360.000000,-18.310547,42.354584,10.311127,360.000000,10.649963,12.749954,-99.150009,360.000000
3610.000000,0.052246,0.082031,1.028808,361.000000,-12.939453,44.368744,12.081146,361.000000,10.649963,12.899963,-100.500000,361.000000
3620.000000,0.062012,0.090332,1.030761,362.000000,-5.554199,43.819427,10.494232,362.000000,11.699966,12.899963,-100.500000,362.000000
3630.000000,0.051758,0.129883,1.017578,363.000000,-6.286621,38.692474,9.334564,363.000000,12.299957,13.649963,-101.100006,363.000000
3640.000000,0.066895,0.175781,1.001953,364.000000,-11.535645,33.870697,8.296967,364.000000,12.299957,13.199966,-100.650009,364.000000
3650.000000,0.064941,0.175293,1.009765,365.000000,-7.385254,26.180267,9.700775,365.000000,10.649963,13.199966,-100.650009,365.000000
3660.000000,0.064941,0.116699,1.008301,366.000000,-3.417969,20.931244,9.883881,366.000000,10.649963,14.399963,-100.050003,366.000000
3670.000000,0.063477,0.106934,0.992187,367.000000,1.644135,23.128510,9.334564,367.000000,10.799957,14.399963,-100.050003,367.000000
3680.000000,0.006348,0.100586,1.001953,368.000000,4.085541,25.630951,8.724213,368.000000,11.249954,14.699966,-100.950012,368.000000
3690.000000,-0.012695,0.083984,0.979492,369.000000,6.343842,27.095795,8.052826,369.000000,11.249954,13.949966,-100.200012,369.000000
3700.000000,0.003906,0.105957,0.955078,370.000000,5.428314,23.067474,7.930756,370.000000,10.799957,13.949966,-100.200012,370.000000
3710.000000,0.011719,0.147461,0.966308,371.000000,6.099701,16.475677,6.221771,371.000000,12.149963,16.199966,-99.900009,371.000000
3720.000000,-0.005371,0.189453,0.995117,372.000000,10.066986,6.282806,4.390717,372.000000,12.149963,14.099960,-101.850006,372.000000
3730.000000,0.057617,0.180176,0.961914,373.000000,10.066986,-5.920410,4.512787,373.000000,11.999954,14.099960,-101.850006,373.000000
3740.000000,-0.015137,0.236328,1.047363,374.000000,11.226654,-13.854980,0.545502,374.000000,11.999954,14.249954,-102.000000,374.000000
3750.000000,-0.004883,0.171875,0.973144,375.000000,8.358002,-13.732910,3.414154,375.000000,13.499954,13.949966,-100.650009,375.000000
3760.000000,-0.009277,0.172363,1.022461,376.000000,2.315521,-7.324219,2.254486,376.000000,13.499954,14.099960,-101.550003,376.000000
3770.000000,0.001465,0.137695,1.023437,377.000000,3.231049,1.827240,3.841400,377.000000,12.899963,14.099960,-101.550003,377.000000
3780.000000,0.005859,0.128906,1.020996,378.000000,2.376556,6.343842,5.611420,378.000000,13.499954,14.099960,-102.150009,378.000000
3790.000000,0.008789,0.137695,1.008789,379.000000,2.498627,10.677338,5.794525,379.000000,13.499954,15.149963,-100.800003,379.000000
3800.000000,0.009766,0.134277,0.983886,380.000000,0.057220,11.653900,5.733490,380.000000,14.099960,15.149963,-100.800003,380.000000
3810.000000,0.015137,0.137695,0.988769,381.000000,0.362396,10.066986,4.634857,381.000000,13.199966,13.949966,-101.700012,381.000000
3820.000000,0.010742,0.159668,0.969726,382.000000,-1.831055,6.526947,3.841400,382.000000,13.199966,15.149963,-102.150009,382.000000
3830.000000,0.017090,0.179687,0.989258,383.000000,-2.624512,6.160736,3.292084,383.000000,12.599960,15.149963,-102.150009,383.000000
3840.000000,0.018066,0.172363,0.973144,384.000000,-5.187988,1.827240,2.437592,384.000000,12.899963,13.499954,-103.050003,384.000000
3850.000000,0.042480,0.162109,0.983398,385.000000,-8.972168,-1.403809,1.277924,385.000000,12.899963,14.099960,-101.850006,385.000000
3860.000000,-0.001465,0.168945,1.018066,386.000000,-0.671387,-4.089355,-1.220703,386.000000,12.449966,14.099960,-101.850006,386.000000
3870.000000,0.019043,0.145508,0.997070,387.000000,2.925873,-3.051758,-3.234863,387.000000,11.549957,13.349960,-101.100006,387.000000
3880.000000,-0.025391,0.187988,1.007812,388.000000,4.146576,-3.723145,-2.319336,388.000000,11.549957,13.949966,-100.950012,388.000000
3890.000000,0.000977,0.174316,0.970703,389.000000,4.695892,-5.249023,-0.671387,389.000000,12.299957,13.949966,-100.950012,389.000000
3900.000000,-0.003906,0.165039,1.007324,390.000000,5.855560,-2.319336,-0.366211,390.000000,13.499954,14.699966,-100.650009,390.000000
3910.000000,0.000488,0.145996,0.994140,391.000000,8.480072,-0.915527,-0.366211,391.000000,12.899963,13.349960,-101.550003,391.000000
3920.000000,0.001953,0.169434,1.031738,392.000000,12.081146,2.132416,-0.183105,392.000000,12.899963,12.599960,-101.550003,392.000000
3930.000000,0.009766,0.155762,1.020019,393.000000,15.132904,5.977631,0.850677,393.000000,12.599960,12.599960,-101.550003,393.000000
3940.000000,0.017578,0.164551,1.025879,394.000000,20.259857,7.625580,0.728607,394.000000,12.149963,12.449966,-101.250000,394.000000
3950.000000,-0.005371,0.156250,1.017578,395.000000,25.386810,7.320404,0.179291,395.000000,12.149963,12.899963,-102.150009,395.000000
3960.000000,-0.042480,0.161133,1.002929,396.000000,23.494720,5.733490,-0.671387,396.000000,12.899963,12.899963,-102.150009,396.000000
3970.000000,-0.016113,0.180664,0.963379,397.000000,20.870209,4.695892,0.240326,397.000000,12.299957,15.149963,-103.200012,397.000000
3980.000000,0.007812,0.203125,0.994629,398.000000,19.283295,0.728607,2.437592,398.000000,12.299957,12.449966,-102.750000,398.000000
3990.000000,0.008301,0.227051,1.015625,399.000000,18.795013,0.301361,4.695892,399.000000,12.449966,12.449966,-102.750000,399.000000
4000.000000,-0.018555,0.209961,0.984863,400.000000,22.212982,1.888275,3.353119,400.000000,11.699966,13.649963,-101.850006,400.000000
4010.000000,0.020020,0.200195,1.000488,401.000000,27.706146,1.094818,3.780365,401.000000,11.699966,12.899963,-102.900009,401.000000
4020.000000,0.020508,0.221680,1.024414,402.000000,28.255463,0.301361,2.132416,402.000000,13.799957,12.899963,-102.900009,402.000000
4030.000000,0.037598,0.247070,0.988281,403.000000,35.579681,1.644135,0.301361,403.000000,11.699966,13.199966,-102.750000,403.000000
4040.000000,0.057129,0.276855,1.039551,404.000000,37.288666,0.484467,-2.502441,404.000000,11.699966,12.599960,-101.850006,404.000000
4050.000000,0.072266,0.225586,1.014648,405.000000,43.148041,1.399994,-2.258301,405.000000,13.049957,12.599960,-101.850006,405.000000
4060.000000,0.029785,0.204102,1.007324,406.000000,31.124115,2.803802,-2.075195,406.000000,12.599960,12.449966,-102.450012,406.000000
4070.000000,0.022949,0.250488,0.934082,407.000000,10.189056,-3.540039,-6.835938,407.000000,11.699966,12.449966,-103.050003,407.000000
4080.000000,-0.011719,0.220215,0.907715,408.000000,-9.033203,6.160736,0.545502,408.000000,11.699966,11.849960,-101.550003,408.000000
4090.000000,-0.104004,0.214355,0.911133,409.000000,-39.672852,8.174896,-5.004883,409.000000,12.449966,11.849960,-101.550003,409.000000
4100.000000,-0.020020,0.226074,0.958496,410.000000,-5.493164,34.114838,-3.356934,410.000000,12.149963,11.549957,-103.950012,410.000000
4110.000000,0.011230,0.284668,0.924804,411.000000,-27.954102,19.588470,-4.272461,411.000000,11.549957,12.899963,-102.600006,411.000000
4120.000000,-0.017090,0.302734,1.005371,412.000000,-9.033203,12.691498,-3.601074,412.000000,13.049957,12.449966,-103.050003,412.000000
4130.000000,-0.042969,0.261230,1.057617,413.000000,-5.249023,6.282806,-2.685547,413.000000,13.049957,11.699966,-103.500000,413.000000
4140.000000,-0.037109,0.300293,0.981445,414.000000,-14.404297,6.160736,-3.479004,414.000000,11.999954,11.699966,-103.500000,414.000000
4150.000000,-0.039062,0.267090,0.987304,415.000000,-18.127441,8.358002,-3.662109,415.000000,11.699966,11.699966,-102.750000,415.000000
4160.000000,-0.057129,0.238281,1.007324,416.000000,-17.883301,10.982513,-2.319336,416.000000,11.699966,12.899963,-102.900009,416.000000
4170.000000,-0.032227,0.238281,0.981933,417.000000,-19.897461,11.226654,0.057220,417.000000,13.049957,12.899963,-102.900009,417.000000
4180.000000,-0.033691,0.218750,0.969238,418.000000,-23.254395,11.653900,2.010345,418.000000,12.299957,11.699966,-103.500000,418.000000
4190.000000,-0.005371,0.220703,0.962890,419.000000,-24.414062,9.700775,3.780365,419.000000,12.299957,13.949966,-103.050003,419.000000
4200.000000,-0.024414,0.189453,0.988281,420.000000,-19.897461,7.381439,4.085541,420.000000,13.349960,13.949966,-103.050003,420.000000
4210.000000,0.000977,0.195801,0.963379,421.000000,-16.296387,4.756927,2.925873,421.000000,13.799957,11.999954,-104.550003,421.000000
4220.000000,-0.017090,0.216797,1.008789,422.000000,-17.944336,0.240326,1.094818,422.000000,12.449966,13.199966,-104.100006,422.000000
4230.000000,-0.005371,0.221680,0.984375,423.000000,-16.784668,-0.183105,-1.953125,423.000000,12.449966,12.149963,-102.150009,423.000000
4240.000000,-0.024902,0.221680,1.001953,424.000000,-12.268066,-0.793457,-3.173828,424.000000,15.449966,12.149963,-102.150009,424.000000
4250.000000,-0.024414,0.214355,0.995605,425.000000,-10.925293,-0.732422,-4.638672,425.000000,12.899963,11.699966,-103.050003,425.000000
4260.000000,-0.052246,0.235352,0.985840,426.000000,-11.657715,-0.427246,-5.004883,426.000000,12.899963,12.599960,-102.900009,426.000000
4270.000000,-0.029785,0.242187,0.994629,427.000000,-9.094238,-0.366211,-4.638672,427.000000,13.049957,12.599960,-102.900009,427.000000
4280.000000,-0.031738,0.252930,1.000000,428.000000,-10.009766,-0.549316,-3.845215,428.000000,12.449966,13.199966,-102.000000,428.000000
4290.000000,-0.031738,0.227539,0.990722,429.000000,-9.826660,-1.464844,-2.868652,429.000000,12.449966,12.599960,-102.600006,429.000000
4300.000000,-0.035645,0.209473,0.987304,430.000000,-9.826660,-2.197266,-0.732422,430.000000,13.049957,12.599960,-102.600006,430.000000
4310.000000,-0.025391,0.210449,0.975097,431.000000,-10.742188,-3.967285,-0.061035,431.000000,14.249954,12.449966,-103.800003,431.000000
4320.000000,-0.045898,0.187500,0.996582,432.000000,-8.544922,-4.516602,0.423431,432.000000,14.249954,12.899963,-102.900009,432.000000
4330.000000,-0.048828,0.203613,0.985351,433.000000,-10.070801,-4.333496,1.155853,433.000000,12.899963,12.899963,-102.900009,433.000000
4340.000000,0.007324,0.215820,0.987304,434.000000,-9.460449,-3.723145,0.972748,434.000000,15.149963,12.149963,-103.650009,434.000000
4350.000000,-0.028809,0.229492,1.000000,435.000000,-10.314941,-3.112793,-0.915527,435.000000,15.149963,13.949966,-102.450012,435.000000
4360.000000,-0.028320,0.219727,0.990234,436.000000,-7.080078,-3.356934,-0.488281,436.000000,12.899963,13.949966,-102.450012,436.000000
4370.000000,-0.041992,0.214844,1.001465,437.000000,-7.873535,-1.831055,-1.770020,437.000000,13.799957,13.649963,-102.600006,437.000000
4380.000000,-0.033203,0.225098,1.000488,438.000000,-5.676270,-0.610352,-2.746582,438.000000,14.399963,12.749954,-102.750000,438.000000
4390.000000,-0.045410,0.225586,0.995605,439.000000,-5.981445,-0.549316,-1.831055,439.000000,14.399963,14.249954,-103.800003,439.000000
4400.000000,-0.038574,0.215820,0.984375,440.000000,-9.277344,-1.464844,-1.220703,440.000000,14.099960,14.249954,-103.800003,440.000000
4410.000000,-0.035645,0.219238,0.976562,441.000000,-9.155273,-2.746582,0.000000,441.000000,14.099960,12.449966,-103.050003,441.000000
4420.000000,-0.035156,0.216309,0.983886,442.000000,-8.972168,-2.990723,0.118256,442.000000,13.049957,12.449966,-103.050003,442.000000
4430.000000,-0.041992,0.193359,0.995117,443.000000,-7.751465,-0.854492,0.240326,443.000000,13.049957,13.499954,-102.450012,443.000000
4440.000000,-0.038086,0.191406,0.991699,444.000000,-7.751465,0.179291,-1.525879,444.000000,13.049957,11.999954,-104.550003,444.000000
4450.000000,-0.028320,0.208984,0.987304,445.000000,-8.239746,1.827240,-2.502441,445.000000,13.499954,11.999954,-104.550003,445.000000
4460.000000,-0.037598,0.210937,1.001465,446.000000,-7.446289,2.559662,-3.967285,446.000000,14.399963,12.899963,-103.200012,446.000000
4470.000000,-0.036621,0.228027,0.989258,447.000000,-7.568359,2.315521,-3.479004,447.000000,14.399963,12.749954,-103.800003,447.000000
4480.000000,-0.034668,0.221680,0.999023,448.000000,-8.911133,3.047943,-3.845215,448.000000,14.399963,12.749954,-103.800003,448.000000
4490.000000,-0.044434,0.232910,0.986328,449.000000,-6.469727,1.766205,-2.563477,449.000000,13.349960,12.749954,-104.100006,449.000000
4500.000000,-0.020996,0.210937,0.983398,450.000000,-6.530762,1.216888,0.545502,450.000000,13.349960,13.499954,-104.100006,450.000000
4510.000000,-0.017578,0.210449,0.995117,451.000000,-7.507324,-1.464844,0.972748,451.000000,13.199966,13.499954,-104.100006,451.000000
4520.000000,-0.032715,0.229004,0.995117,452.000000,-7.385254,-2.197266,1.216888,452.000000,14.099960,12.899963,-102.900009,452.000000
4530.000000,-0.026367,0.215820,0.979980,453.000000,-8.117676,-2.319336,0.362396,453.000000,13.349960,11.699966,-103.050003,453.000000
4540.000000,-0.039551,0.219238,0.994140,454.000000,-9.582520,-2.380371,-1.464844,454.000000,13.349960,12.749954,-102.750000,454.000000
4550.000000,-0.028809,0.198730,0.978515,455.000000,-9.338379,0.057220,-3.112793,455.000000,13.949966,12.749954,-102.750000,455.000000
4560.000000,-0.035645,0.189453,0.988769,456.000000,-7.202148,1.094818,-2.685547,456.000000,13.499954,13.649963,-103.200012,456.000000
4570.000000,-0.026367,0.196777,0.984375,457.000000,-6.774902,1.277924,-3.234863,457.000000,13.499954,12.149963,-102.600006,457.000000
4580.000000,-0.020508,0.193848,0.999023,458.000000,-7.080078,1.827240,-3.112793,458.000000,13.049957,12.149963,-102.600006,458.000000
4590.000000,-0.008301,0.199219,0.987304,459.000000,-4.882812,0.179291,-2.868652,459.000000,13.349960,13.199966,-103.500000,459.000000
4600.000000,-0.041016,0.210937,1.000000,460.000000,-4.394531,-1.586914,-2.136230,460.000000,13.349960,12.449966,-103.800003,460.000000
4610.000000,-0.029785,0.209961,0.993164,461.000000,-3.417969,-2.746582,-0.732422,461.000000,13.799957,12.449966,-103.800003,461.000000
4620.000000,-0.019531,0.204102,0.991211,462.000000,-4.028320,-4.211426,0.728607,462.000000,13.799957,13.949966,-101.700012,462.000000
4630.000000,-0.028320,0.208008,0.970703,463.000000,-4.882812,-4.760742,1.522064,463.000000,13.799957,13.499954,-103.050003,463.000000
4640.000000,-0.031738,0.200684,0.986328,464.000000,-5.126953,-4.333496,1.461029,464.000000,13.049957,13.499954,-103.050003,464.000000
4650.000000,-0.030762,0.198242,0.994629,465.000000,-6.042480,-4.760742,1.155853,465.000000,13.049957,13.499954,-103.800003,465.000000
4660.000000,-0.026367,0.199219,0.993164,466.000000,-5.249023,-3.723145,0.484467,466.000000,13.049957,12.449966,-102.750000,466.000000
4670.000000,-0.026855,0.200684,0.994140,467.000000,-6.042480,-2.441406,0.606537,467.000000,13.799957,12.449966,-102.750000,467.000000
4680.000000,-0.030273,0.202148,0.971679,468.000000,-7.080078,0.179291,-0.976562,468.000000,12.899963,12.749954,-102.000000,468.000000
4690.000000,-0.026855,0.190430,0.985351,469.000000,-7.812500,2.193451,-1.770020,469.000000,14.099960,13.649963,-102.900009,469.000000
4700.000000,-0.028320,0.191406,1.002441,470.000000,-7.019043,3.841400,-2.502441,470.000000,14.249954,11.699966,-103.800003,470.000000
4710.000000,-0.041016,0.207031,0.990234,471.000000,-7.019043,2.498627,-1.098633,471.000000,13.499954,12.599960,-103.950012,471.000000
4720.000000,-0.034180,0.215820,0.995605,472.000000,-5.920410,1.827240,-0.183105,472.000000,13.499954,14.399963,-103.650009,472.000000
4730.000000,-0.027344,0.223633,1.000976,473.000000,-5.187988,-0.488281,0.484467,473.000000,13.799957,14.399963,-103.650009,473.000000
4740.000000,-0.034668,0.208008,0.990234,474.000000,-4.028320,-2.197266,1.094818,474.000000,13.949966,11.999954,-102.750000,474.000000
4750.000000,-0.014648,0.207031,0.994629,475.000000,-3.417969,-2.441406,2.376556,475.000000,13.949966,13.349960,-102.150009,475.000000
4760.000000,-0.040039,0.208008,0.993164,476.000000,-3.906250,-2.197266,2.620697,476.000000,14.099960,13.349960,-102.150009,476.000000
4770.000000,-0.035645,0.208008,0.998047,477.000000,-3.051758,-1.770020,2.925873,477.000000,13.049957,13.499954,-103.500000,477.000000
4780.000000,-0.022949,0.209961,0.992676,478.000000,-6.591797,-1.525879,2.681732,478.000000,13.049957,14.699966,-102.450012,478.000000
4790.000000,-0.029297,0.215820,0.967285,479.000000,-7.141113,-1.098633,1.583099,479.000000,13.499954,14.699966,-102.450012,479.000000
4800.000000,-0.012207,0.213379,0.985840,480.000000,-7.995605,-0.854492,0.850677,480.000000,13.199966,11.549957,-102.900009,480.000000
4810.000000,-0.006836,0.189941,0.981933,481.000000,-6.347656,-1.403809,-0.061035,481.000000,13.199966,12.899963,-103.200012,481.000000
4820.000000,-0.051270,0.205078,1.006836,482.000000,-6.164551,-1.037598,-0.610352,482.000000,13.499954,12.899963,-103.200012,482.000000
4830.000000,-0.013672,0.200684,0.981933,483.000000,-4.699707,-1.770020,0.484467,483.000000,12.599960,12.899963,-102.150009,483.000000
4840.000000,-0.025391,0.198730,1.000488,484.000000,-5.981445,-3.051758,1.827240,484.000000,12.899963,13.949966,-103.500000,484.000000
4850.000000,-0.028320,0.192383,0.978027,485.000000,-5.981445,-3.356934,2.803802,485.000000,12.899963,12.599960,-102.150009,485.000000
4860.000000,-0.056641,0.214355,0.991699,486.000000,-7.141113,-5.187988,1.827240,486.000000,13.799957,12.599960,-102.150009,486.000000
4870.000000,-0.046875,0.184082,0.975097,487.000000,-5.981445,-7.019043,3.902435,487.000000,12.449966,14.699966,-103.500000,487.000000
4880.000000,-0.026367,0.191406,1.000976,488.000000,-4.821777,-6.835938,3.353119,488.000000,12.449966,13.349960,-103.200012,488.000000
4890.000000,-0.024902,0.230469,0.998535,489.000000,-7.019043,-5.676270,3.475189,489.000000,12.599960,13.349960,-103.200012,489.000000
4900.000000,-0.019043,0.223144,1.018066,490.000000,-8.117676,-7.446289,4.512787,490.000000,13.499954,11.699966,-102.750000,490.000000
4910.000000,0.006836,0.217285,0.983398,491.000000,-5.676270,-3.417969,4.512787,491.000000,13.499954,12.899963,-102.600006,491.000000
4920.000000,-0.013672,0.236328,1.017578,492.000000,-9.033203,-1.098633,3.231049,492.000000,12.899963,12.899963,-102.600006,492.000000
4930.000000,-0.008789,0.207031,0.980957,493.000000,-6.835938,-0.549316,2.437592,493.000000,12.599960,12.899963,-104.400009,493.000000
4940.000000,-0.004883,0.203613,1.016113,494.000000,-6.347656,-1.098633,0.850677,494.000000,12.599960,11.999954,-102.450012,494.000000
4950.000000,-0.012695,0.192383,0.984375,495.000000,-6.469727,-1.770020,0.606537,495.000000,13.799957,11.999954,-102.450012,495.000000
4960.000000,-0.035156,0.197754,0.996094,496.000000,-5.798340,-2.685547,-0.061035,496.000000,13.349960,13.199966,-102.450012,496.000000
4970.000000,-0.034180,0.188965,1.006347,497.000000,-5.432129,-3.295898,-0.061035,497.000000,13.349960,12.449966,-103.500000,497.000000
4980.000000,-0.024414,0.185059,1.003906,498.000000,-2.502441,-2.502441,1.949310,498.000000,13.799957,12.449966,-103.500000,498.000000
4990.000000,-0.052734,0.200195,0.995605,499.000000,-6.835938,-2.868652,3.231049,499.000000,12.599960,13.949966,-102.450012,499.000000
5000.000000,-0.004883,0.227539,0.986328,500.000000,-5.981445,-3.967285,3.658295,500.000000,13.949966,11.999954,-102.000000,500.000000
5010.000000,-0.008301,0.208984,0.998535,501.000000,-9.948730,-3.417969,5.672455,501.000000,14.699966,12.599960,-101.850006,501.000000
5020.000000,0.006348,0.210449,0.983886,502.000000,-10.375977,-2.685547,5.977631,502.000000,13.049957,13.649963,-102.600006,502.000000
5030.000000,-0.006836,0.220215,1.001465,503.000000,-9.826660,-0.427246,5.855560,503.000000,13.049957,14.699966,-103.800003,503.000000
5040.000000,-0.001465,0.214844,0.991699,504.000000,-12.023926,-1.159668,5.184174,504.000000,13.799957,14.699966,-103.800003,504.000000
5050.000000,-0.014648,0.220215,0.996582,505.000000,-10.986328,-2.136230,5.306244,505.000000,13.199966,13.199966,-102.000000,505.000000
5060.000000,-0.022461,0.221191,1.009277,506.000000,-8.972168,-4.699707,5.611420,506.000000,13.199966,14.099960,-102.600006,506.000000
5070.000000,-0.021484,0.208496,1.000000,507.000000,-5.371094,-4.638672,6.832123,507.000000,13.049957,14.099960,-102.600006,507.000000
5080.000000,-0.031250,0.188477,0.990722,508.000000,-5.859375,-4.150391,7.015228,508.000000,14.849960,12.749954,-102.000000,508.000000
5090.000000,-0.020996,0.200195,0.995117,509.000000,-3.112793,-3.479004,7.564545,509.000000,14.849960,13.199966,-100.950012,509.000000
5100.000000,-0.033691,0.175781,0.981445,510.000000,1.522064,-3.295898,7.137299,510.000000,13.049957,13.199966,-100.950012,510.000000
5110.000000,-0.025879,0.136230,1.009277,511.000000,6.465912,-4.882812,7.869720,511.000000,12.899963,11.699966,-100.950012,511.000000
5120.000000,-0.042969,0.161621,1.020996,512.000000,8.174896,-6.469727,11.165619,512.000000,12.899963,13.349960,-102.150009,512.000000
5130.000000,-0.016113,0.192871,1.011719,513.000000,11.104584,-7.080078,12.508392,513.000000,14.249954,13.349960,-102.150009,513.000000
5140.000000,-0.032227,0.212891,1.000000,514.000000,12.142181,-9.399414,16.719818,514.000000,14.999954,13.649963,-102.150009,514.000000
5150.000000,-0.041016,0.201172,1.012695,515.000000,13.545990,-12.756348,20.809174,515.000000,14.849960,13.649963,-102.600006,515.000000
5160.000000,-0.021484,0.200684,0.988281,516.000000,15.987396,-16.296387,26.729584,516.000000,14.849960,13.199966,-102.450012,516.000000
5170.000000,-0.042969,0.226074,0.992187,517.000000,13.973236,-19.104004,33.260345,517.000000,13.049957,13.199966,-102.450012,517.000000
5180.000000,-0.027344,0.213867,0.971191,518.000000,16.231537,-20.751953,36.739349,518.000000,16.049957,12.749954,-101.700012,518.000000
5190.000000,-0.020508,0.207031,1.009765,519.000000,19.283295,-22.338867,39.730072,519.000000,16.049957,13.649963,-102.900009,519.000000
5200.000000,-0.032715,0.201172,1.013183,520.000000,23.006439,-19.714355,41.439056,520.000000,13.199966,13.649963,-102.900009,520.000000
5210.000000,-0.066406,0.137695,1.031250,521.000000,35.640717,-19.531250,40.401459,521.000000,13.349960,12.899963,-101.550003,521.000000
5220.000000,0.003906,0.168457,1.046386,522.000000,40.706635,-15.869141,42.171478,522.000000,13.349960,14.699966,-101.700012,522.000000
5230.000000,-0.006348,0.227539,1.063965,523.000000,42.903900,-18.859863,45.284271,523.000000,14.099960,14.699966,-101.700012,523.000000
5240.000000,0.025879,0.301758,1.020996,524.000000,36.190033,-18.615723,50.777435,524.000000,13.949966,14.249954,-102.450012,524.000000
5250.000000,0.079590,0.305664,0.994629,525.000000,31.856537,-18.615723,55.110931,525.000000,13.949966,14.099960,-101.850006,525.000000
5260.000000,0.045410,0.297363,0.952148,526.000000,25.508881,-18.859863,60.420990,526.000000,14.699966,14.099960,-101.850006,526.000000
5270.000000,0.054199,0.331543,0.998535,527.000000,23.189545,-21.484375,64.327240,527.000000,13.799957,13.349960,-102.600006,527.000000
5280.000000,0.084961,0.328613,1.023926,528.000000,29.170990,-29.235840,67.928314,528.000000,13.799957,12.749954,-104.100006,528.000000
5290.000000,0.084473,0.300781,1.001953,529.000000,38.021088,-32.714844,69.820404,529.000000,12.299957,12.749954,-104.100006,529.000000
5300.000000,0.116699,0.353027,0.978027,530.000000,27.828217,-32.043457,77.938080,530.000000,14.249954,12.449966,-103.050003,530.000000
5310.000000,0.145508,0.362305,0.922851,531.000000,20.198822,-27.832031,83.309174,531.000000,14.249954,13.349960,-102.600006,531.000000
5320.000000,0.193359,0.312012,0.895019,532.000000,21.236420,-20.324707,81.233978,532.000000,14.849960,13.349960,-102.600006,532.000000
5330.000000,0.154297,0.352051,0.978515,533.000000,20.015717,-15.319824,75.801849,533.000000,15.749954,13.199966,-103.500000,533.000000
5340.000000,0.191894,0.331543,1.007812,534.000000,22.762299,-21.911621,78.853607,534.000000,15.749954,14.099960,-103.950012,534.000000
5350.000000,0.224121,0.312988,0.993652,535.000000,22.823334,-30.273438,77.877045,535.000000,13.799957,14.099960,-103.950012,535.000000
5360.000000,0.241211,0.364258,0.969238,536.000000,17.574310,-31.860352,71.041107,536.000000,15.749954,12.449966,-103.500000,536.000000
5370.000000,0.278320,0.385254,0.930176,537.000000,2.864838,-36.071777,69.149017,537.000000,15.749954,13.349960,-102.600006,537.000000
5380.000000,0.241699,0.441894,0.880859,538.000000,-10.925293,-35.034180,64.510345,538.000000,15.299957,13.349960,-102.600006,538.000000
5390.000000,0.208008,0.362305,0.989746,539.000000,-2.502441,-47.058105,63.472748,539.000000,16.049957,13.349960,-102.600006,539.000000
5400.000000,0.222656,0.348633,0.998047,540.000000,8.113861,-54.870605,66.951752,540.000000,16.049957,13.649963,-102.600006,540.000000
5410.000000,0.309570,0.475098,0.536133,541.000000,-53.161621,-3.112793,83.553314,541.000000,15.449966,13.649963,-102.600006,541.000000
5420.000000,0.261230,0.211426,0.928222,542.000000,-61.889648,-4.577637,46.199799,542.000000,14.099960,14.999954,-102.750000,542.000000
5430.000000,0.091797,0.280273,1.184082,543.000000,-13.793945,-15.441895,38.387299,543.000000,14.099960,15.449966,-103.500000,543.000000
5440.000000,0.240234,0.060547,0.768555,544.000000,-10.742188,-1.953125,43.453217,544.000000,16.199966,15.449966,-103.500000,544.000000
5450.000000,0.215820,0.206055,0.875000,545.000000,-26.550293,2.498627,35.030365,545.000000,16.799957,15.749954,-102.750000,545.000000
5460.000000,0.225586,0.240234,0.919922,546.000000,-12.145996,2.559662,27.584076,546.000000,16.349960,15.599960,-102.600006,546.000000
5470.000000,0.190918,0.245117,0.946777,547.000000,-2.624512,0.545502,24.471283,547.000000,16.349960,15.599960,-103.200012,547.000000
5480.000000,0.220215,0.207519,0.978027,548.000000,-5.126953,-7.080078,23.983002,548.000000,16.799957,15.599960,-103.200012,548.000000
5490.000000,0.222656,0.192871,0.939941,549.000000,1.766205,-13.854980,21.724701,549.000000,16.349960,14.849960,-101.550003,549.000000
5500.000000,0.238769,0.233887,0.927246,550.000000,6.526947,-15.258789,21.114349,550.000000,16.349960,15.899963,-102.600006,550.000000
5510.000000,0.209961,0.289062,0.957031,551.000000,6.649017,-20.141602,25.691986,551.000000,16.349960,15.899963,-102.600006,551.000000
5520.000000,0.204102,0.256348,0.947754,552.000000,4.329681,-20.812988,28.560638,552.000000,15.749954,16.649963,-103.650009,552.000000
5530.000000,0.107910,0.250488,0.952636,553.000000,42.354584,-17.700195,26.546478,553.000000,15.749954,17.099960,-102.900009,553.000000
5540.000000,0.215332,0.143555,1.115722,554.000000,46.016693,-20.446777,31.612396,554.000000,17.849960,17.099960,-102.900009,554.000000
5550.000000,0.242187,0.251953,0.927246,555.000000,40.950775,-16.662598,28.743744,555.000000,16.349960,16.649963,-102.600006,555.000000
5560.000000,0.153320,0.319336,0.853515,556.000000,18.550873,-8.239746,31.856537,556.000000,16.349960,16.349960,-102.900009,556.000000
5570.000000,0.204102,0.306152,0.869629,557.000000,21.236420,0.789642,27.156830,557.000000,15.299957,16.349960,-102.900009,557.000000
5580.000000,0.257324,0.229980,1.020508,558.000000,25.508881,2.376556,19.100189,558.000000,17.549957,15.599960,-101.550003,558.000000
5590.000000,0.133789,0.206055,0.906738,559.000000,29.964447,-3.051758,20.442963,559.000000,17.549957,14.399963,-101.550003,559.000000
5600.000000,0.270508,0.212402,0.940429,560.000000,0.240326,-0.244141,18.123627,560.000000,17.699966,14.399963,-101.550003,560.000000
5610.000000,0.130859,0.330078,0.798828,561.000000,-22.338867,5.916595,13.668060,561.000000,17.249954,16.199966,-104.100006,561.000000
5620.000000,-0.005859,0.247559,0.802246,562.000000,-23.620605,4.512787,21.175385,562.000000,17.249954,16.199966,-104.550003,562.000000
5630.000000,0.208984,0.196777,0.889160,563.000000,28.133392,1.033783,26.302338,563.000000,17.549957,16.199966,-104.550003,563.000000
5640.000000,0.279297,0.256836,0.941406,564.000000,20.870209,1.399994,27.523041,564.000000,16.199966,15.899963,-103.200012,564.000000
5650.000000,0.256836,0.337891,0.928222,565.000000,-5.432129,-3.662109,25.508881,565.000000,16.199966,15.449966,-103.500000,565.000000
5660.000000,0.156250,0.329101,0.897461,566.000000,-6.652832,-4.760742,26.790619,566.000000,18.599960,15.449966,-103.500000,566.000000
5670.000000,0.190918,0.313965,0.886719,567.000000,0.545502,-6.896973,32.283783,567.000000,18.749954,15.899963,-103.200012,567.000000
5680.000000,0.136719,0.246094,0.971679,568.000000,4.024506,-3.906250,41.805267,568.000000,18.749954,16.949966,-103.800003,568.000000
5690.000000,0.383789,0.328125,0.922363,569.000000,28.438568,-1.098633,51.021576,569.000000,17.849960,16.949966,-103.800003,569.000000
5700.000000,0.345703,0.356445,0.997558,570.000000,20.076752,3.597260,53.157806,570.000000,18.449966,16.349960,-103.200012,570.000000
5710.000000,0.178223,0.352051,0.973144,571.000000,20.137787,-0.183105,58.345795,571.000000,18.449966,16.949966,-103.500000,571.000000
5720.000000,0.156738,0.363281,0.852051,572.000000,-0.488281,-11.169434,60.543060,572.000000,17.249954,16.949966,-103.500000,572.000000
5730.000000,0.008789,0.270508,0.921386,573.000000,6.343842,-26.245117,55.965424,573.000000,19.649963,17.699966,-103.800003,573.000000
5740.000000,0.613281,0.208496,0.918945,574.000000,5.123138,-41.687012,55.538177,574.000000,19.649963,16.349960,-105.000000,574.000000
5750.000000,0.335937,0.209961,1.087402,575.000000,25.386810,-31.494141,44.429779,575.000000,18.899963,16.349960,-105.000000,575.000000
5760.000000,0.367187,0.241211,1.042969,576.000000,22.640228,-25.268555,47.603607,576.000000,18.749954,16.349960,-104.400009,576.000000
5770.000000,0.436523,0.357910,0.800781,577.000000,7.381439,-6.042480,46.749115,577.000000,17.549957,16.199966,-103.500000,577.000000
5780.000000,0.128906,0.419922,0.839844,578.000000,8.419037,-10.498047,50.228119,578.000000,17.549957,17.099960,-105.450012,578.000000
5790.000000,0.417969,0.298828,0.746094,579.000000,-7.141113,-33.996582,58.712006,579.000000,19.949966,17.099960,-105.450012,579.000000
5800.000000,0.160156,0.409180,0.834472,580.000000,27.706146,-97.412109,50.289154,580.000000,18.899963,15.599960,-104.700012,580.000000
5810.000000,0.347168,0.396484,-0.141113,581.000000,-113.769531,-425.476074,27.462006,581.000000,18.899963,17.399963,-103.200012,581.000000
5820.000000,0.388672,0.628906,0.967285,582.000000,-251.220703,-222.290039,67.745209,582.000000,17.699966,17.399963,-103.200012,582.000000
5830.000000,0.755859,0.283691,1.282714,583.000000,-147.216797,-158.020020,63.472748,583.000000,16.199966,16.499954,-102.750000,583.000000
5840.000000,0.512695,0.116211,1.807128,584.000000,70.491791,-8.911133,68.721771,584.000000,16.199966,16.949966,-101.250000,584.000000
5850.000000,0.428711,0.033203,1.342285,585.000000,79.341888,-22.460938,49.434662,585.000000,16.349960,16.949966,-101.250000,585.000000
5860.000000,0.469238,0.189453,0.699219,586.000000,-20.629883,-15.563965,34.481049,586.000000,15.149963,18.899963,-100.500000,586.000000
5870.000000,0.483398,0.246094,0.441894,587.000000,-50.292969,-6.774902,37.899017,587.000000,15.149963,19.499954,-100.950012,587.000000
5880.000000,0.523437,0.255859,0.805176,588.000000,-11.718750,0.000000,40.523529,588.000000,16.049957,19.499954,-100.950012,588.000000
5890.000000,0.483887,0.238769,1.099609,589.000000,38.265228,1.155853,38.448334,589.000000,17.699966,19.349960,-100.500000,589.000000
5900.000000,0.357422,0.264648,0.982422,590.000000,32.649994,7.137299,30.513763,590.000000,16.799957,18.749954,-99.600006,590.000000
5910.000000,0.369141,0.228027,0.730957,591.000000,4.695892,8.296967,37.471771,591.000000,15.749954,20.099960,-100.800003,591.000000
5920.000000,0.458496,0.212891,0.740234,592.000000,-4.577637,5.184174,41.805267,592.000000,17.099960,19.349960,-100.800003,592.000000
5930.000000,0.573242,0.239258,0.849121,593.000000,-6.774902,-1.037598,48.397064,593.000000,17.099960,19.349960,-101.550003,593.000000
5940.000000,0.522461,0.299316,0.875000,594.000000,-3.906250,3.597260,48.763275,594.000000,16.349960,19.349960,-101.550003,594.000000
5950.000000,0.534180,0.166992,0.857910,595.000000,10.066986,-1.281738,49.922943,595.000000,18.899963,19.649963,-101.550003,595.000000
5960.000000,0.562500,0.119629,0.932129,596.000000,18.001556,-8.789062,39.485931,596.000000,18.899963,19.349960,-100.500000,596.000000
5970.000000,0.482422,0.211426,0.966308,597.000000,41.988373,1.766205,27.523041,597.000000,17.249954,19.349960,-100.500000,597.000000
5980.000000,0.458496,0.107422,0.858886,598.000000,60.787201,4.207611,29.537201,598.000000,17.099960,18.749954,-99.900009,598.000000
5990.000000,0.518555,0.257812,0.903320,599.000000,56.270599,9.151459,25.569916,599.000000,17.099960,19.649963,-100.800003,599.000000
6000.000000,0.418945,0.210449,0.824219,600.000000,41.255951,11.409760,31.734467,600.000000,17.099960,19.649963,-100.800003,600.000000
6010.000000,0.401855,0.215820,0.752930,601.000000,17.452240,7.808685,23.189545,601.000000,18.599960,20.099960,-101.100006,601.000000
6020.000000,0.413574,0.228516,0.728515,602.000000,-5.126953,6.160736,24.288177,602.000000,18.599960,19.349960,-102.150009,602.000000
6030.000000,0.445801,0.166504,0.811035,603.000000,3.231049,1.888275,30.025482,603.000000,17.999954,19.349960,-102.150009,603.000000
6040.000000,0.507324,0.165527,0.844726,604.000000,15.743256,-2.319336,29.048920,604.000000,18.749954,20.249954,-100.950012,604.000000
6050.000000,0.521484,0.211426,0.855469,605.000000,21.602631,-3.051758,23.799896,605.000000,18.749954,18.749954,-101.700012,605.000000
6060.000000,0.500000,0.181641,0.877441,606.000000,24.044037,-6.713867,19.588470,606.000000,19.649963,18.749954,-101.700012,606.000000
6070.000000,0.457519,0.216797,0.862304,607.000000,28.133392,-4.516602,16.719818,607.000000,18.599960,18.149963,-101.100006,607.000000
6080.000000,0.479980,0.189941,0.834961,608.000000,34.297943,-2.624512,17.696381,608.000000,18.899963,18.899963,-101.100006,608.000000
6090.000000,0.530762,0.221680,0.860351,609.000000,37.532806,-3.967285,17.757416,609.000000,18.899963,18.899963,-102.150009,609.000000
6100.000000,0.538574,0.242676,0.813965,610.000000,34.053802,-6.408691,21.785736,610.000000,18.899963,18.899963,-102.150009,610.000000
6110.000000,0.481933,0.325195,0.791504,611.000000,19.832611,-6.835938,27.584076,611.000000,18.149963,18.149963,-102.150009,611.000000
6120.000000,0.512207,0.303223,0.752930,612.000000,13.301849,-0.610352,38.875580,612.000000,18.149963,17.099960,-101.550003,612.000000
6130.000000,0.604980,0.297852,0.733887,613.000000,6.221771,-2.563477,46.566010,613.000000,19.499954,17.099960,-101.550003,613.000000
6140.000000,0.614746,0.303223,0.791992,614.000000,-7.934570,-14.709473,47.847748,614.000000,19.499954,17.999954,-102.000000,614.000000
6150.000000,0.620117,0.251953,0.835937,615.000000,-5.310059,-12.268066,46.138763,615.000000,19.499954,17.999954,-103.050003,615.000000
6160.000000,0.643555,0.194824,0.850586,616.000000,5.123138,-25.512695,46.138763,616.000000,18.449966,17.999954,-103.050003,616.000000
6170.000000,0.655762,0.222168,0.876953,617.000000,9.761810,-32.470703,42.415619,617.000000,19.649963,18.299957,-100.950012,617.000000
6180.000000,0.567383,0.207031,0.935547,618.000000,21.724701,-34.362793,45.162201,618.000000,19.649963,17.849960,-102.900009,618.000000
6190.000000,0.514648,0.236328,0.912597,619.000000,14.949799,-6.042480,44.063568,619.000000,19.649963,17.849960,-102.900009,619.000000
6200.000000,0.535156,0.245605,0.809570,620.000000,-10.253906,14.766693,46.199799,620.000000,19.649963,18.599960,-103.200012,620.000000
6210.000000,0.548828,0.307129,0.733398,621.000000,-32.287598,1.888275,53.035736,621.000000,18.899963,19.649963,-102.600006,621.000000
6220.000000,0.532226,0.251465,0.734863,622.000000,-50.415039,-3.173828,54.500580,622.000000,19.949966,19.349960,-102.600006,622.000000
6230.000000,0.677246,0.162109,0.811035,623.000000,-61.584473,-5.065918,66.707611,623.000000,20.699966,18.599960,-102.150009,623.000000
6240.000000,0.662597,0.125000,0.942871,624.000000,-74.890137,-1.953125,74.947357,624.000000,20.699966,18.899963,-102.150009,624.000000
6250.000000,0.613281,0.128906,1.006836,625.000000,-63.842773,32.283783,78.914642,625.000000,21.149963,18.899963,-102.150009,625.000000
6260.000000,0.461914,0.078125,0.917969,626.000000,-27.099609,27.950287,64.571381,626.000000,22.199966,20.099960,-102.150009,626.000000
6270.000000,0.544922,0.092285,0.766113,627.000000,-45.898438,11.653900,57.308197,627.000000,22.199966,20.399963,-101.100006,627.000000
6280.000000,0.601562,0.150879,0.788574,628.000000,-106.445312,23.067474,62.374115,628.000000,21.749954,20.399963,-101.100006,628.000000
6290.000000,0.600098,0.246582,0.810058,629.000000,-127.197266,36.678314,72.750092,629.000000,22.049957,20.849960,-101.550003,629.000000
6300.000000,0.601074,0.267090,0.738281,630.000000,-144.409180,34.786224,63.106537,630.000000,22.049957,21.299957,-100.200012,630.000000
6310.000000,0.505371,0.178223,1.117187,631.000000,-27.648926,27.706146,51.631927,631.000000,23.249954,21.299957,-100.200012,631.000000
6320.000000,0.401367,-0.047363,0.739746,632.000000,-1.953125,32.161713,59.200287,632.000000,22.199966,21.899963,-100.800003,632.000000
6330.000000,0.550781,0.199707,0.854004,633.000000,-66.467285,5.733490,53.890228,633.000000,22.199966,22.349960,-98.250000,633.000000
6340.000000,0.606445,0.031250,0.853515,634.000000,-60.668945,26.424408,63.228607,634.000000,23.999954,22.349960,-98.250000,634.000000
6350.000000,0.585449,0.074707,0.757324,635.000000,-33.813477,19.649506,62.374115,635.000000,23.249954,23.849960,-99.300003,635.000000
6360.000000,0.673828,0.152832,0.854492,636.000000,-46.081543,7.320404,47.908783,636.000000,23.249954,24.449966,-98.700012,636.000000
6370.000000,0.568848,0.049316,0.922363,637.000000,-60.729980,21.602631,43.392181,637.000000,24.599960,24.449966,-98.700012,637.000000
6380.000000,0.408203,0.055176,0.957519,638.000000,-9.216309,15.193939,36.006927,638.000000,24.899963,24.149963,-99.000000,638.000000
6390.000000,0.428711,0.015625,0.767578,639.000000,7.686615,-0.610352,12.630463,639.000000,24.899963,24.299957,-100.200012,639.000000
6400.000000,0.491699,-0.080078,0.782226,640.000000,-21.545410,-14.831543,9.456635,640.000000,24.899963,25.499954,-98.100006,640.000000
6410.000000,0.485351,-0.081055,0.798828,641.000000,-24.719238,-18.981934,26.790619,641.000000,23.699966,25.499954,-98.100006,641.000000
6420.000000,0.523437,0.000488,0.858886,642.000000,-18.981934,-14.282227,35.030365,642.000000,26.099960,25.499954,-99.600006,642.000000
6430.000000,0.502441,0.022949,0.883301,643.000000,-14.587402,-8.728027,41.744232,643.000000,26.099960,25.199966,-99.750000,643.000000
6440.000000,0.576660,0.098145,0.813965,644.000000,-24.353027,-7.934570,36.373138,644.000000,25.199966,25.199966,-99.750000,644.000000
6450.000000,0.580566,0.034180,0.794922,645.000000,-33.142090,-8.789062,34.053802,645.000000,25.499954,24.299957,-99.600006,645.000000
6460.000000,0.604004,0.040039,0.831543,646.000000,-32.348633,-14.709473,26.729584,646.000000,25.499954,24.749954,-98.100006,646.000000
6470.000000,0.600586,0.040039,0.898437,647.000000,-28.015137,-12.145996,16.841888,647.000000,27.149963,24.749954,-98.100006,647.000000
6480.000000,0.540527,-0.020020,0.918945,648.000000,-14.343262,-13.610840,6.282806,648.000000,25.349960,24.899963,-97.200012,648.000000
6490.000000,0.467773,-0.080078,0.906738,649.000000,-2.929688,-12.939453,-0.976562,649.000000,25.349960,25.949966,-98.250000,649.000000
6500.000000,0.539551,-0.021484,0.884277,650.000000,-12.878418,-16.540527,-1.525879,650.000000,25.199966,25.949966,-98.250000,650.000000
6510.000000,0.520019,-0.021484,0.863281,651.000000,-13.488770,-19.287109,2.193451,651.000000,25.199966,25.499954,-97.500000,651.000000
6520.000000,0.640137,0.004883,0.843262,652.000000,-11.169434,-20.629883,6.526947,652.000000,26.399963,25.499954,-97.500000,652.000000
6530.000000,0.550293,-0.036621,0.862793,653.000000,-12.084961,-20.629883,14.034271,653.000000,25.949966,26.399963,-97.950012,653.000000
6540.000000,0.610840,0.019531,0.854492,654.000000,-13.122559,-15.563965,12.691498,654.000000,25.049957,27.299957,-97.500000,654.000000
6550.000000,0.612793,-0.056152,0.870605,655.000000,-6.958008,-11.779785,12.691498,655.000000,25.049957,25.949966,-95.850006,655.000000
6560.000000,0.652832,-0.073242,0.841797,656.000000,-10.620117,-15.380859,12.264252,656.000000,25.499954,25.949966,-95.850006,656.000000
6570.000000,0.642090,-0.064453,0.846191,657.000000,-23.254395,-17.761230,15.865326,657.000000,26.249954,27.299957,-97.500000,657.000000
6580.000000,0.675781,-0.104492,0.835937,658.000000,-30.334473,-21.118164,14.949799,658.000000,26.249954,26.249954,-98.100006,658.000000
6590.000000,0.727051,-0.143066,0.845703,659.000000,-23.986816,-28.747559,15.560150,659.000000,26.699966,26.249954,-98.100006,659.000000
6600.000000,0.775390,-0.183594,0.905273,660.000000,-17.883301,-26.428223,16.963959,660.000000,25.199966,26.549957,-97.800003,660.000000
6610.000000,0.718750,-0.394531,0.969238,661.000000,10.738373,-70.007324,59.688568,661.000000,25.199966,25.799957,-96.750000,661.000000
6620.000000,0.666015,-0.288574,0.915039,662.000000,32.649994,-85.205078,92.525482,662.000000,26.099960,25.799957,-96.750000,662.000000
6630.000000,0.285156,-0.800293,0.579590,663.000000,178.890228,-221.313477,152.584076,663.000000,27.149963,26.699966,-97.650009,663.000000
6640.000000,0.640625,0.464355,0.776367,664.000000,75.984955,-138.061523,84.651947,664.000000,27.149963,26.699966,-96.900009,664.000000
6650.000000,0.674316,0.350586,0.902832,665.000000,-79.101562,-67.382812,30.941010,665.000000,25.199966,26.699966,-96.900009,665.000000
6660.000000,0.645508,0.163086,0.748535,666.000000,-27.038574,48.336029,15.010834,666.000000,26.249954,26.999954,-97.050003,666.000000
6670.000000,0.604004,-0.157715,0.622558,667.000000,0.000000,0.057220,12.386322,667.000000,26.249954,26.549957,-98.100006,667.000000
6680.000000,0.596191,-0.109375,0.748535,668.000000,-42.907715,-23.681641,21.114349,668.000000,27.149963,26.549957,-98.100006,668.000000
6690.000000,0.594238,-0.085937,0.819336,669.000000,-23.559570,-2.868652,22.579193,669.000000,25.499954,26.699966,-97.650009,669.000000
6700.000000,0.613281,-0.224121,0.848144,670.000000,2.437592,-9.887695,13.301849,670.000000,27.149963,25.499954,-98.100006,670.000000
6710.000000,0.690430,-0.164551,0.854980,671.000000,0.850677,-15.319824,8.907318,671.000000,27.149963,27.149963,-97.650009,671.000000
6720.000000,0.709472,-0.113770,0.823730,672.000000,4.573822,-5.493164,8.113861,672.000000,25.049957,27.149963,-97.650009,672.000000
6730.000000,0.702637,-0.100098,0.808594,673.000000,13.301849,-2.441406,4.085541,673.000000,27.749954,26.699966,-98.250000,673.000000
6740.000000,0.691406,-0.057129,0.790527,674.000000,13.240814,-2.929688,0.423431,674.000000,27.749954,26.999954,-98.550003,674.000000
6750.000000,0.686523,-0.039551,0.758301,675.000000,7.564545,-9.216309,-3.723145,675.000000,26.249954,26.999954,-98.550003,675.000000
6760.000000,0.661133,-0.008789,0.741699,676.000000,8.113861,-18.371582,-1.708984,676.000000,25.049957,28.499954,-98.850006,676.000000
6770.000000,0.637207,-0.030762,0.763672,677.000000,6.893158,-26.123047,3.231049,677.000000,25.049957,27.899963,-97.650009,677.000000
6780.000000,0.615234,-0.073730,0.773437,678.000000,11.470795,-36.743164,5.489349,678.000000,26.849960,27.899963,-97.650009,678.000000
6790.000000,0.631347,-0.067871,0.757324,679.000000,11.592865,-40.588379,3.047943,679.000000,26.849960,26.399963,-97.950012,679.000000
6800.000000,0.713867,-0.075684,0.718750,680.000000,-18.188477,-51.025391,-1.098633,680.000000,26.849960,26.399963,-97.650009,680.000000
6810.000000,0.726074,-0.034668,0.741699,681.000000,-22.644043,-43.334961,-2.197266,681.000000,25.199966,25.949966,-96.600006,681.000000
6820.000000,0.770508,-0.051270,0.790039,682.000000,-7.690430,-37.658691,-5.371094,682.000000,25.199966,26.549957,-98.100006,682.000000
6830.000000,0.733887,-0.041504,0.806152,683.000000,18.917084,-44.128418,-17.211914,683.000000,26.249954,26.549957,-98.100006,683.000000
6840.000000,0.707031,-0.039062,0.826660,684.000000,26.912689,-47.180176,-28.686523,684.000000,25.799957,25.499954,-97.800003,684.000000
6850.000000,0.730469,-0.098633,0.775879,685.000000,26.729584,-38.330078,-29.113770,685.000000,25.949966,27.149963,-97.950012,685.000000
6860.000000,0.606445,-0.135742,0.700195,686.000000,15.743256,-55.297852,-16.967773,686.000000,25.949966,26.549957,-97.500000,686.000000
6870.000000,0.668457,-0.065918,0.671875,687.000000,-13.610840,-48.156738,-7.873535,687.000000,24.599960,26.549957,-97.500000,687.000000
6880.000000,0.641601,-0.093262,0.654297,688.000000,-29.724121,-32.836914,0.850677,688.000000,25.949966,27.449966,-97.200012,688.000000
6890.000000,0.719726,-0.087891,0.684082,689.000000,-17.944336,-33.996582,5.672455,689.000000,25.949966,25.499954,-98.550003,689.000000
6900.000000,0.831543,-0.046387,0.754394,690.000000,-4.211426,-23.132324,-3.723145,690.000000,25.499954,25.499954,-98.550003,690.000000
6910.000000,0.807129,-0.011230,0.770996,691.000000,-2.868652,-11.840820,-12.695312,691.000000,24.149963,25.049957,-98.550003,691.000000
6920.000000,0.731445,0.001953,0.701172,692.000000,-14.160156,-5.065918,-14.587402,692.000000,24.149963,26.549957,-96.300003,692.000000
6930.000000,0.614746,0.011230,0.697754,693.000000,-24.108887,11.104584,-18.188477,693.000000,23.549957,26.549957,-96.300003,693.000000
6940.000000,0.713867,-0.037598,0.682129,694.000000,-23.803711,8.052826,-20.874023,694.000000,25.499954,25.649963,-97.200012,694.000000
6950.000000,0.643555,-0.116211,0.715332,695.000000,-12.023926,2.315521,-17.150879,695.000000,25.499954,26.549957,-97.800003,695.000000
6960.000000,0.665527,-0.093262,0.736328,696.000000,-8.178711,3.719330,-19.897461,696.000000,22.649963,26.549957,-97.800003,696.000000
6970.000000,0.884765,-0.004395,0.754394,697.000000,-32.287598,33.077240,-22.521973,697.000000,23.999954,26.549957,-97.500000,697.000000
6980.000000,0.803711,-0.135742,0.733887,698.000000,-18.127441,6.282806,-9.155273,698.000000,23.999954,26.699966,-97.950012,698.000000
6990.000000,0.773926,-0.100098,0.729980,699.000000,6.282806,-7.019043,-7.751465,699.000000,23.699966,26.699966,-97.950012,699.000000
7000.000000,0.742187,0.000000,0.769531,700.000000,-5.432129,6.404877,-22.216797,700.000000,23.399963,25.499954,-97.800003,700.000000
7010.000000,0.729980,-0.027344,0.719726,701.000000,-18.005371,11.653900,-20.935059,701.000000,23.549957,25.799957,-97.500000,701.000000
7020.000000,0.743164,-0.087891,0.614258,702.000000,-0.671387,-1.586914,-8.361816,702.000000,23.549957,26.699966,-97.650009,702.000000
7030.000000,0.754883,-0.000977,0.704101,703.000000,-3.479004,10.738373,-10.620117,703.000000,23.399963,26.699966,-97.650009,703.000000
7040.000000,0.737305,-0.045898,0.759277,704.000000,-3.234863,10.738373,-8.239746,704.000000,23.399963,25.799957,-98.100006,704.000000
7050.000000,0.692871,-0.032227,0.729004,705.000000,-0.976562,13.362885,-7.751465,705.000000,23.399963,26.549957,-96.000000,705.000000
7060.000000,0.677246,-0.026855,0.713379,706.000000,-0.366211,16.475677,-4.455566,706.000000,24.449966,26.549957,-96.000000,706.000000
7070.000000,0.680176,-0.057129,0.709961,707.000000,4.451752,16.353607,-3.967285,707.000000,24.299957,25.499954,-98.100006,707.000000
7080.000000,0.695312,-0.039551,0.731933,708.000000,5.611420,15.804291,-5.737305,708.000000,24.299957,26.699966,-97.650009,708.000000
7090.000000,0.708984,-0.052246,0.742676,709.000000,4.268646,15.193939,-3.784180,709.000000,23.399963,26.699966,-97.650009,709.000000
7100.000000,0.635254,-0.028320,0.741699,710.000000,10.799408,15.254974,-0.915527,710.000000,24.599960,26.249954,-97.800003,710.000000
7110.000000,0.657715,-0.086914,0.748535,711.000000,10.982513,2.254486,-4.699707,711.000000,23.099960,26.699966,-98.250000,711.000000
7120.000000,0.621094,-0.087891,0.725097,712.000000,15.743256,1.277924,-4.882812,712.000000,24.299957,25.799957,-97.050003,712.000000
7130.000000,0.634277,-0.048340,0.700683,713.000000,10.555267,0.484467,-1.342773,713.000000,24.299957,26.399963,-98.700012,713.000000
7140.000000,0.690918,-0.033203,0.702637,714.000000,1.949310,5.916595,5.123138,714.000000,24.449966,26.399963,-98.700012,714.000000
7150.000000,0.705566,0.010742,0.708984,715.000000,0.057220,7.869720,7.320404,715.000000,24.299957,25.049957,-99.600006,715.000000
7160.000000,0.697265,-0.012207,0.702637,716.000000,1.155853,-0.610352,6.404877,716.000000,23.699966,25.199966,-99.000000,716.000000
7170.000000,0.756836,-0.026855,0.721680,717.000000,-2.929688,-7.019043,3.414154,717.000000,23.699966,25.799957,-98.550003,717.000000
7180.000000,0.740722,-0.023438,0.743652,718.000000,-3.845215,-3.173828,0.606537,718.000000,23.699966,25.799957,-98.550003,718.000000
7190.000000,0.708496,-0.031738,0.768555,719.000000,1.827240,-5.737305,-3.601074,719.000000,25.349960,25.049957,-97.500000,719.000000
7200.000000,0.700195,-0.053223,0.749023,720.000000,2.498627,-13.183594,-6.530762,720.000000,25.349960,24.899963,-98.250000,720.000000
7210.000000,0.732910,-0.029785,0.744140,721.000000,-1.159668,-12.817383,-1.953125,721.000000,23.699966,24.899963,-98.250000,721.000000
7220.000000,0.721680,-0.002930,0.740234,722.000000,-2.502441,-9.887695,2.071381,722.000000,23.699966,25.799957,-98.550003,722.000000
7230.000000,0.710449,-0.019531,0.743164,723.000000,-3.723145,-8.117676,3.108978,723.000000,23.699966,24.299957,-98.550003,723.000000
7240.000000,0.779785,0.007324,0.719238,724.000000,-11.047363,-8.056641,-0.488281,724.000000,23.999954,24.299957,-98.550003,724.000000
7250.000000,0.664062,-0.042480,0.714844,725.000000,-3.295898,-18.127441,1.705170,725.000000,23.699966,25.949966,-97.650009,725.000000
7260.000000,0.773437,-0.009766,0.706055,726.000000,-9.216309,-19.042969,-0.854492,726.000000,23.699966,25.799957,-98.100006,726.000000
7270.000000,0.774414,-0.040039,0.722656,727.000000,-5.920410,-22.766113,2.376556,727.000000,23.699966,25.799957,-98.100006,727.000000
7280.000000,0.677734,-0.039551,0.723633,728.000000,-2.624512,-24.597168,2.071381,728.000000,23.549957,25.799957,-98.100006,728.000000
7290.000000,0.823242,0.130371,0.769043,729.000000,-29.418945,28.926849,1.461029,729.000000,23.549957,25.949966,-97.950012,729.000000
7300.000000,0.741211,-0.065430,0.727539,730.000000,-2.014160,5.489349,0.240326,730.000000,22.949966,25.949966,-97.950012,730.000000
7310.000000,0.717773,-0.072266,0.668457,731.000000,-1.281738,-7.812500,-6.408691,731.000000,25.349960,26.699966,-97.650009,731.000000
7320.000000,0.692383,0.006348,0.735351,732.000000,-13.305664,-1.770020,-8.544922,732.000000,23.549957,26.399963,-97.950012,732.000000
7330.000000,0.652344,-0.018066,0.702148,733.000000,-3.295898,-6.225586,-7.080078,733.000000,23.549957,25.649963,-98.700012,733.000000
7340.000000,0.655273,-0.039062,0.712890,734.000000,-5.554199,0.118256,-3.356934,734.000000,24.449966,25.649963,-98.700012,734.000000
7350.000000,0.648437,-0.020508,0.696289,735.000000,-8.605957,1.827240,0.240326,735.000000,23.249954,23.999954,-99.600006,735.000000
7360.000000,0.646484,-0.033691,0.703125,736.000000,-4.577637,-1.892090,0.057220,736.000000,23.249954,25.199966,-98.250000,736.000000
7370.000000,0.656250,-0.072754,0.714355,737.000000,-2.685547,-4.455566,-1.464844,737.000000,24.449966,25.199966,-98.250000,737.000000
7380.000000,0.688965,-0.053711,0.742187,738.000000,0.667572,-4.516602,0.423431,738.000000,23.099960,25.499954,-98.550003,738.000000
7390.000000,0.714844,-0.038574,0.741211,739.000000,1.705170,-3.234863,0.240326,739.000000,23.099960,26.249954,-99.150009,739.000000
7400.000000,0.741699,-0.026855,0.708984,740.000000,-2.746582,-2.685547,-1.281738,740.000000,24.899963,26.249954,-99.150009,740.000000
7410.000000,0.731445,0.004883,0.725586,741.000000,-1.159668,1.094818,-4.699707,741.000000,24.899963,26.249954,-99.150009,741.000000
7420.000000,0.731933,-0.003418,0.727051,742.000000,-1.831055,2.193451,-7.019043,742.000000,23.549957,26.249954,-99.150009,742.000000
7430.000000,0.729004,-0.017090,0.724121,743.000000,-2.502441,3.841400,-7.446289,743.000000,24.149963,24.899963,-98.700012,743.000000
7440.000000,0.731445,-0.019043,0.719726,744.000000,-1.586914,3.597260,-6.225586,744.000000,24.149963,25.499954,-98.850006,744.000000
7450.000000,0.723144,-0.015137,0.729980,745.000000,-2.746582,4.146576,-5.432129,745.000000,23.549957,25.499954,-98.850006,745.000000
7460.000000,0.706055,-0.031250,0.739746,746.000000,-1.831055,3.414154,-5.493164,746.000000,23.399963,25.199966,-98.250000,746.000000
7470.000000,0.745117,-0.027344,0.726074,747.000000,-2.380371,0.850677,-4.455566,747.000000,23.249954,25.499954,-99.150009,747.000000
7480.000000,0.765137,-0.032715,0.727051,748.000000,-2.380371,1.949310,0.484467,748.000000,23.249954,25.649963,-99.000000,748.000000
7490.000000,0.830078,-0.021484,0.718262,749.000000,-7.507324,3.047943,3.780365,749.000000,23.399963,25.649963,-99.000000,749.000000
7500.000000,0.819824,-0.006348,0.719726,750.000000,-10.681152,6.160736,4.451752,750.000000,22.649963,25.499954,-97.800003,750.000000
7510.000000,0.798340,-0.038574,0.743164,751.000000,-6.408691,6.465912,1.277924,751.000000,22.649963,26.549957,-97.800003,751.000000
7520.000000,0.786133,-0.070801,0.738281,752.000000,-2.441406,3.170013,-3.723145,752.000000,23.549957,26.549957,-97.800003,752.000000
7530.000000,0.750976,-0.108398,0.743652,753.000000,2.559662,2.498627,-4.211426,753.000000,24.899963,25.649963,-97.950012,753.000000
7540.000000,0.733887,-0.061035,0.713379,754.000000,-2.929688,1.888275,-3.601074,754.000000,24.899963,26.549957,-98.550003,754.000000
7550.000000,0.685547,-0.032227,0.708984,755.000000,-2.990723,3.902435,-1.831055,755.000000,23.399963,26.549957,-98.550003,755.000000
7560.000000,0.684570,-0.034668,0.705566,756.000000,-3.601074,1.583099,-1.953125,756.000000,23.249954,25.049957,-99.900009,756.000000
7570.000000,0.650879,-0.009277,0.699219,757.000000,-7.507324,1.399994,-1.098633,757.000000,23.249954,25.649963,-98.700012,757.000000
7580.000000,0.631836,-0.038086,0.731445,758.000000,-2.441406,-1.037598,0.972748,758.000000,25.349960,25.649963,-98.700012,758.000000
7590.000000,0.634765,-0.034668,0.729980,759.000000,-2.136230,-3.417969,2.132416,759.000000,24.149963,25.649963,-97.950012,759.000000
7600.000000,0.727539,-0.021484,0.706543,760.000000,-7.141113,-5.065918,5.672455,760.000000,24.149963,25.499954,-98.100006,760.000000
7610.000000,0.756836,-0.017578,0.705078,761.000000,-4.089355,-3.540039,9.822845,761.000000,24.299957,25.499954,-98.100006,761.000000
7620.000000,0.753906,-0.025391,0.728515,762.000000,-2.197266,-0.366211,7.808685,762.000000,23.099960,24.149963,-99.000000,762.000000
7630.000000,0.758301,0.016602,0.717773,763.000000,-4.760742,0.423431,2.132416,763.000000,23.249954,25.799957,-99.150009,763.000000
7640.000000,0.708008,0.020996,0.701660,764.000000,-5.798340,-0.427246,-4.638672,764.000000,23.249954,26.399963,-98.700012,764.000000
7650.000000,0.669922,0.015137,0.721191,765.000000,-2.807617,-3.234863,-8.117676,765.000000,24.449966,26.399963,-98.700012,765.000000
7660.000000,0.639160,0.010254,0.704590,766.000000,-4.394531,-4.333496,-8.789062,766.000000,25.049957,25.049957,-98.100006,766.000000
7670.000000,0.638672,0.041016,0.698730,767.000000,-8.605957,-5.554199,-5.249023,767.000000,25.049957,25.949966,-98.700012,767.000000
7680.000000,0.669433,0.032227,0.721191,768.000000,-10.620117,-6.713867,-3.112793,768.000000,24.899963,25.949966,-98.700012,768.000000
7690.000000,0.686035,0.020508,0.733887,769.000000,-10.681152,-6.713867,-1.342773,769.000000,23.699966,26.549957,-98.550003,769.000000
7700.000000,0.745605,0.011719,0.749512,770.000000,-7.263184,-7.385254,-2.075195,770.000000,23.699966,26.549957,-97.500000,770.000000
7710.000000,0.728027,0.005371,0.741699,771.000000,-9.399414,-4.455566,-4.699707,771.000000,24.299957,25.799957,-99.600006,771.000000
7720.000000,0.759765,0.023437,0.718262,772.000000,-12.817383,-3.295898,-4.821777,772.000000,24.299957,25.649963,-98.700012,772.000000
7730.000000,0.768066,0.018066,0.713379,773.000000,-15.319824,-2.136230,-6.469727,773.000000,24.149963,25.649963,-98.700012,773.000000
7740.000000,0.753906,0.003418,0.739258,774.000000,-12.023926,-1.708984,-6.652832,774.000000,22.049957,26.249954,-99.900009,774.000000
7750.000000,0.751465,-0.021973,0.756836,775.000000,-8.361816,-1.342773,-9.277344,775.000000,22.049957,25.499954,-98.550003,775.000000
7760.000000,0.718262,-0.042969,0.751465,776.000000,-6.347656,-3.906250,-11.352539,776.000000,24.299957,25.499954,-98.550003,776.000000
7770.000000,0.738769,-0.029785,0.731445,777.000000,-8.544922,-5.065918,-11.230469,777.000000,22.949966,26.699966,-98.700012,777.000000
7780.000000,0.720215,0.000488,0.722168,778.000000,-9.826660,-4.821777,-9.277344,778.000000,22.649963,24.899963,-98.700012,778.000000
7790.000000,0.711426,-0.006836,0.708008,779.000000,-11.779785,-4.333496,-6.896973,779.000000,22.649963,25.499954,-98.550003,779.000000
7800.000000,0.721191,-0.010254,0.698730,780.000000,-14.648438,-2.746582,-5.004883,780.000000,24.449966,25.499954,-98.550003,780.000000
7810.000000,0.693359,-0.029785,0.718750,781.000000,-12.939453,-3.845215,-4.455566,781.000000,24.299957,25.049957,-99.600006,781.000000
7820.000000,0.693359,-0.065918,0.740234,782.000000,-10.559082,-5.493164,-2.685547,782.000000,24.299957,26.699966,-98.250000,782.000000
7830.000000,0.729492,-0.095215,0.724609,783.000000,-7.019043,-8.911133,-1.403809,783.000000,23.399963,26.699966,-98.250000,783.000000
7840.000000,0.787109,-0.092285,0.726562,784.000000,-5.249023,-8.605957,0.911713,784.000000,23.249954,25.499954,-98.100006,784.000000
7850.000000,0.765137,-0.069824,0.726074,785.000000,-3.417969,-4.943848,3.780365,785.000000,23.249954,26.399963,-97.650009,785.000000
7860.000000,0.799316,-0.053711,0.695801,786.000000,-5.371094,-4.089355,3.231049,786.000000,22.349960,26.399963,-97.650009,786.000000
7870.000000,0.823242,-0.045410,0.646484,787.000000,-10.070801,-3.417969,3.414154,787.000000,23.249954,25.799957,-98.850006,787.000000
7880.000000,0.794922,-0.053711,0.672851,788.000000,-8.728027,-3.051758,4.756927,788.000000,23.249954,25.199966,-98.700012,788.000000
7890.000000,0.768066,-0.085449,0.700195,789.000000,-7.934570,-2.868652,3.780365,789.000000,22.499954,25.199966,-98.700012,789.000000
7900.000000,0.774902,-0.091309,0.673828,790.000000,-6.835938,-3.967285,5.184174,790.000000,23.999954,25.649963,-98.250000,790.000000
7910.000000,0.755371,-0.082031,0.699219,791.000000,-6.591797,-4.760742,6.710052,791.000000,23.999954,26.699966,-98.250000,791.000000
7920.000000,0.770019,-0.080078,0.692871,792.000000,-4.211426,-3.662109,7.991791,792.000000,23.699966,26.699966,-98.250000,792.000000
7930.000000,0.769043,-0.062012,0.721680,793.000000,-2.807617,-1.525879,5.611420,793.000000,23.249954,25.499954,-97.050003,793.000000
7940.000000,0.778320,-0.059082,0.712890,794.000000,-6.103516,0.000000,2.864838,794.000000,23.699966,26.399963,-98.700012,794.000000
7950.000000,0.732910,-0.051270,0.706055,795.000000,-0.366211,0.911713,2.437592,795.000000,23.699966,25.499954,-98.550003,795.000000
7960.000000,0.708008,-0.033203,0.723144,796.000000,0.057220,0.000000,-3.051758,796.000000,22.649963,25.499954,-98.550003,796.000000
7970.000000,0.682617,-0.008789,0.710449,797.000000,-1.831055,0.362396,-4.699707,797.000000,23.549957,25.799957,-98.850006,797.000000
7980.000000,0.628906,0.002441,0.697754,798.000000,-3.845215,1.461029,-3.784180,798.000000,23.549957,27.449966,-97.200012,798.000000
7990.000000,0.633301,0.009277,0.713379,799.000000,-3.417969,0.667572,-3.540039,799.000000,24.599960,27.449966,-97.200012,799.000000
8000.000000,0.678222,0.018066,0.716797,800.000000,-9.155273,1.033783,-2.014160,800.000000,24.149963,25.199966,-98.700012,800.000000
8010.000000,0.691406,0.023926,0.743652,801.000000,-7.080078,1.033783,1.705170,801.000000,24.599960,24.749954,-98.850006,801.000000
8020.000000,0.714844,0.017578,0.757812,802.000000,-7.202148,0.850677,1.216888,802.000000,23.099960,26.699966,-98.700012,802.000000
8030.000000,0.731933,0.031738,0.768066,803.000000,-8.544922,0.850677,-0.549316,803.000000,23.099960,24.749954,-98.850006,803.000000
8040.000000,0.722168,0.035156,0.734863,804.000000,-8.361816,0.000000,-3.417969,804.000000,23.549957,24.749954,-98.850006,804.000000
8050.000000,0.722168,0.027344,0.745605,805.000000,-6.896973,-0.976562,-5.065918,805.000000,24.299957,25.649963,-100.800003,805.000000
8060.000000,0.704101,0.032715,0.734863,806.000000,-7.751465,-2.014160,-5.737305,806.000000,24.299957,24.449966,-97.950012,806.000000
8070.000000,0.711426,0.016602,0.732910,807.000000,-6.408691,-2.441406,-5.187988,807.000000,24.299957,24.449966,-97.950012,807.000000
8080.000000,0.711914,0.006836,0.724609,808.000000,-8.422852,-1.464844,-4.821777,808.000000,22.649963,24.899963,-99.000000,808.000000
8090.000000,0.718750,0.031250,0.708496,809.000000,-10.681152,-0.549316,-3.234863,809.000000,23.399963,25.499954,-99.900009,809.000000
8100.000000,0.742187,0.022461,0.722656,810.000000,-10.925293,0.118256,-3.967285,810.000000,23.399963,26.999954,-98.850006,810.000000
8110.000000,0.733887,0.006836,0.716797,811.000000,-13.427734,1.033783,-5.493164,811.000000,23.399963,26.999954,-98.850006,811.000000
8120.000000,0.734863,-0.030762,0.712890,812.000000,-10.742188,2.071381,-5.554199,812.000000,23.999954,25.049957,-98.550003,812.000000
8130.000000,0.737305,-0.048828,0.715820,813.000000,-8.666992,1.094818,-7.446289,813.000000,23.999954,25.199966,-98.250000,813.000000
8140.000000,0.763183,-0.069824,0.748047,814.000000,-7.690430,0.789642,-8.056641,814.000000,23.699966,25.199966,-98.250000,814.000000
8150.000000,0.770996,-0.064941,0.737305,815.000000,-6.835938,-0.244141,-8.300781,815.000000,23.549957,26.549957,-97.500000,815.000000
8160.000000,0.746582,-0.069824,0.735840,816.000000,-4.699707,0.423431,-7.263184,816.000000,23.549957,26.699966,-99.000000,816.000000
8170.000000,0.764160,-0.057617,0.729980,817.000000,-7.446289,2.254486,-6.591797,817.000000,23.549957,26.699966,-99.000000,817.000000
8180.000000,0.765625,-0.064453,0.706055,818.000000,-7.446289,1.155853,-5.554199,818.000000,23.549957,25.649963,-97.650009,818.000000
8190.000000,0.775390,-0.048340,0.709961,819.000000,-7.263184,1.033783,-5.310059,819.000000,23.549957,26.399963,-98.250000,819.000000
8200.000000,0.759277,-0.044434,0.732422,820.000000,-6.896973,2.498627,-4.577637,820.000000,24.299957,26.399963,-98.250000,820.000000
8210.000000,0.724609,-0.048828,0.735351,821.000000,-5.065918,5.001068,-5.126953,821.000000,22.499954,24.449966,-98.700012,821.000000
8220.000000,0.726562,-0.035645,0.722656,822.000000,-7.812500,3.353119,-8.056641,822.000000,22.499954,24.449966,-98.700012,822.000000
8230.000000,0.739258,-0.044922,0.699219,823.000000,-6.530762,2.803802,-6.958008,823.000000,24.449966,24.449966,-98.700012,823.000000
8240.000000,0.742187,-0.028320,0.711914,824.000000,-7.934570,3.963470,-6.042480,824.000000,24.449966,25.499954,-97.800003,824.000000
8250.000000,0.709961,-0.020996,0.700195,825.000000,-7.568359,3.902435,-4.882812,825.000000,22.499954,23.999954,-97.500000,825.000000
8260.000000,0.719238,-0.042969,0.702637,826.000000,-5.249023,2.071381,-4.699707,826.000000,22.499954,25.199966,-99.750000,826.000000
8270.000000,0.712890,-0.022949,0.708496,827.000000,-7.263184,0.789642,-4.394531,827.000000,23.099960,25.199966,-99.750000,827.000000
8280.000000,0.694824,-0.030273,0.724609,828.000000,-4.150391,1.155853,-3.356934,828.000000,23.249954,25.499954,-99.600006,828.000000
8290.000000,0.696289,-0.041992,0.726562,829.000000,-3.662109,-0.061035,-2.929688,829.000000,23.249954,25.649963,-99.000000,829.000000
8300.000000,0.703613,-0.026855,0.714844,830.000000,-4.333496,-0.671387,-2.014160,830.000000,22.649963,25.649963,-99.000000,830.000000
8310.000000,0.717773,-0.033203,0.715332,831.000000,-4.211426,-2.258301,-0.549316,831.000000,22.649963,25.799957,-98.100006,831.000000
8320.000000,0.723633,-0.018066,0.702637,832.000000,-6.591797,-2.075195,0.789642,832.000000,23.399963,25.799957,-98.100006,832.000000
8330.000000,0.716308,0.008301,0.719726,833.000000,-7.751465,-0.549316,2.925873,833.000000,23.699966,25.499954,-98.550003,833.000000
8340.000000,0.713379,-0.018555,0.716797,834.000000,-6.713867,-1.037598,4.207611,834.000000,23.699966,25.049957,-99.150009,834.000000
8350.000000,0.736328,-0.019531,0.714844,835.000000,-6.591797,-2.380371,5.367279,835.000000,25.049957,25.049957,-99.150009,835.000000
8360.000000,0.730957,-0.041992,0.731445,836.000000,-5.371094,-2.929688,5.733490,836.000000,25.349960,25.649963,-98.700012,836.000000
8370.000000,0.770996,-0.064941,0.730957,837.000000,-2.624512,-2.319336,6.526947,837.000000,25.349960,25.649963,-97.950012,837.000000
8380.000000,0.775879,-0.039551,0.730957,838.000000,-3.173828,-1.892090,5.245209,838.000000,23.099960,25.649963,-97.950012,838.000000
8390.000000,0.776855,-0.023926,0.711914,839.000000,-3.723145,-0.427246,2.803802,839.000000,23.999954,24.749954,-98.100006,839.000000
8400.000000,0.739746,-0.016602,0.721191,840.000000,-4.516602,0.667572,-0.854492,840.000000,23.999954,25.199966,-97.650009,840.000000
8410.000000,0.730957,0.003418,0.704101,841.000000,-6.652832,-0.061035,-3.051758,841.000000,23.999954,25.949966,-98.250000,841.000000
8420.000000,0.698730,-0.005371,0.717285,842.000000,-5.004883,0.240326,-3.479004,842.000000,23.699966,25.949966,-98.250000,842.000000
8430.000000,0.679687,-0.023438,0.742676,843.000000,-2.441406,-0.122070,-3.845215,843.000000,23.999954,25.499954,-97.500000,843.000000
8440.000000,0.706543,-0.020020,0.729492,844.000000,-2.014160,-1.342773,-3.601074,844.000000,23.999954,24.899963,-97.950012,844.000000
8450.000000,0.734375,0.001953,0.717773,845.000000,-3.662109,-1.403809,-3.112793,845.000000,22.949966,24.899963,-97.950012,845.000000
8460.000000,0.741699,0.010742,0.743164,846.000000,-4.272461,-0.488281,-2.441406,846.000000,22.349960,26.399963,-97.950012,846.000000
8470.000000,0.712402,0.028320,0.729492,847.000000,-7.080078,0.850677,-4.821777,847.000000,22.349960,25.799957,-97.800003,847.000000
8480.000000,0.729004,0.003906,0.737305,848.000000,-5.432129,0.179291,-7.080078,848.000000,23.999954,25.799957,-97.800003,848.000000
8490.000000,0.746582,-0.006836,0.754394,849.000000,-5.126953,0.301361,-9.338379,849.000000,23.249954,26.399963,-98.250000,849.000000
8500.000000,0.744629,-0.011719,0.744140,850.000000,-5.065918,2.071381,-10.070801,850.000000,23.249954,25.949966,-99.000000,850.000000
8510.000000,0.735840,0.001465,0.764648,851.000000,-5.249023,3.780365,-12.023926,851.000000,23.249954,25.949966,-99.000000,851.000000
8520.000000,0.745605,-0.008301,0.746582,852.000000,-4.577637,3.963470,-12.695312,852.000000,22.949966,26.399963,-99.000000,852.000000
8530.000000,0.712402,-0.000488,0.743652,853.000000,-2.380371,4.024506,-14.831543,853.000000,22.949966,25.649963,-97.950012,853.000000
8540.000000,0.706543,-0.024902,0.729980,854.000000,-3.112793,4.634857,-15.441895,854.000000,22.349960,25.649963,-97.950012,854.000000
8550.000000,0.682617,0.009766,0.748535,855.000000,-6.286621,5.123138,-14.526367,855.000000,23.699966,26.549957,-99.150009,855.000000
8560.000000,0.637207,-0.035156,0.725586,856.000000,-2.563477,4.207611,-12.634277,856.000000,23.099960,26.999954,-97.800003,856.000000
8570.000000,0.648437,-0.044922,0.737305,857.000000,0.606537,0.911713,-12.268066,857.000000,23.099960,25.499954,-98.550003,857.000000
8580.000000,0.685058,-0.056641,0.717773,858.000000,-1.342773,0.789642,-7.080078,858.000000,24.899963,25.499954,-98.550003,858.000000
8590.000000,0.671387,-0.023926,0.700195,859.000000,-3.356934,2.132416,0.423431,859.000000,23.699966,25.499954,-98.100006,859.000000
8600.000000,0.652344,-0.037109,0.723144,860.000000,-1.342773,1.949310,4.573822,860.000000,23.249954,25.049957,-98.850006,860.000000
8610.000000,0.712890,-0.082520,0.738281,861.000000,1.827240,-5.554199,5.733490,861.000000,23.999954,25.649963,-98.250000,861.000000
8620.000000,0.756347,-0.046875,0.710937,862.000000,-1.464844,-1.953125,10.005951,862.000000,23.999954,25.949966,-97.650009,862.000000
8630.000000,0.776855,-0.038574,0.698242,863.000000,-0.610352,1.155853,13.851166,863.000000,24.299957,25.949966,-97.650009,863.000000
8640.000000,0.753906,-0.010254,0.683105,864.000000,-1.220703,3.108978,12.203217,864.000000,24.149963,25.949966,-98.700012,864.000000
8650.000000,0.738281,-0.019531,0.684570,865.000000,-1.403809,0.545502,7.503510,865.000000,24.149963,24.749954,-97.800003,865.000000
8660.000000,0.686035,-0.016602,0.727051,866.000000,2.986908,2.803802,3.047943,866.000000,24.149963,24.749954,-97.800003,866.000000
8670.000000,0.636719,-0.023926,0.729980,867.000000,5.306244,1.766205,-0.122070,867.000000,24.449966,25.049957,-98.850006,867.000000
8680.000000,0.626953,-0.004395,0.719238,868.000000,3.475189,1.644135,-0.427246,868.000000,24.449966,25.499954,-100.200012,868.000000
8690.000000,0.611328,0.051758,0.702637,869.000000,0.789642,0.000000,1.399994,869.000000,24.899963,25.499954,-100.200012,869.000000
8700.000000,0.595215,0.062988,0.708984,870.000000,-0.183105,-1.770020,3.780365,870.000000,23.249954,26.549957,-98.850006,870.000000
8710.000000,0.619141,0.064453,0.706543,871.000000,-3.417969,-3.784180,5.489349,871.000000,23.549957,24.899963,-98.250000,871.000000
8720.000000,0.656250,0.072266,0.718750,872.000000,-4.028320,-7.507324,6.343842,872.000000,23.549957,25.199966,-98.700012,872.000000
8730.000000,0.699219,0.054199,0.747558,873.000000,-5.981445,-9.704590,7.381439,873.000000,24.899963,25.199966,-98.700012,873.000000
8740.000000,0.728515,0.040039,0.768555,874.000000,-2.624512,-7.934570,10.005951,874.000000,22.199966,24.749954,-99.600006,874.000000
8750.000000,0.748047,0.018555,0.770019,875.000000,-2.502441,-8.850098,9.273529,875.000000,22.199966,25.949966,-99.300003,875.000000
8760.000000,0.789062,0.035645,0.748535,876.000000,-5.981445,-7.873535,10.189056,876.000000,23.549957,25.949966,-99.300003,876.000000
8770.000000,0.799805,0.020996,0.733887,877.000000,-5.187988,-6.469727,10.982513,877.000000,24.299957,25.949966,-99.300003,877.000000
8780.000000,0.768555,0.041992,0.726074,878.000000,-9.277344,-5.249023,8.663177,878.000000,24.299957,25.649963,-99.750000,878.000000
8790.000000,0.767578,0.034180,0.716797,879.000000,-8.728027,-4.943848,8.724213,879.000000,23.699966,25.649963,-99.750000,879.000000
8800.000000,0.770996,0.024414,0.718262,880.000000,-10.437012,-5.554199,7.747650,880.000000,23.549957,26.249954,-98.850006,880.000000
8810.000000,0.746094,-0.005371,0.708984,881.000000,-10.009766,-5.615234,6.587982,881.000000,23.549957,25.199966,-99.000000,881.000000
8820.000000,0.761719,-0.010254,0.729492,882.000000,-13.122559,-4.211426,7.930756,882.000000,24.899963,25.199966,-99.000000,882.000000
8830.000000,0.797851,-0.028809,0.724609,883.000000,-9.704590,-3.662109,7.991791,883.000000,23.999954,25.049957,-99.150009,883.000000
8840.000000,0.812500,-0.039551,0.757324,884.000000,-7.751465,-2.929688,5.733490,884.000000,23.999954,25.949966,-99.000000,884.000000
8850.000000,0.810058,-0.022949,0.755859,885.000000,-7.690430,-0.366211,3.231049,885.000000,24.599960,25.949966,-99.000000,885.000000
8860.000000,0.769043,-0.021484,0.728027,886.000000,-7.568359,1.155853,1.033783,886.000000,24.449966,25.199966,-98.700012,886.000000
8870.000000,0.760742,-0.050293,0.735840,887.000000,-4.211426,1.338959,-1.770020,887.000000,24.299957,25.049957,-97.050003,887.000000
8880.000000,0.756347,-0.046875,0.737793,888.000000,-5.798340,0.545502,-4.638672,888.000000,24.299957,25.649963,-99.750000,888.000000
8890.000000,0.756347,-0.008301,0.722656,889.000000,-8.605957,2.437592,-2.990723,889.000000,23.399963,25.649963,-99.750000,889.000000
8900.000000,0.691406,0.031738,0.712402,890.000000,-15.686035,5.855560,-1.098633,890.000000,23.249954,26.249954,-99.600006,890.000000
8910.000000,0.689453,0.017090,0.711426,891.000000,-16.601562,3.597260,-2.319336,891.000000,23.999954,25.649963,-99.000000,891.000000
8920.000000,0.637695,-0.001953,0.738281,892.000000,-9.948730,2.437592,-0.854492,892.000000,23.999954,26.399963,-98.700012,892.000000
8930.000000,0.573242,-0.021484,0.738281,893.000000,-12.695312,2.864838,0.423431,893.000000,23.999954,26.699966,-99.000000,893.000000
8940.000000,0.688476,-0.036133,0.701660,894.000000,-24.414062,1.216888,9.700775,894.000000,22.499954,26.699966,-99.000000,894.000000
8950.000000,0.703125,-0.103516,0.667969,895.000000,-19.348145,-4.638672,15.316010,895.000000,25.499954,24.899963,-99.000000,895.000000
8960.000000,0.814453,-0.188477,0.782715,896.000000,-0.061035,0.972748,20.198822,896.000000,25.499954,26.249954,-98.550003,896.000000
