t_ms,segment_id,packet_type,source_mode,frame_fid,note,walk_fid,walk_dt_ms,walk_exec_ms,walk_out,walk_state,walk_tilt_forward_deg,walk_pos_rad,walk_vel_rad_s,walk_tq_nm,walk_temp_c,walk_vbus_v,walk_err_code,walk_fb_age_ms,walk_typical_stride_ms,walk_effective_step_count,walk_tilt_accel_deg,walk_acc_x,walk_acc_y,walk_acc_z,walk_gyr_x,walk_gyr_y,walk_gyr_z,cfg_fid,cfg_robot_id,cfg_ble_target,cfg_gait_model,cfg_gait_mode,cfg_side_is_left,cfg_assist_pct
20,1,walk,walk,5336,,5336.0,20.0,2.0,6.0,2.0,1.54,-0.01,0.05,1.112,33.0,28.14,0.0,19.0,0.0,4.0,2.26,0.04,-1.0,-0.05,-0.34,-0.91,0.52,161.0,,,0.0,1.0,0.0,100.0
40,1,walk,walk,5337,,5337.0,20.0,2.0,6.0,2.0,1.54,-0.01,0.058,1.126,33.0,28.14,0.0,19.0,0.0,4.0,2.24,0.04,-1.0,-0.05,-0.27,-0.89,0.59,161.0,,,0.0,1.0,0.0,100.0
60,1,walk,walk,5338,,5338.0,20.0,2.0,6.0,2.0,1.55,-0.01,-0.003,1.12,33.0,28.14,0.0,19.0,0.0,4.0,2.22,0.04,-1.0,-0.05,-0.2,-0.88,0.64,161.0,,,0.0,1.0,0.0,100.0
100,1,walk,walk,5339,,5339.0,20.0,2.0,6.0,2.0,1.56,-0.01,-0.057,1.133,33.0,28.11,0.0,19.0,0.0,4.0,2.21,0.04,-1.0,-0.05,-0.12,-0.88,0.67,161.0,,,0.0,1.0,0.0,100.0
100,1,walk,walk,5340,,5340.0,20.0,2.0,6.0,2.0,1.57,-0.01,-0.101,1.131,33.0,28.14,0.0,19.0,0.0,4.0,2.2,0.04,-1.0,-0.05,-0.06,-0.89,0.69,161.0,,,0.0,1.0,0.0,100.0
120,1,walk,walk,5341,,5341.0,20.0,2.0,6.0,2.0,1.57,-0.01,-0.014,1.142,33.0,28.14,0.0,19.0,0.0,4.0,2.19,0.04,-1.0,-0.05,0.0,-0.91,0.72,161.0,,,0.0,1.0,0.0,100.0
140,1,walk,walk,5342,,5342.0,20.0,2.0,6.0,2.0,1.58,-0.01,0.006,1.148,33.0,28.14,0.0,19.0,0.0,4.0,2.19,0.04,-1.0,-0.05,0.04,-0.94,0.74,161.0,,,0.0,1.0,0.0,100.0
160,1,walk,walk,5343,,5343.0,20.0,2.0,6.0,2.0,1.59,-0.01,0.091,1.127,33.0,28.14,0.0,19.0,0.0,4.0,2.18,0.04,-1.0,-0.05,0.07,-0.97,0.76,161.0,,,0.0,1.0,0.0,100.0
180,1,walk,walk,5344,,5344.0,20.0,2.0,6.0,2.0,1.59,-0.01,0.001,1.145,33.0,28.14,0.0,19.0,0.0,4.0,2.18,0.04,-1.0,-0.05,0.1,-1.0,0.77,161.0,,,0.0,1.0,0.0,100.0
200,1,walk,walk,5345,,5345.0,20.0,2.0,6.0,2.0,1.6,-0.01,-0.061,1.142,33.0,28.11,0.0,19.0,0.0,4.0,2.18,0.04,-1.0,-0.05,0.13,-1.02,0.77,161.0,,,0.0,1.0,0.0,100.0
240,1,walk,walk,5346,,5346.0,20.0,2.0,6.0,2.0,1.6,-0.01,0.052,1.128,33.0,28.14,0.0,19.0,0.0,4.0,2.17,0.04,-1.0,-0.05,0.16,-1.03,0.76,161.0,,,0.0,1.0,0.0,100.0
260,1,walk,walk,5347,,5347.0,20.0,2.0,6.0,2.0,1.6,-0.01,0.007,1.129,33.0,28.14,0.0,19.0,0.0,4.0,2.17,0.04,-1.0,-0.05,0.19,-1.03,0.74,161.0,,,0.0,1.0,0.0,100.0
280,1,walk,walk,5348,,5348.0,20.0,2.0,6.0,2.0,1.6,-0.01,0.085,1.139,33.0,28.11,0.0,19.0,0.0,4.0,2.17,0.04,-1.0,-0.05,0.22,-1.04,0.72,161.0,,,0.0,1.0,0.0,100.0
280,1,walk,walk,5349,,5349.0,20.0,2.0,6.0,2.0,1.6,-0.01,-0.062,1.134,33.0,28.11,0.0,19.0,0.0,4.0,2.16,0.04,-1.0,-0.05,0.26,-1.03,0.69,161.0,,,0.0,1.0,0.0,100.0
300,1,walk,walk,5350,,5350.0,20.0,2.0,6.0,2.0,1.6,-0.01,-0.07,1.111,33.0,28.14,0.0,19.0,0.0,4.0,2.15,0.04,-1.0,-0.05,0.3,-1.03,0.65,161.0,,,0.0,1.0,0.0,100.0
340,1,walk,walk,5351,,5351.0,20.0,2.0,6.0,2.0,1.6,-0.01,0.041,1.094,33.0,28.14,0.0,19.0,0.0,4.0,2.15,0.04,-1.0,-0.05,0.33,-1.01,0.6,161.0,,,0.0,1.0,0.0,100.0
340,1,walk,walk,5352,,5352.0,20.0,2.0,6.0,2.0,1.6,-0.009,0.013,1.11,33.0,28.14,0.0,19.0,0.0,4.0,2.14,0.04,-1.0,-0.05,0.36,-1.0,0.54,161.0,,,0.0,1.0,0.0,100.0
360,1,walk,walk,5353,,5353.0,20.0,2.0,6.0,2.0,1.6,-0.009,0.017,1.096,33.0,28.14,0.0,19.0,0.0,4.0,2.14,0.04,-1.0,-0.05,0.37,-0.99,0.46,161.0,,,0.0,1.0,0.0,100.0
420,1,walk,walk,5354,,5354.0,20.0,2.0,6.0,2.0,1.6,-0.009,-0.037,1.072,33.0,28.14,0.0,19.0,0.0,4.0,2.14,0.04,-1.0,-0.05,0.38,-0.98,0.39,161.0,,,0.0,1.0,0.0,100.0
420,1,walk,walk,5355,,5355.0,20.0,2.0,6.0,2.0,1.6,-0.009,-0.088,1.071,33.0,28.14,0.0,19.0,0.0,4.0,2.15,0.04,-1.0,-0.05,0.39,-0.97,0.32,161.0,,,0.0,1.0,0.0,100.0
440,1,walk,walk,5356,,5356.0,20.0,2.0,6.0,2.0,1.6,-0.009,0.095,1.074,33.0,28.14,0.0,19.0,0.0,4.0,2.15,0.04,-1.0,-0.05,0.39,-0.96,0.25,161.0,,,0.0,1.0,0.0,100.0
460,1,walk,walk,5357,,5357.0,20.0,2.0,6.0,2.0,1.6,-0.009,-0.011,1.063,33.0,28.14,0.0,19.0,0.0,4.0,2.16,0.04,-1.0,-0.05,0.39,-0.96,0.19,161.0,,,0.0,1.0,0.0,100.0
460,1,walk,walk,5358,,5358.0,20.0,2.0,6.0,2.0,1.6,-0.009,-0.096,1.07,33.0,28.14,0.0,19.0,0.0,4.0,2.18,0.04,-1.0,-0.05,0.4,-0.97,0.15,161.0,,,0.0,1.0,0.0,100.0
480,1,walk,walk,5359,,5359.0,20.0,2.0,6.0,2.0,1.6,-0.009,0.058,1.082,33.0,28.14,0.0,19.0,0.0,4.0,2.19,0.04,-1.0,-0.05,0.42,-0.97,0.13,161.0,,,0.0,1.0,0.0,100.0
500,1,walk,walk,5360,,5360.0,20.0,2.0,6.0,2.0,1.6,-0.009,-0.053,1.074,33.0,28.14,0.0,19.0,0.0,4.0,2.2,0.04,-1.0,-0.05,0.44,-0.98,0.12,161.0,,,0.0,1.0,0.0,100.0
520,1,walk,walk,5361,,5361.0,20.0,2.0,6.0,2.0,1.6,-0.009,-0.042,1.073,33.0,28.14,0.0,19.0,0.0,4.0,2.22,0.04,-1.0,-0.05,0.47,-0.98,0.12,161.0,,,0.0,1.0,0.0,100.0
580,1,walk,walk,5362,,5362.0,20.0,2.0,6.0,2.0,1.6,-0.009,0.013,1.077,33.0,28.14,0.0,19.0,0.0,4.0,2.23,0.04,-1.0,-0.05,0.51,-0.98,0.14,161.0,,,0.0,1.0,0.0,100.0
580,1,walk,walk,5363,,5363.0,20.0,2.0,6.0,2.0,1.61,-0.009,-0.018,1.051,33.0,28.14,0.0,19.0,0.0,4.0,2.24,0.04,-1.0,-0.05,0.54,-0.98,0.16,161.0,,,0.0,1.0,0.0,100.0
600,1,walk,walk,5364,,5364.0,20.0,2.0,6.0,2.0,1.61,-0.009,0.097,1.063,33.0,28.14,0.0,19.0,0.0,4.0,2.26,0.04,-1.0,-0.05,0.57,-0.98,0.18,161.0,,,0.0,1.0,0.0,100.0
600,1,walk,walk,5365,,5365.0,20.0,2.0,6.0,2.0,1.61,-0.009,0.041,1.057,33.0,28.14,0.0,19.0,0.0,4.0,2.27,0.04,-1.0,-0.05,0.58,-0.98,0.21,161.0,,,0.0,1.0,0.0,100.0
620,1,walk,walk,5366,,5366.0,20.0,2.0,6.0,2.0,1.62,-0.009,0.003,1.066,33.0,28.14,0.0,19.0,0.0,4.0,2.28,0.04,-1.0,-0.05,0.59,-0.98,0.23,161.0,,,0.0,1.0,0.0,100.0
640,1,walk,walk,5367,,5367.0,20.0,2.0,6.0,2.0,1.63,-0.009,0.015,1.072,33.0,28.14,0.0,19.0,0.0,4.0,2.29,0.04,-1.0,-0.05,0.59,-0.97,0.26,161.0,,,0.0,1.0,0.0,100.0
660,1,walk,walk,5368,,5368.0,20.0,2.0,6.0,2.0,1.63,-0.009,-0.053,1.067,33.0,28.14,0.0,19.0,0.0,4.0,2.3,0.04,-1.0,-0.05,0.58,-0.97,0.28,161.0,,,0.0,1.0,0.0,100.0
680,1,walk,walk,5369,,5369.0,20.0,2.0,6.0,2.0,1.64,-0.009,0.021,1.065,33.0,28.14,0.0,19.0,0.0,4.0,2.3,0.04,-1.0,-0.05,0.57,-0.97,0.29,161.0,,,0.0,1.0,0.0,100.0
720,1,walk,walk,5370,,5370.0,20.0,2.0,6.0,2.0,1.64,-0.009,-0.064,1.072,33.0,28.14,0.0,19.0,0.0,4.0,2.31,0.04,-1.0,-0.05,0.55,-0.96,0.3,161.0,,,0.0,1.0,0.0,100.0
740,1,walk,walk,5371,,5371.0,20.0,2.0,6.0,2.0,1.65,-0.009,-0.04,1.057,33.0,28.14,0.0,19.0,0.0,4.0,2.31,0.04,-1.0,-0.05,0.53,-0.96,0.3,161.0,,,0.0,1.0,0.0,100.0
760,1,walk,walk,5372,,5372.0,20.0,2.0,6.0,2.0,1.66,-0.009,-0.075,1.071,33.0,28.14,0.0,19.0,0.0,4.0,2.32,0.04,-1.0,-0.05,0.51,-0.96,0.31,161.0,,,0.0,1.0,0.0,100.0
780,1,walk,walk,5373,,5373.0,20.0,2.0,6.0,2.0,1.66,-0.009,-0.057,1.073,33.0,28.14,0.0,19.0,0.0,4.0,2.32,0.04,-1.0,-0.05,0.49,-0.96,0.31,161.0,,,0.0,1.0,0.0,100.0
780,1,walk,walk,5374,,5374.0,20.0,2.0,6.0,2.0,1.67,-0.009,-0.017,1.065,33.0,28.14,0.0,19.0,0.0,4.0,2.32,0.04,-1.0,-0.05,0.47,-0.97,0.32,161.0,,,0.0,1.0,0.0,100.0
800,1,walk,walk,5375,,5375.0,20.0,2.0,6.0,2.0,1.68,-0.009,-0.075,1.065,33.0,28.14,0.0,19.0,0.0,4.0,2.33,0.04,-1.0,-0.05,0.47,-0.98,0.32,161.0,,,0.0,1.0,0.0,100.0
820,1,walk,walk,5376,,5376.0,20.0,2.0,6.0,2.0,1.68,-0.009,0.034,1.061,33.0,28.14,0.0,19.0,0.0,4.0,2.34,0.04,-1.0,-0.05,0.47,-0.99,0.34,161.0,,,0.0,1.0,0.0,100.0
840,1,walk,walk,5377,,5377.0,20.0,2.0,6.0,2.0,1.69,-0.009,-0.096,1.05,33.0,28.14,0.0,19.0,0.0,4.0,2.34,0.04,-1.0,-0.05,0.47,-1.01,0.36,161.0,,,0.0,1.0,0.0,100.0
900,1,walk,walk,5378,,5378.0,20.0,2.0,6.0,2.0,1.7,-0.009,-0.002,1.073,33.0,28.14,0.0,19.0,0.0,4.0,2.36,0.04,-1.0,-0.05,0.48,-1.04,0.39,161.0,,,0.0,1.0,0.0,100.0
900,1,walk,walk,5379,,5379.0,20.0,2.0,6.0,2.0,1.7,-0.009,0.057,1.07,33.0,28.14,0.0,19.0,0.0,4.0,2.37,0.04,-1.0,-0.05,0.5,-1.07,0.43,161.0,,,0.0,1.0,0.0,100.0
920,1,walk,walk,5380,,5380.0,20.0,2.0,6.0,2.0,1.71,-0.009,-0.006,1.072,33.0,28.14,0.0,19.0,0.0,4.0,2.37,0.04,-1.0,-0.05,0.52,-1.1,0.47,161.0,,,0.0,1.0,0.0,100.0
940,1,walk,walk,5381,,5381.0,20.0,2.0,6.0,2.0,1.72,-0.009,0.022,1.08,33.0,28.14,0.0,19.0,0.0,4.0,2.38,0.04,-1.0,-0.05,0.55,-1.12,0.51,161.0,,,0.0,1.0,0.0,100.0
940,1,walk,walk,5382,,5382.0,20.0,2.0,6.0,2.0,1.72,-0.009,-0.006,1.092,33.0,28.14,0.0,19.0,0.0,4.0,2.38,0.04,-1.0,-0.05,0.58,-1.13,0.56,161.0,,,0.0,1.0,0.0,100.0
960,1,walk,walk,5383,,5383.0,20.0,2.0,6.0,2.0,1.73,-0.009,0.029,1.078,33.0,28.14,0.0,19.0,0.0,4.0,2.38,0.04,-1.0,-0.04,0.6,-1.14,0.6,161.0,,,0.0,1.0,0.0,100.0
980,1,walk,walk,5384,,5384.0,20.0,2.0,6.0,2.0,1.73,-0.009,-0.096,1.079,33.0,28.14,0.0,19.0,0.0,4.0,2.38,0.04,-1.0,-0.04,0.63,-1.14,0.64,161.0,,,0.0,1.0,0.0,100.0
1000,1,walk,walk,5385,,5385.0,20.0,2.0,6.0,2.0,1.74,-0.009,0.026,1.078,33.0,28.14,0.0,19.0,0.0,4.0,2.38,0.04,-1.0,-0.04,0.65,-1.14,0.68,161.0,,,0.0,1.0,0.0,100.0
1020,1,walk,walk,5386,,5386.0,20.0,2.0,6.0,2.0,1.74,-0.009,0.006,1.084,33.0,28.11,0.0,19.0,0.0,4.0,2.38,0.04,-1.0,-0.04,0.67,-1.14,0.71,161.0,,,0.0,1.0,0.0,100.0
1060,1,walk,walk,5387,,5387.0,20.0,2.0,6.0,2.0,1.74,-0.009,-0.029,1.077,33.0,28.14,0.0,19.0,0.0,4.0,2.38,0.04,-1.0,-0.04,0.69,-1.14,0.74,161.0,,,0.0,1.0,0.0,100.0
1060,1,walk,walk,5388,,5388.0,20.0,2.0,6.0,2.0,1.75,-0.009,0.002,1.088,33.0,28.14,0.0,19.0,0.0,4.0,2.37,0.04,-1.0,-0.04,0.71,-1.14,0.76,161.0,,,0.0,1.0,0.0,100.0
1080,1,walk,walk,5389,,5389.0,20.0,2.0,6.0,2.0,1.75,-0.009,0.06,1.085,33.0,28.14,0.0,19.0,0.0,4.0,2.37,0.04,-1.0,-0.04,0.73,-1.14,0.79,161.0,,,0.0,1.0,0.0,100.0
1100,1,walk,walk,5390,,5390.0,20.0,2.0,6.0,2.0,1.75,-0.009,0.03,1.099,33.0,28.14,0.0,19.0,0.0,4.0,2.36,0.04,-1.0,-0.04,0.74,-1.14,0.81,161.0,,,0.0,1.0,0.0,100.0
1120,1,walk,walk,5391,,5391.0,20.0,2.0,6.0,2.0,1.76,-0.009,0.011,1.108,33.0,28.14,0.0,19.0,0.0,4.0,2.36,0.04,-1.0,-0.04,0.74,-1.13,0.83,161.0,,,0.0,1.0,0.0,100.0
1140,1,walk,walk,5392,,5392.0,20.0,2.0,6.0,2.0,1.76,-0.009,0.032,1.114,33.0,28.14,0.0,19.0,0.0,4.0,2.35,0.04,-1.0,-0.04,0.74,-1.13,0.85,161.0,,,0.0,1.0,0.0,100.0
1160,1,walk,walk,5393,,5393.0,20.0,2.0,6.0,2.0,1.76,-0.01,-0.011,1.085,33.0,28.14,0.0,19.0,0.0,4.0,2.34,0.04,-1.0,-0.04,0.73,-1.12,0.86,161.0,,,0.0,1.0,0.0,100.0
1200,1,walk,walk,5394,,5394.0,20.0,2.0,6.0,2.0,1.76,-0.009,0.013,1.101,33.0,28.11,0.0,19.0,0.0,4.0,2.34,0.04,-1.0,-0.04,0.7,-1.11,0.87,161.0,,,0.0,1.0,0.0,100.0
1220,1,walk,walk,5395,,5395.0,20.0,2.0,6.0,2.0,1.76,-0.009,0.025,1.105,33.0,28.14,0.0,19.0,0.0,4.0,2.32,0.04,-1.0,-0.04,0.67,-1.11,0.88,161.0,,,0.0,1.0,0.0,100.0
1240,1,walk,walk,5396,,5396.0,20.0,2.0,6.0,2.0,1.76,-0.009,0.068,1.088,33.0,28.14,0.0,19.0,0.0,4.0,2.31,0.04,-1.0,-0.04,0.64,-1.1,0.87,161.0,,,0.0,1.0,0.0,100.0
1240,1,walk,walk,5397,,5397.0,20.0,2.0,6.0,2.0,1.75,-0.009,0.044,1.092,33.0,28.14,0.0,19.0,0.0,4.0,2.3,0.04,-1.0,-0.04,0.6,-1.09,0.85,161.0,,,0.0,1.0,0.0,100.0
1260,1,walk,walk,5398,,5398.0,20.0,2.0,6.0,2.0,1.75,-0.009,0.036,1.116,33.0,28.11,0.0,19.0,0.0,4.0,2.29,0.04,-1.0,-0.04,0.57,-1.08,0.82,161.0,,,0.0,1.0,0.0,100.0
1300,1,walk,walk,5399,,5399.0,20.0,2.0,6.0,2.0,1.75,-0.009,0.062,1.123,33.0,28.14,0.0,19.0,0.0,4.0,2.28,0.04,-1.0,-0.04,0.53,-1.08,0.79,161.0,,,0.0,1.0,0.0,100.0
1300,1,walk,walk,5400,,5400.0,20.0,2.0,6.0,2.0,1.75,-0.009,0.019,1.093,33.0,28.14,0.0,19.0,0.0,4.0,2.28,0.04,-1.0,-0.04,0.5,-1.07,0.75,161.0,,,0.0,1.0,0.0,100.0
1320,1,walk,walk,5401,,5401.0,20.0,2.0,6.0,2.0,1.74,-0.01,-0.095,1.089,33.0,28.11,0.0,19.0,0.0,4.0,2.28,0.04,-1.0,-0.04,0.48,-1.07,0.72,161.0,,,0.0,1.0,0.0,100.0
1380,1,walk,walk,5402,,5402.0,20.0,2.0,6.0,2.0,1.74,-0.009,0.021,1.109,33.0,28.14,0.0,19.0,0.0,4.0,2.27,0.04,-1.0,-0.04,0.46,-1.08,0.69,161.0,,,0.0,1.0,0.0,100.0
1380,1,walk,walk,5403,,5403.0,20.0,2.0,6.0,2.0,1.74,-0.009,0.064,1.116,33.0,28.11,0.0,19.0,0.0,4.0,2.27,0.04,-1.0,-0.04,0.44,-1.09,0.66,161.0,,,0.0,1.0,0.0,100.0
1380,1,walk,walk,5404,,5404.0,20.0,2.0,6.0,2.0,1.73,-0.009,0.042,1.095,33.0,28.11,0.0,19.0,0.0,4.0,2.28,0.04,-1.0,-0.04,0.42,-1.11,0.65,161.0,,,0.0,1.0,0.0,100.0
1420,1,walk,walk,5405,,5405.0,20.0,2.0,6.0,2.0,1.73,-0.009,-0.048,1.117,33.0,28.11,0.0,19.0,0.0,4.0,2.28,0.04,-1.0,-0.04,0.4,-1.12,0.64,161.0,,,0.0,1.0,0.0,100.0
1420,1,walk,walk,5406,,5406.0,20.0,2.0,6.0,2.0,1.73,-0.009,0.05,1.135,33.0,28.14,0.0,19.0,0.0,4.0,2.28,0.04,-1.0,-0.04,0.37,-1.14,0.65,161.0,,,0.0,1.0,0.0,100.0
1440,1,walk,walk,5407,,5407.0,20.0,2.0,6.0,2.0,1.72,-0.009,0.019,1.121,33.0,28.11,0.0,19.0,0.0,4.0,2.28,0.04,-1.0,-0.04,0.33,-1.16,0.65,161.0,,,0.0,1.0,0.0,100.0
1460,1,walk,walk,5408,,5408.0,20.0,2.0,6.0,2.0,1.72,-0.009,-0.077,1.094,33.0,28.14,0.0,19.0,0.0,4.0,2.27,0.04,-1.0,-0.04,0.28,-1.17,0.65,161.0,,,0.0,1.0,0.0,100.0
1480,1,walk,walk,5409,,5409.0,20.0,2.0,6.0,2.0,1.72,-0.009,-0.03,1.118,33.0,28.14,0.0,19.0,0.0,4.0,2.27,0.04,-1.0,-0.04,0.23,-1.18,0.66,161.0,,,0.0,1.0,0.0,100.0
1500,1,walk,walk,5410,,5410.0,20.0,2.0,6.0,2.0,1.72,-0.009,0.028,1.115,33.0,28.14,0.0,19.0,0.0,4.0,2.27,0.04,-1.0,-0.04,0.19,-1.18,0.66,161.0,,,0.0,1.0,0.0,100.0
1540,1,walk,walk,5411,,5411.0,20.0,2.0,6.0,2.0,1.71,-0.009,-0.018,1.117,33.0,28.14,0.0,19.0,0.0,4.0,2.27,0.04,-1.0,-0.04,0.14,-1.17,0.66,161.0,,,0.0,1.0,0.0,100.0
1540,1,walk,walk,5412,,5412.0,20.0,2.0,6.0,2.0,1.71,-0.009,0.03,1.114,33.0,28.11,0.0,19.0,0.0,4.0,2.27,0.04,-1.0,-0.04,0.1,-1.17,0.67,161.0,,,0.0,1.0,0.0,100.0
1560,1,walk,walk,5413,,5413.0,20.0,2.0,6.0,2.0,1.71,-0.009,-0.044,1.096,33.0,28.11,0.0,19.0,0.0,4.0,2.26,0.04,-1.0,-0.04,0.06,-1.16,0.68,161.0,,,0.0,1.0,0.0,100.0
1580,1,walk,walk,5414,,5414.0,20.0,2.0,6.0,2.0,1.71,-0.009,0.049,1.103,33.0,28.14,0.0,19.0,0.0,4.0,2.26,0.04,-1.0,-0.04,0.03,-1.15,0.68,161.0,,,0.0,1.0,0.0,100.0
1600,1,walk,walk,5415,,5415.0,20.0,2.0,6.0,2.0,1.7,-0.009,0.005,1.095,33.0,28.14,0.0,19.0,0.0,4.0,2.25,0.04,-1.0,-0.04,0.0,-1.14,0.69,161.0,,,0.0,1.0,0.0,100.0
1620,1,walk,walk,5416,,5416.0,20.0,2.0,6.0,2.0,1.7,-0.009,0.05,1.091,33.0,28.11,0.0,19.0,0.0,4.0,2.25,0.04,-1.0,-0.04,-0.01,-1.13,0.68,161.0,,,0.0,1.0,0.0,100.0
1640,1,walk,walk,5417,,5417.0,20.0,2.0,6.0,2.0,1.7,-0.009,-0.014,1.092,33.0,28.14,0.0,19.0,0.0,4.0,2.24,0.04,-1.0,-0.04,-0.02,-1.11,0.66,161.0,,,0.0,1.0,0.0,100.0
1680,1,walk,walk,5418,,5418.0,20.0,2.0,6.0,2.0,1.7,-0.009,0.029,1.108,33.0,28.14,0.0,19.0,0.0,4.0,2.23,0.04,-1.0,-0.04,-0.03,-1.1,0.64,161.0,,,0.0,1.0,0.0,100.0
1700,1,walk,walk,5419,,5419.0,20.0,2.0,6.0,2.0,1.7,-0.009,0.077,1.105,33.0,28.14,0.0,19.0,0.0,4.0,2.23,0.04,-1.0,-0.04,-0.02,-1.09,0.61,161.0,,,0.0,1.0,0.0,100.0
1720,1,walk,walk,5420,,5420.0,20.0,2.0,6.0,2.0,1.69,-0.009,0.006,1.123,33.0,28.14,0.0,19.0,0.0,4.0,2.23,0.04,-1.0,-0.04,-0.01,-1.09,0.59,161.0,,,0.0,1.0,0.0,100.0
1740,1,walk,walk,5421,,5421.0,20.0,2.0,6.0,2.0,1.69,-0.009,0.064,1.109,33.0,28.14,0.0,19.0,0.0,4.0,2.23,0.04,-1.0,-0.04,0.0,-1.09,0.58,161.0,,,0.0,1.0,0.0,100.0
1740,1,walk,walk,5422,,5422.0,20.0,2.0,6.0,2.0,1.69,-0.009,0.053,1.105,33.0,28.11,0.0,19.0,0.0,4.0,2.23,0.04,-1.0,-0.04,0.01,-1.1,0.58,161.0,,,0.0,1.0,0.0,100.0
1780,1,walk,walk,5423,,5423.0,20.0,2.0,6.0,2.0,1.69,-0.009,0.033,1.134,33.0,28.14,0.0,19.0,0.0,4.0,2.23,0.04,-1.0,-0.04,0.03,-1.1,0.58,161.0,,,0.0,1.0,0.0,100.0
1780,1,walk,walk,5424,,5424.0,20.0,2.0,6.0,2.0,1.69,-0.01,0.006,1.106,33.0,28.14,0.0,19.0,0.0,4.0,2.23,0.04,-1.0,-0.04,0.04,-1.11,0.6,161.0,,,0.0,1.0,0.0,100.0
1800,1,walk,walk,5425,,5425.0,20.0,2.0,6.0,2.0,1.69,-0.009,-0.001,1.114,33.0,28.11,0.0,19.0,0.0,4.0,2.24,0.04,-1.0,-0.04,0.05,-1.12,0.62,161.0,,,0.0,1.0,0.0,100.0
1880,1,walk,walk,5426,,5426.0,20.0,2.0,6.0,2.0,1.68,-0.009,0.03,1.131,33.0,28.14,0.0,19.0,0.0,4.0,2.24,0.04,-1.0,-0.04,0.05,-1.12,0.64,161.0,,,0.0,1.0,0.0,100.0
1880,1,walk,walk,5427,,5427.0,20.0,2.0,6.0,2.0,1.68,-0.009,0.111,1.104,33.0,28.11,0.0,19.0,0.0,4.0,2.24,0.04,-1.0,-0.04,0.05,-1.12,0.67,161.0,,,0.0,1.0,0.0,100.0
1900,1,walk,walk,5428,,5428.0,20.0,2.0,6.0,2.0,1.68,-0.01,-0.087,1.101,33.0,28.14,0.0,19.0,0.0,4.0,2.24,0.04,-1.0,-0.04,0.04,-1.12,0.7,161.0,,,0.0,1.0,0.0,100.0
1900,1,walk,walk,5429,,5429.0,20.0,2.0,6.0,2.0,1.68,-0.01,0.095,1.111,33.0,28.14,0.0,19.0,0.0,4.0,2.24,0.04,-1.0,-0.04,0.03,-1.12,0.73,161.0,,,0.0,1.0,0.0,100.0
1900,1,walk,walk,5430,,5430.0,20.0,2.0,6.0,2.0,1.68,-0.01,-0.075,1.121,33.0,28.14,0.0,19.0,0.0,4.0,2.24,0.04,-1.0,-0.04,0.02,-1.12,0.76,161.0,,,0.0,1.0,0.0,100.0
1920,1,walk,walk,5431,,5431.0,20.0,2.0,6.0,2.0,1.68,-0.009,-0.002,1.127,33.0,28.11,0.0,19.0,0.0,4.0,2.24,0.04,-1.0,-0.04,0.02,-1.13,0.79,161.0,,,0.0,1.0,0.0,100.0
1960,1,walk,walk,5432,,5432.0,20.0,2.0,6.0,2.0,1.68,-0.009,0.025,1.109,33.0,28.14,0.0,19.0,0.0,4.0,2.24,0.04,-1.0,-0.04,0.02,-1.14,0.81,161.0,,,0.0,1.0,0.0,100.0
1980,1,walk,walk,5433,,5433.0,20.0,2.0,6.0,2.0,1.68,-0.009,-0.026,1.136,33.0,28.14,0.0,19.0,0.0,4.0,2.25,0.04,-1.0,-0.04,0.02,-1.15,0.84,161.0,,,0.0,1.0,0.0,100.0
1980,1,walk,walk,5434,,5434.0,20.0,2.0,6.0,2.0,1.67,-0.01,0.054,1.124,33.0,28.11,0.0,19.0,0.0,4.0,2.25,0.04,-1.0,-0.04,0.03,-1.15,0.86,161.0,,,0.0,1.0,0.0,100.0
2020,1,walk,walk,5435,,5435.0,20.0,2.0,6.0,2.0,1.67,-0.01,0.052,1.117,33.0,28.14,0.0,19.0,0.0,4.0,2.24,0.04,-1.0,-0.04,0.03,-1.15,0.88,161.0,,,0.0,1.0,0.0,100.0
2020,1,walk,walk,5436,,5436.0,20.0,2.0,6.0,2.0,1.67,-0.01,-0.023,1.134,33.0,28.11,0.0,19.0,0.0,4.0,2.24,0.04,-1.0,-0.04,0.04,-1.15,0.89,161.0,,,0.0,1.0,0.0,100.0
2040,1,walk,walk,5437,,5437.0,20.0,2.0,6.0,2.0,1.67,-0.01,0.001,1.108,33.0,28.14,0.0,19.0,0.0,4.0,2.23,0.04,-1.0,-0.05,0.06,-1.15,0.89,161.0,,,0.0,1.0,0.0,100.0
2060,1,walk,walk,5438,,5438.0,20.0,2.0,6.0,2.0,1.66,-0.009,0.091,1.113,33.0,28.14,0.0,19.0,0.0,4.0,2.23,0.04,-1.0,-0.05,0.07,-1.16,0.89,161.0,,,0.0,1.0,0.0,100.0
2080,1,walk,walk,5439,,5439.0,20.0,2.0,6.0,2.0,1.66,-0.01,0.053,1.125,33.0,28.14,0.0,19.0,0.0,4.0,2.22,0.04,-1.0,-0.05,0.09,-1.17,0.89,161.0,,,0.0,1.0,0.0,100.0
2100,1,walk,walk,5440,,5440.0,20.0,2.0,6.0,2.0,1.66,-0.01,-0.034,1.115,33.0,28.14,0.0,19.0,0.0,4.0,2.22,0.04,-1.0,-0.05,0.12,-1.18,0.88,161.0,,,0.0,1.0,0.0,100.0
2120,1,walk,walk,5441,,5441.0,20.0,2.0,6.0,2.0,1.65,-0.01,-0.023,1.136,33.0,28.11,0.0,19.0,0.0,4.0,2.21,0.04,-1.0,-0.05,0.16,-1.18,0.88,161.0,,,0.0,1.0,0.0,100.0
2160,1,walk,walk,5442,,5442.0,20.0,2.0,6.0,2.0,1.65,-0.01,0.036,1.129,33.0,28.11,0.0,19.0,0.0,4.0,2.21,0.04,-1.0,-0.05,0.2,-1.19,0.89,161.0,,,0.0,1.0,0.0,100.0
2180,1,walk,walk,5443,,5443.0,20.0,2.0,6.0,2.0,1.65,-0.01,-0.034,1.131,33.0,28.11,0.0,19.0,0.0,4.0,2.2,0.04,-1.0,-0.05,0.24,-1.18,0.89,161.0,,,0.0,1.0,0.0,100.0
2200,1,walk,walk,5444,,5444.0,20.0,2.0,6.0,2.0,1.64,-0.01,-0.092,1.132,33.0,28.14,0.0,19.0,0.0,4.0,2.19,0.04,-1.0,-0.05,0.29,-1.18,0.88,161.0,,,0.0,1.0,0.0,100.0
2200,1,walk,walk,5445,,5445.0,20.0,2.0,6.0,2.0,1.64,-0.01,-0.03,1.123,33.0,28.11,0.0,19.0,0.0,4.0,2.18,0.04,-1.0,-0.05,0.33,-1.16,0.86,161.0,,,0.0,1.0,0.0,100.0
2220,1,walk,walk,5446,,5446.0,20.0,2.0,6.0,2.0,1.63,-0.01,-0.072,1.115,33.0,28.14,0.0,19.0,0.0,4.0,2.17,0.04,-1.0,-0.05,0.37,-1.14,0.83,161.0,,,0.0,1.0,0.0,100.0
2260,1,walk,walk,5447,,5447.0,20.0,2.0,6.0,2.0,1.63,-0.01,0.019,1.132,33.0,28.14,0.0,19.0,0.0,4.0,2.16,0.04,-1.0,-0.05,0.41,-1.11,0.79,161.0,,,0.0,1.0,0.0,100.0
2260,1,walk,walk,5448,,5448.0,20.0,2.0,6.0,2.0,1.62,-0.009,-0.017,1.119,33.0,28.14,0.0,19.0,0.0,4.0,2.15,0.04,-1.0,-0.05,0.46,-1.07,0.73,161.0,,,0.0,1.0,0.0,100.0
2280,1,walk,walk,5449,,5449.0,20.0,2.0,6.0,2.0,1.62,-0.009,-0.006,1.087,33.0,28.14,0.0,19.0,0.0,4.0,2.14,0.04,-1.0,-0.05,0.5,-1.02,0.66,161.0,,,0.0,1.0,0.0,100.0
2340,1,walk,walk,5450,,5450.0,20.0,2.0,6.0,2.0,1.61,-0.009,-0.045,1.107,33.0,28.11,0.0,19.0,0.0,4.0,2.14,0.04,-1.0,-0.05,0.53,-0.97,0.59,161.0,,,0.0,1.0,0.0,100.0
2340,1,walk,walk,5451,,5451.0,20.0,2.0,6.0,2.0,1.61,-0.009,0.04,1.104,33.0,28.11,0.0,19.0,0.0,4.0,2.15,0.04,-1.0,-0.05,0.56,-0.93,0.52,161.0,,,0.0,1.0,0.0,100.0
2340,1,walk,walk,5452,,5452.0,20.0,2.0,6.0,2.0,1.61,-0.009,0.081,1.099,33.0,28.14,0.0,19.0,0.0,4.0,2.16,0.04,-1.0,-0.05,0.58,-0.89,0.47,161.0,,,0.0,1.0,0.0,100.0
2380,1,walk,walk,5453,,5453.0,20.0,2.0,6.0,2.0,1.6,-0.009,-0.06,1.108,33.0,28.14,0.0,19.0,0.0,4.0,2.17,0.04,-1.0,-0.05,0.6,-0.86,0.42,161.0,,,0.0,1.0,0.0,100.0
2380,1,walk,walk,5454,,5454.0,20.0,2.0,6.0,2.0,1.6,-0.009,-0.028,1.128,33.0,28.11,0.0,19.0,0.0,4.0,2.18,0.04,-1.0,-0.05,0.62,-0.84,0.39,161.0,,,0.0,1.0,0.0,100.0
2400,1,walk,walk,5455,,5455.0,20.0,2.0,6.0,2.0,1.59,-0.009,-0.022,1.129,33.0,28.14,0.0,19.0,0.0,4.0,2.19,0.04,-1.0,-0.04,0.63,-0.82,0.37,161.0,,,0.0,1.0,0.0,100.0
2440,1,walk,walk,5456,,5456.0,20.0,2.0,6.0,2.0,1.59,-0.009,-0.029,1.101,33.0,28.14,0.0,19.0,0.0,4.0,2.19,0.04,-1.0,-0.04,0.65,-0.81,0.35,161.0,,,0.0,1.0,0.0,100.0
2460,1,walk,walk,5457,,5457.0,20.0,2.0,6.0,2.0,1.59,-0.009,0.017,1.091,33.0,28.14,0.0,19.0,0.0,4.0,2.2,0.04,-1.0,-0.04,0.66,-0.8,0.34,161.0,,,0.0,1.0,0.0,100.0
2460,1,walk,walk,5458,,5458.0,20.0,2.0,6.0,2.0,1.59,-0.009,0.021,1.101,33.0,28.14,0.0,19.0,0.0,4.0,2.2,0.04,-1.0,-0.04,0.67,-0.79,0.32,161.0,,,0.0,1.0,0.0,100.0
2500,1,walk,walk,5459,,5459.0,20.0,2.0,6.0,2.0,1.59,-0.009,0.04,1.112,33.0,28.14,0.0,19.0,0.0,4.0,2.21,0.04,-1.0,-0.04,0.68,-0.79,0.31,161.0,,,0.0,1.0,0.0,100.0
2500,1,walk,walk,5460,,5460.0,20.0,2.0,6.0,2.0,1.59,-0.009,0.005,1.107,33.0,28.11,0.0,19.0,0.0,4.0,2.21,0.04,-1.0,-0.04,0.68,-0.79,0.3,161.0,,,0.0,1.0,0.0,100.0
2520,1,walk,walk,5461,,5461.0,20.0,2.0,6.0,2.0,1.59,-0.009,0.042,1.094,33.0,28.14,0.0,19.0,0.0,4.0,2.22,0.04,-1.0,-0.04,0.68,-0.8,0.29,161.0,,,0.0,1.0,0.0,100.0
2540,1,walk,walk,5462,,5462.0,20.0,2.0,6.0,2.0,1.59,-0.009,-0.048,1.105,33.0,28.14,0.0,19.0,0.0,4.0,2.22,0.04,-1.0,-0.04,0.67,-0.8,0.29,161.0,,,0.0,1.0,0.0,100.0
2580,1,walk,walk,5463,,5463.0,20.0,2.0,6.0,2.0,1.59,-0.009,-0.077,1.101,33.0,28.14,0.0,19.0,0.0,4.0,2.23,0.04,-1.0,-0.04,0.67,-0.81,0.29,161.0,,,0.0,1.0,0.0,100.0
2580,1,walk,walk,5464,,5464.0,20.0,2.0,6.0,2.0,1.6,-0.009,-0.014,1.104,33.0,28.14,0.0,19.0,0.0,4.0,2.24,0.04,-1.0,-0.04,0.66,-0.82,0.31,161.0,,,0.0,1.0,0.0,100.0
2600,1,walk,walk,5465,,5465.0,20.0,2.0,6.0,2.0,1.6,-0.009,0.019,1.08,33.0,28.14,0.0,19.0,0.0,4.0,2.25,0.04,-1.0,-0.04,0.64,-0.83,0.32,161.0,,,0.0,1.0,0.0,100.0
2640,1,walk,walk,5466,,5466.0,20.0,2.0,6.0,2.0,1.6,-0.009,0.014,1.093,33.0,28.11,0.0,19.0,0.0,4.0,2.25,0.04,-1.0,-0.04,0.62,-0.85,0.34,161.0,,,0.0,1.0,0.0,100.0
2660,1,walk,walk,5467,,5467.0,20.0,2.0,6.0,2.0,1.61,-0.009,0.001,1.101,33.0,28.14,0.0,19.0,0.0,4.0,2.25,0.04,-1.0,-0.04,0.58,-0.86,0.36,161.0,,,0.0,1.0,0.0,100.0
2660,1,walk,walk,5468,,5468.0,20.0,2.0,6.0,2.0,1.61,-0.009,0.026,1.089,33.0,28.11,0.0,19.0,0.0,4.0,2.25,0.04,-1.0,-0.04,0.54,-0.88,0.37,161.0,,,0.0,1.0,0.0,100.0
2700,1,walk,walk,5469,,5469.0,20.0,2.0,6.0,2.0,1.61,-0.009,0.006,1.079,33.0,28.11,0.0,19.0,0.0,4.0,2.26,0.04,-1.0,-0.04,0.5,-0.88,0.38,161.0,,,0.0,1.0,0.0,100.0
2700,1,walk,walk,5470,,5470.0,20.0,2.0,6.0,2.0,1.62,-0.009,-0.034,1.1,33.0,28.14,0.0,19.0,0.0,4.0,2.26,0.04,-1.0,-0.04,0.46,-0.89,0.39,161.0,,,0.0,1.0,0.0,100.0
2740,1,walk,walk,5471,,5471.0,20.0,2.0,6.0,2.0,1.62,-0.009,-0.011,1.087,33.0,28.14,0.0,19.0,0.0,4.0,2.26,0.04,-1.0,-0.04,0.42,-0.88,0.39,161.0,,,0.0,1.0,0.0,100.0
2760,1,walk,walk,5472,,5472.0,20.0,2.0,6.0,2.0,1.63,-0.009,-0.103,1.112,33.0,28.14,0.0,19.0,0.0,4.0,2.26,0.04,-1.0,-0.04,0.39,-0.87,0.38,161.0,,,0.0,1.0,0.0,100.0
2780,1,walk,walk,5473,,5473.0,20.0,2.0,6.0,2.0,1.63,-0.009,-0.048,1.074,33.0,28.14,0.0,19.0,0.0,4.0,2.26,0.04,-1.0,-0.04,0.35,-0.86,0.36,161.0,,,0.0,1.0,0.0,100.0
2800,1,walk,walk,5474,,5474.0,20.0,2.0,6.0,2.0,1.64,-0.009,-0.018,1.082,33.0,28.14,0.0,19.0,0.0,4.0,2.27,0.04,-1.0,-0.04,0.32,-0.85,0.33,161.0,,,0.0,1.0,0.0,100.0
2820,1,walk,walk,5475,,5475.0,20.0,2.0,6.0,2.0,1.64,-0.009,-0.017,1.086,33.0,28.14,0.0,19.0,0.0,4.0,2.28,0.04,-1.0,-0.04,0.29,-0.85,0.3,161.0,,,0.0,1.0,0.0,100.0
2820,1,walk,walk,5476,,5476.0,20.0,2.0,6.0,2.0,1.65,-0.009,-0.136,1.089,33.0,28.14,0.0,19.0,0.0,4.0,2.28,0.04,-1.0,-0.04,0.27,-0.86,0.27,161.0,,,0.0,1.0,0.0,100.0
2860,1,walk,walk,5477,,5477.0,20.0,2.0,6.0,2.0,1.65,-0.009,-0.011,1.1,33.0,28.14,0.0,19.0,0.0,4.0,2.29,0.04,-1.0,-0.04,0.25,-0.86,0.25,161.0,,,0.0,1.0,0.0,100.0
2860,1,walk,walk,5478,,5478.0,20.0,2.0,6.0,2.0,1.66,-0.009,-0.045,1.082,33.0,28.14,0.0,19.0,0.0,4.0,2.3,0.04,-1.0,-0.04,0.24,-0.87,0.23,161.0,,,0.0,1.0,0.0,100.0
2880,1,walk,walk,5479,,5479.0,20.0,2.0,6.0,2.0,1.66,-0.009,-0.028,1.06,33.0,28.14,0.0,19.0,0.0,4.0,2.31,0.04,-1.0,-0.04,0.23,-0.87,0.2,161.0,,,0.0,1.0,0.0,100.0
2900,1,walk,walk,5480,,5480.0,20.0,2.0,6.0,2.0,1.67,-0.009,0.053,1.065,33.0,28.14,0.0,19.0,0.0,4.0,2.32,0.04,-1.0,-0.04,0.23,-0.87,0.17,161.0,,,0.0,1.0,0.0,100.0
2940,1,walk,walk,5481,,5481.0,20.0,2.0,6.0,2.0,1.67,-0.009,-0.018,1.052,33.0,28.14,0.0,19.0,0.0,4.0,2.33,0.04,-1.0,-0.04,0.23,-0.86,0.15,161.0,,,0.0,1.0,0.0,100.0
2960,1,walk,walk,5482,,5482.0,20.0,2.0,6.0,2.0,1.68,-0.009,0.075,1.056,33.0,28.14,0.0,19.0,0.0,4.0,2.34,0.04,-1.0,-0.04,0.25,-0.86,0.14,161.0,,,0.0,1.0,0.0,100.0
2960,1,walk,walk,5483,,5483.0,20.0,2.0,6.0,2.0,1.69,-0.009,-0.023,1.038,33.0,28.14,0.0,19.0,0.0,4.0,2.35,0.04,-1.0,-0.04,0.26,-0.86,0.14,161.0,,,0.0,1.0,0.0,100.0
2980,1,walk,walk,5484,,5484.0,20.0,2.0,6.0,2.0,1.69,-0.009,-0.007,1.051,33.0,28.14,0.0,19.0,0.0,4.0,2.37,0.04,-1.0,-0.04,0.28,-0.86,0.15,161.0,,,0.0,1.0,0.0,100.0
3020,1,walk,walk,5485,,5485.0,20.0,2.0,6.0,2.0,1.7,-0.009,-0.032,1.063,33.0,28.14,0.0,19.0,0.0,4.0,2.38,0.04,-1.0,-0.04,0.3,-0.86,0.17,161.0,,,0.0,1.0,0.0,100.0
3040,1,walk,walk,5486,,5486.0,20.0,2.0,6.0,2.0,1.7,-0.009,-0.052,1.04,33.0,28.14,0.0,19.0,0.0,4.0,2.4,0.04,-1.0,-0.04,0.31,-0.88,0.2,161.0,,,0.0,1.0,0.0,100.0
3040,1,walk,walk,5487,,5487.0,20.0,2.0,6.0,2.0,1.71,-0.009,0.021,1.056,33.0,28.14,0.0,19.0,0.0,4.0,2.41,0.04,-1.0,-0.04,0.33,-0.9,0.23,161.0,,,0.0,1.0,0.0,100.0
3060,1,walk,walk,5488,,5488.0,20.0,2.0,6.0,2.0,1.72,-0.009,0.011,1.049,33.0,28.14,0.0,19.0,0.0,4.0,2.42,0.04,-1.0,-0.04,0.34,-0.93,0.28,161.0,,,0.0,1.0,0.0,100.0
3100,1,walk,walk,5489,,5489.0,20.0,2.0,6.0,2.0,1.73,-0.009,-0.025,1.061,33.0,28.14,0.0,19.0,0.0,4.0,2.44,0.04,-1.0,-0.04,0.35,-0.97,0.34,161.0,,,0.0,1.0,0.0,100.0
3120,1,walk,walk,5490,,5490.0,20.0,2.0,6.0,2.0,1.73,-0.009,-0.013,1.064,33.0,28.14,0.0,19.0,0.0,4.0,2.45,0.04,-1.0,-0.04,0.36,-1.02,0.39,161.0,,,0.0,1.0,0.0,100.0
3120,1,walk,walk,5491,,5491.0,20.0,2.0,6.0,2.0,1.74,-0.009,-0.058,1.047,33.0,28.14,0.0,19.0,0.0,4.0,2.45,0.04,-1.0,-0.04,0.37,-1.06,0.44,161.0,,,0.0,1.0,0.0,100.0
3160,1,walk,walk,5492,,5492.0,20.0,2.0,6.0,2.0,1.75,-0.009,-0.013,1.065,33.0,28.14,0.0,19.0,0.0,4.0,2.45,0.04,-1.0,-0.04,0.38,-1.09,0.48,161.0,,,0.0,1.0,0.0,100.0
3160,1,walk,walk,5493,,5493.0,20.0,2.0,6.0,2.0,1.76,-0.009,-0.07,1.046,33.0,28.14,0.0,19.0,0.0,4.0,2.45,0.04,-1.0,-0.04,0.39,-1.12,0.5,161.0,,,0.0,1.0,0.0,100.0
3180,1,walk,walk,5494,,5494.0,20.0,2.0,6.0,2.0,1.76,-0.009,0.019,1.053,33.0,28.14,0.0,19.0,0.0,4.0,2.44,0.04,-1.0,-0.04,0.39,-1.14,0.51,161.0,,,0.0,1.0,0.0,100.0
3200,1,walk,walk,5495,,5495.0,20.0,2.0,6.0,2.0,1.77,-0.009,0.046,1.044,33.0,28.14,0.0,19.0,0.0,4.0,2.44,0.04,-1.0,-0.04,0.4,-1.15,0.51,161.0,,,0.0,1.0,0.0,100.0
3220,1,walk,walk,5496,,5496.0,20.0,2.0,6.0,2.0,1.78,-0.009,0.007,1.06,33.0,28.14,0.0,19.0,0.0,4.0,2.43,0.04,-1.0,-0.04,0.4,-1.16,0.5,161.0,,,0.0,1.0,0.0,100.0
3240,1,walk,walk,5497,,5497.0,20.0,2.0,6.0,2.0,1.78,-0.009,0.044,1.038,33.0,28.14,0.0,19.0,0.0,4.0,2.42,0.04,-1.0,-0.04,0.39,-1.16,0.49,161.0,,,0.0,1.0,0.0,100.0
3280,1,walk,walk,5498,,5498.0,20.0,2.0,6.0,2.0,1.79,-0.009,0.025,1.058,33.0,28.14,0.0,19.0,0.0,4.0,2.42,0.04,-1.0,-0.04,0.39,-1.17,0.48,161.0,,,0.0,1.0,0.0,100.0
3280,1,walk,walk,5499,,5499.0,20.0,2.0,6.0,2.0,1.79,-0.009,-0.049,1.076,33.0,28.14,0.0,19.0,0.0,4.0,2.42,0.04,-1.0,-0.04,0.38,-1.17,0.47,161.0,,,0.0,1.0,0.0,100.0
3300,1,walk,walk,5500,,5500.0,20.0,2.0,6.0,2.0,1.8,-0.009,0.07,1.047,33.0,28.14,0.0,19.0,0.0,4.0,2.42,0.04,-1.0,-0.04,0.38,-1.17,0.48,161.0,,,0.0,1.0,0.0,100.0
3340,1,walk,walk,5501,,5501.0,20.0,2.0,6.0,2.0,1.8,-0.009,-0.036,1.061,33.0,28.14,0.0,19.0,0.0,4.0,2.42,0.04,-1.0,-0.04,0.37,-1.17,0.48,161.0,,,0.0,1.0,0.0,100.0
3340,1,walk,walk,5502,,5502.0,20.0,2.0,6.0,2.0,1.81,-0.009,0.041,1.081,33.0,28.14,0.0,19.0,0.0,4.0,2.42,0.04,-1.0,-0.04,0.36,-1.16,0.49,161.0,,,0.0,1.0,0.0,100.0
3380,1,walk,walk,5503,,5503.0,20.0,2.0,6.0,2.0,1.81,-0.009,0.021,1.046,33.0,28.14,0.0,19.0,0.0,4.0,2.42,0.04,-1.0,-0.04,0.35,-1.16,0.5,161.0,,,0.0,1.0,0.0,100.0
3400,1,walk,walk,5504,,5504.0,20.0,2.0,6.0,2.0,1.82,-0.009,0.042,1.053,33.0,28.14,0.0,19.0,0.0,4.0,2.42,0.04,-1.0,-0.04,0.34,-1.15,0.51,161.0,,,0.0,1.0,0.0,100.0
3420,1,walk,walk,5505,,5505.0,20.0,2.0,6.0,2.0,1.82,-0.009,0.052,1.071,33.0,28.14,0.0,19.0,0.0,4.0,2.42,0.04,-1.0,-0.04,0.33,-1.13,0.51,161.0,,,0.0,1.0,0.0,100.0
3440,1,walk,walk,5506,,5506.0,20.0,2.0,6.0,2.0,1.82,-0.009,0.009,1.043,33.0,28.11,0.0,19.0,0.0,4.0,2.42,0.04,-1.0,-0.04,0.33,-1.12,0.53,161.0,,,0.0,1.0,0.0,100.0
3460,1,walk,walk,5507,,5507.0,20.0,2.0,6.0,2.0,1.83,-0.009,-0.001,1.061,33.0,28.14,0.0,19.0,0.0,4.0,2.42,0.04,-1.0,-0.04,0.32,-1.11,0.54,161.0,,,0.0,1.0,0.0,100.0
3460,1,walk,walk,5508,,5508.0,20.0,2.0,6.0,2.0,1.83,-0.009,-0.065,1.061,33.0,28.14,0.0,19.0,0.0,4.0,2.43,0.04,-1.0,-0.04,0.31,-1.11,0.55,161.0,,,0.0,1.0,0.0,100.0
3500,1,walk,walk,5509,,5509.0,20.0,2.0,6.0,2.0,1.83,-0.009,-0.048,1.066,33.0,28.14,0.0,19.0,0.0,4.0,2.43,0.04,-1.0,-0.04,0.3,-1.12,0.57,161.0,,,0.0,1.0,0.0,100.0
3520,1,walk,walk,5510,,5510.0,20.0,2.0,6.0,2.0,1.83,-0.009,0.101,1.08,33.0,28.14,0.0,19.0,0.0,4.0,2.43,0.04,-1.0,-0.04,0.29,-1.13,0.6,161.0,,,0.0,1.0,0.0,100.0
3520,1,walk,walk,5511,,5511.0,20.0,2.0,6.0,2.0,1.84,-0.009,0.003,1.064,33.0,28.14,0.0,19.0,0.0,4.0,2.43,0.04,-1.0,-0.04,0.27,-1.14,0.62,161.0,,,0.0,1.0,0.0,100.0
3540,1,walk,walk,5512,,5512.0,20.0,2.0,6.0,2.0,1.84,-0.009,-0.014,1.073,33.0,28.14,0.0,19.0,0.0,4.0,2.43,0.04,-1.0,-0.04,0.27,-1.15,0.65,161.0,,,0.0,1.0,0.0,100.0
3600,1,walk,walk,5513,,5513.0,20.0,2.0,6.0,2.0,1.84,-0.009,-0.036,1.082,33.0,28.14,0.0,19.0,0.0,4.0,2.42,0.04,-1.0,-0.04,0.26,-1.16,0.67,161.0,,,0.0,1.0,0.0,100.0
3600,1,walk,walk,5514,,5514.0,20.0,2.0,6.0,2.0,1.84,-0.009,-0.029,1.072,33.0,28.14,0.0,19.0,0.0,4.0,2.41,0.04,-1.0,-0.04,0.26,-1.17,0.68,161.0,,,0.0,1.0,0.0,100.0
3600,1,walk,walk,5515,,5515.0,20.0,2.0,6.0,2.0,1.84,-0.009,0.009,1.063,33.0,28.14,0.0,19.0,0.0,4.0,2.41,0.04,-1.0,-0.04,0.26,-1.18,0.69,161.0,,,0.0,1.0,0.0,100.0
3620,1,walk,walk,5516,,5516.0,20.0,2.0,6.0,2.0,1.84,-0.009,-0.087,1.077,33.0,28.14,0.0,19.0,0.0,4.0,2.4,0.04,-1.0,-0.04,0.26,-1.18,0.68,161.0,,,0.0,1.0,0.0,100.0
3660,1,walk,walk,5517,,5517.0,20.0,2.0,6.0,2.0,1.84,-0.009,-0.045,1.071,33.0,28.14,0.0,19.0,0.0,4.0,2.4,0.04,-1.0,-0.04,0.26,-1.19,0.68,161.0,,,0.0,1.0,0.0,100.0
3660,1,walk,walk,5518,,5518.0,20.0,2.0,6.0,2.0,1.85,-0.009,-0.019,1.075,33.0,28.14,0.0,19.0,0.0,4.0,2.4,0.04,-1.0,-0.04,0.26,-1.2,0.67,161.0,,,0.0,1.0,0.0,100.0
3680,1,walk,walk,5519,,5519.0,20.0,2.0,6.0,2.0,1.85,-0.009,0.046,1.105,33.0,28.14,0.0,19.0,0.0,4.0,2.4,0.04,-1.0,-0.04,0.27,-1.21,0.68,161.0,,,0.0,1.0,0.0,100.0
3700,1,walk,walk,5520,,5520.0,20.0,2.0,6.0,2.0,1.85,-0.009,0.081,1.099,33.0,28.14,0.0,19.0,0.0,4.0,2.4,0.04,-1.0,-0.04,0.28,-1.22,0.69,161.0,,,0.0,1.0,0.0,100.0
3720,1,walk,walk,5521,,5521.0,20.0,2.0,6.0,2.0,1.84,-0.009,-0.005,1.111,33.0,28.14,0.0,19.0,0.0,4.0,2.4,0.04,-1.0,-0.04,0.29,-1.24,0.71,161.0,,,0.0,1.0,0.0,100.0
3760,1,walk,walk,5522,,5522.0,20.0,2.0,6.0,2.0,1.84,-0.009,0.05,1.103,33.0,28.11,0.0,19.0,0.0,4.0,2.4,0.04,-1.0,-0.04,0.3,-1.26,0.74,161.0,,,0.0,1.0,0.0,100.0
3760,1,walk,walk,5523,,5523.0,20.0,2.0,6.0,2.0,1.84,-0.01,0.015,1.105,33.0,28.14,0.0,19.0,0.0,4.0,2.41,0.04,-1.0,-0.04,0.3,-1.27,0.77,161.0,,,0.0,1.0,0.0,100.0
3780,1,walk,walk,5524,,5524.0,20.0,2.0,6.0,2.0,1.84,-0.009,-0.033,1.099,33.0,28.14,0.0,19.0,0.0,4.0,2.4,0.04,-1.0,-0.04,0.3,-1.29,0.8,161.0,,,0.0,1.0,0.0,100.0
3800,1,walk,walk,5525,,5525.0,20.0,2.0,6.0,2.0,1.84,-0.01,-0.022,1.14,33.0,28.14,0.0,19.0,0.0,4.0,2.4,0.04,-1.0,-0.04,0.29,-1.3,0.84,161.0,,,0.0,1.0,0.0,100.0
3820,1,walk,walk,5526,,5526.0,20.0,2.0,6.0,2.0,1.84,-0.01,0.046,1.132,33.0,28.14,0.0,19.0,0.0,4.0,2.4,0.04,-1.0,-0.04,0.28,-1.32,0.87,161.0,,,0.0,1.0,0.0,100.0
3840,1,walk,walk,5527,,5527.0,20.0,2.0,6.0,2.0,1.84,-0.01,0.009,1.141,33.0,28.14,0.0,19.0,0.0,4.0,2.4,0.04,-1.0,-0.04,0.26,-1.34,0.91,161.0,,,0.0,1.0,0.0,100.0
3860,1,walk,walk,5528,,5528.0,20.0,2.0,6.0,2.0,1.83,-0.01,0.03,1.151,33.0,28.14,0.0,19.0,0.0,4.0,2.39,0.04,-1.0,-0.04,0.23,-1.35,0.94,161.0,,,0.0,1.0,0.0,100.0
3900,1,walk,walk,5529,,5529.0,20.0,2.0,6.0,2.0,1.83,-0.01,0.036,1.131,33.0,28.14,0.0,19.0,0.0,4.0,2.38,0.04,-1.0,-0.04,0.19,-1.35,0.97,161.0,,,0.0,1.0,0.0,100.0
3920,1,walk,walk,5530,,5530.0,20.0,2.0,6.0,2.0,1.83,-0.01,0.037,1.139,33.0,28.14,0.0,19.0,0.0,4.0,2.38,0.04,-1.0,-0.04,0.15,-1.34,0.99,161.0,,,0.0,1.0,0.0,100.0
3920,1,walk,walk,5531,,5531.0,20.0,2.0,6.0,2.0,1.83,-0.01,0.005,1.163,33.0,28.14,0.0,19.0,0.0,4.0,2.37,0.04,-1.0,-0.04,0.11,-1.33,1.0,161.0,,,0.0,1.0,0.0,100.0
3940,1,walk,walk,5532,,5532.0,20.0,2.0,6.0,2.0,1.82,-0.01,-0.003,1.123,33.0,28.14,0.0,19.0,0.0,4.0,2.35,0.04,-1.0,-0.04,0.06,-1.31,1.01,161.0,,,0.0,1.0,0.0,100.0
3960,1,walk,walk,5533,,5533.0,20.0,2.0,6.0,2.0,1.82,-0.01,-0.003,1.12,33.0,28.14,0.0,19.0,0.0,4.0,2.34,0.04,-1.0,-0.04,0.02,-1.28,1.0,161.0,,,0.0,1.0,0.0,100.0
3980,1,walk,walk,5534,,5534.0,20.0,2.0,6.0,2.0,1.81,-0.01,-0.04,1.151,33.0,28.14,0.0,19.0,0.0,4.0,2.33,0.04,-1.0,-0.04,-0.02,-1.24,0.98,161.0,,,0.0,1.0,0.0,100.0
4000,1,walk,walk,5535,,5535.0,20.0,2.0,6.0,2.0,1.81,-0.01,0.041,1.145,33.0,28.14,0.0,19.0,0.0,4.0,2.32,0.04,-1.0,-0.04,-0.06,-1.21,0.95,161.0,,,0.0,1.0,0.0,100.0
4020,1,walk,walk,5536,,5536.0,20.0,2.0,6.0,2.0,1.8,-0.01,0.073,1.15,33.0,28.14,0.0,19.0,0.0,4.0,2.32,0.04,-1.0,-0.04,-0.09,-1.17,0.93,161.0,,,0.0,1.0,0.0,100.0
4080,1,walk,walk,5537,,5537.0,20.0,2.0,6.0,2.0,1.8,-0.01,0.038,1.146,33.0,28.14,0.0,19.0,0.0,4.0,2.31,0.04,-1.0,-0.04,-0.11,-1.15,0.9,161.0,,,0.0,1.0,0.0,100.0
4080,1,walk,walk,5538,,5538.0,20.0,2.0,6.0,2.0,1.79,-0.01,-0.119,1.153,33.0,28.14,0.0,19.0,0.0,4.0,2.3,0.04,-1.0,-0.04,-0.12,-1.13,0.87,161.0,,,0.0,1.0,0.0,100.0
4080,1,walk,walk,5539,,5539.0,20.0,2.0,6.0,2.0,1.79,-0.01,0.077,1.135,33.0,28.14,0.0,19.0,0.0,4.0,2.3,0.04,-1.0,-0.04,-0.13,-1.11,0.83,161.0,,,0.0,1.0,0.0,100.0
4100,1,walk,walk,5540,,5540.0,20.0,2.0,6.0,2.0,1.78,-0.01,0.011,1.119,33.0,28.14,0.0,19.0,0.0,4.0,2.3,0.04,-1.0,-0.04,-0.13,-1.1,0.8,161.0,,,0.0,1.0,0.0,100.0
4120,1,walk,walk,5541,,5541.0,20.0,2.0,6.0,2.0,1.77,-0.01,0.007,1.141,33.0,28.14,0.0,19.0,0.0,4.0,2.29,0.04,-1.0,-0.04,-0.12,-1.09,0.77,161.0,,,0.0,1.0,0.0,100.0
4140,1,walk,walk,5542,,5542.0,20.0,2.0,6.0,2.0,1.77,-0.01,-0.025,1.131,33.0,28.14,0.0,19.0,0.0,4.0,2.29,0.04,-1.0,-0.04,-0.1,-1.08,0.74,161.0,,,0.0,1.0,0.0,100.0
4160,1,walk,walk,5543,,5543.0,20.0,2.0,6.0,2.0,1.76,-0.01,0.037,1.132,33.0,28.14,0.0,19.0,0.0,4.0,2.29,0.04,-1.0,-0.04,-0.08,-1.08,0.71,161.0,,,0.0,1.0,0.0,100.0
4180,1,walk,walk,5544,,5544.0,20.0,2.0,6.0,2.0,1.76,-0.01,-0.021,1.153,33.0,28.14,0.0,19.0,0.0,4.0,2.3,0.04,-1.0,-0.04,-0.06,-1.08,0.69,161.0,,,0.0,1.0,0.0,100.0
4200,1,walk,walk,5545,,5545.0,20.0,2.0,6.0,2.0,1.75,-0.01,-0.054,1.128,33.0,28.11,0.0,19.0,0.0,4.0,2.3,0.04,-1.0,-0.04,-0.03,-1.08,0.69,161.0,,,0.0,1.0,0.0,100.0
4240,1,walk,walk,5546,,5546.0,20.0,2.0,6.0,2.0,1.75,-0.01,0.011,1.155,33.0,28.11,0.0,19.0,0.0,4.0,2.31,0.04,-1.0,-0.04,0.01,-1.08,0.69,161.0,,,0.0,1.0,0.0,100.0
4240,1,walk,walk,5547,,5547.0,20.0,2.0,6.0,2.0,1.74,-0.01,-0.036,1.147,33.0,28.14,0.0,19.0,0.0,4.0,2.31,0.04,-1.0,-0.04,0.04,-1.08,0.71,161.0,,,0.0,1.0,0.0,100.0
4260,1,walk,walk,5548,,5548.0,20.0,2.0,6.0,2.0,1.74,-0.01,0.058,1.147,33.0,28.14,0.0,19.0,0.0,4.0,2.31,0.04,-1.0,-0.04,0.08,-1.08,0.72,161.0,,,0.0,1.0,0.0,100.0
4300,1,walk,walk,5549,,5549.0,20.0,2.0,6.0,2.0,1.73,-0.01,-0.028,1.155,33.0,28.14,0.0,19.0,0.0,4.0,2.3,0.04,-1.0,-0.05,0.12,-1.08,0.74,161.0,,,0.0,1.0,0.0,100.0
4300,1,walk,walk,5550,,5550.0,20.0,2.0,6.0,2.0,1.73,-0.01,0.033,1.141,33.0,28.14,0.0,19.0,0.0,4.0,2.3,0.04,-1.0,-0.05,0.16,-1.08,0.76,161.0,,,0.0,1.0,0.0,100.0
4320,1,walk,walk,5551,,5551.0,20.0,2.0,6.0,2.0,1.72,-0.01,0.034,1.185,33.0,28.14,0.0,19.0,0.0,4.0,2.29,0.04,-1.0,-0.05,0.21,-1.09,0.78,161.0,,,0.0,1.0,0.0,100.0
4360,1,walk,walk,5552,,5552.0,20.0,2.0,6.0,2.0,1.72,-0.01,0.029,1.156,33.0,28.14,0.0,19.0,0.0,4.0,2.29,0.04,-1.0,-0.05,0.25,-1.09,0.79,161.0,,,0.0,1.0,0.0,100.0
4380,1,walk,walk,5553,,5553.0,20.0,2.0,6.0,2.0,1.72,-0.01,-0.034,1.156,33.0,28.11,0.0,19.0,0.0,4.0,2.28,0.04,-1.0,-0.05,0.29,-1.1,0.79,161.0,,,0.0,1.0,0.0,100.0
4400,1,walk,walk,5554,,5554.0,20.0,2.0,6.0,2.0,1.71,-0.01,-0.057,1.162,33.0,28.11,0.0,19.0,0.0,4.0,2.28,0.04,-1.0,-0.05,0.33,-1.11,0.8,161.0,,,0.0,1.0,0.0,100.0
4420,1,walk,walk,5555,,5555.0,20.0,2.0,6.0,2.0,1.71,-0.01,0.042,1.163,33.0,28.14,0.0,19.0,0.0,4.0,2.27,0.04,-1.0,-0.05,0.36,-1.13,0.8,161.0,,,0.0,1.0,0.0,100.0
4440,1,walk,walk,5556,,5556.0,20.0,2.0,6.0,2.0,1.71,-0.01,-0.056,1.18,33.0,28.11,0.0,19.0,0.0,4.0,2.26,0.04,-1.0,-0.05,0.39,-1.14,0.8,161.0,,,0.0,1.0,0.0,100.0
4440,1,walk,walk,5557,,5557.0,20.0,2.0,6.0,2.0,1.7,-0.01,-0.006,1.18,33.0,28.11,0.0,19.0,0.0,4.0,2.26,0.04,-1.0,-0.05,0.4,-1.15,0.79,161.0,,,0.0,1.0,0.0,100.0
4460,1,walk,walk,5558,,5558.0,20.0,2.0,6.0,2.0,1.7,-0.01,-0.081,1.178,33.0,28.14,0.0,19.0,0.0,4.0,2.25,0.04,-1.0,-0.05,0.41,-1.17,0.79,161.0,,,0.0,1.0,0.0,100.0
4500,1,walk,walk,5559,,5559.0,20.0,2.0,6.0,2.0,1.7,-0.01,-0.042,1.185,33.0,28.14,0.0,19.0,0.0,4.0,2.24,0.04,-1.0,-0.05,0.42,-1.17,0.77,161.0,,,0.0,1.0,0.0,100.0
4500,1,walk,walk,5560,,5560.0,20.0,2.0,6.0,2.0,1.69,-0.01,0.018,1.182,33.0,28.14,0.0,19.0,0.0,4.0,2.24,0.04,-1.0,-0.05,0.42,-1.17,0.75,161.0,,,0.0,1.0,0.0,100.0
4520,1,walk,walk,5561,,5561.0,20.0,2.0,6.0,2.0,1.69,-0.01,0.011,1.179,33.0,28.14,0.0,19.0,0.0,4.0,2.23,0.04,-1.0,-0.05,0.42,-1.17,0.73,161.0,,,0.0,1.0,0.0,100.0
4560,1,walk,walk,5562,,5562.0,20.0,2.0,6.0,2.0,1.69,-0.01,0.023,1.163,33.0,28.14,0.0,19.0,0.0,4.0,2.23,0.04,-1.0,-0.04,0.42,-1.16,0.71,161.0,,,0.0,1.0,0.0,100.0
4580,1,walk,walk,5563,,5563.0,20.0,2.0,6.0,2.0,1.68,-0.01,-0.036,1.189,33.0,28.11,0.0,19.0,0.0,4.0,2.22,0.04,-1.0,-0.04,0.42,-1.14,0.69,161.0,,,0.0,1.0,0.0,100.0
4620,1,walk,walk,5564,,5564.0,20.0,2.0,6.0,2.0,1.68,-0.01,-0.042,1.182,33.0,28.14,0.0,19.0,0.0,4.0,2.22,0.04,-1.0,-0.04,0.42,-1.13,0.67,161.0,,,0.0,1.0,0.0,100.0
4640,1,walk,walk,5565,,5565.0,20.0,2.0,6.0,2.0,1.68,-0.01,-0.005,1.19,33.0,28.11,0.0,19.0,0.0,4.0,2.22,0.04,-1.0,-0.04,0.42,-1.11,0.66,161.0,,,0.0,1.0,0.0,100.0
4660,1,walk,walk,5566,,5566.0,20.0,2.0,6.0,2.0,1.67,-0.01,0.011,1.17,33.0,28.11,0.0,19.0,0.0,4.0,2.21,0.04,-1.0,-0.04,0.41,-1.08,0.65,161.0,,,0.0,1.0,0.0,100.0
4660,1,walk,walk,5567,,5567.0,20.0,2.0,6.0,2.0,1.67,-0.01,0.03,1.177,33.0,28.14,0.0,19.0,0.0,4.0,2.21,0.04,-1.0,-0.04,0.4,-1.06,0.65,161.0,,,0.0,1.0,0.0,100.0
4660,1,walk,walk,5568,,5568.0,20.0,2.0,6.0,2.0,1.67,-0.01,0.017,1.165,33.0,28.14,0.0,19.0,0.0,4.0,2.2,0.04,-1.0,-0.04,0.39,-1.04,0.64,161.0,,,0.0,1.0,0.0,100.0
4680,1,walk,walk,5569,,5569.0,20.0,2.0,6.0,2.0,1.66,-0.01,-0.029,1.145,33.0,28.11,0.0,19.0,0.0,4.0,2.2,0.04,-1.0,-0.04,0.37,-1.02,0.63,161.0,,,0.0,1.0,0.0,100.0
4740,1,walk,walk,5570,,5570.0,20.0,2.0,6.0,2.0,1.66,-0.01,-0.04,1.191,33.0,28.14,0.0,19.0,0.0,4.0,2.19,0.04,-1.0,-0.04,0.36,-0.99,0.62,161.0,,,0.0,1.0,0.0,100.0
4740,1,walk,walk,5571,,5571.0,20.0,2.0,6.0,2.0,1.66,-0.01,0.057,1.168,33.0,28.14,0.0,19.0,0.0,4.0,2.19,0.04,-1.0,-0.04,0.34,-0.98,0.61,161.0,,,0.0,1.0,0.0,100.0
4740,1,walk,walk,5572,,5572.0,20.0,2.0,6.0,2.0,1.66,-0.01,-0.06,1.184,33.0,28.11,0.0,19.0,0.0,4.0,2.19,0.04,-1.0,-0.04,0.33,-0.96,0.6,161.0,,,0.0,1.0,0.0,100.0
4780,1,walk,walk,5573,,5573.0,20.0,2.0,6.0,2.0,1.65,-0.01,0.048,1.166,33.0,28.14,0.0,19.0,0.0,4.0,2.19,0.04,-1.0,-0.04,0.32,-0.95,0.6,161.0,,,0.0,1.0,0.0,100.0
4780,1,walk,walk,5574,,5574.0,20.0,2.0,6.0,2.0,1.65,-0.01,-0.089,1.158,33.0,28.14,0.0,19.0,0.0,4.0,2.19,0.04,-1.0,-0.04,0.31,-0.93,0.6,161.0,,,0.0,1.0,0.0,100.0
4800,1,walk,walk,5575,,5575.0,20.0,2.0,6.0,2.0,1.65,-0.01,0.045,1.154,33.0,28.11,0.0,19.0,0.0,4.0,2.19,0.04,-1.0,-0.04,0.31,-0.92,0.6,161.0,,,0.0,1.0,0.0,100.0
4820,1,walk,walk,5576,,5576.0,20.0,2.0,6.0,2.0,1.65,-0.01,0.062,1.171,33.0,28.11,0.0,19.0,0.0,4.0,2.19,0.04,-1.0,-0.04,0.3,-0.91,0.61,161.0,,,0.0,1.0,0.0,100.0
4840,1,walk,walk,5577,,5577.0,20.0,2.0,6.0,2.0,1.65,-0.01,-0.009,1.164,33.0,28.14,0.0,19.0,0.0,4.0,2.19,0.04,-1.0,-0.04,0.29,-0.9,0.61,161.0,,,0.0,1.0,0.0,100.0
4860,1,walk,walk,5578,,5578.0,20.0,2.0,6.0,2.0,1.65,-0.01,-0.104,1.148,33.0,28.11,0.0,19.0,0.0,4.0,2.19,0.04,-1.0,-0.04,0.28,-0.9,0.62,161.0,,,0.0,1.0,0.0,100.0
4900,1,walk,walk,5579,,5579.0,20.0,2.0,6.0,2.0,1.64,-0.01,-0.01,1.151,33.0,28.14,0.0,19.0,0.0,4.0,2.19,0.04,-1.0,-0.04,0.27,-0.89,0.62,161.0,,,0.0,1.0,0.0,100.0
4900,1,walk,walk,5580,,5580.0,20.0,2.0,6.0,2.0,1.64,-0.01,-0.083,1.162,33.0,28.14,0.0,19.0,0.0,4.0,2.19,0.04,-1.0,-0.04,0.26,-0.88,0.61,161.0,,,0.0,1.0,0.0,100.0
4920,1,walk,walk,5581,,5581.0,20.0,2.0,6.0,2.0,1.64,-0.01,0.003,1.168,33.0,28.14,0.0,19.0,0.0,4.0,2.19,0.04,-1.0,-0.04,0.25,-0.88,0.59,161.0,,,0.0,1.0,0.0,100.0
4940,1,walk,walk,5582,,5582.0,20.0,2.0,6.0,2.0,1.64,-0.01,0.015,1.165,33.0,28.14,0.0,19.0,0.0,4.0,2.19,0.04,-1.0,-0.04,0.24,-0.88,0.57,161.0,,,0.0,1.0,0.0,100.0
4960,1,walk,walk,5583,,5583.0,20.0,2.0,6.0,2.0,1.64,-0.01,0.048,1.137,33.0,28.14,0.0,19.0,0.0,4.0,2.19,0.04,-1.0,-0.04,0.23,-0.88,0.55,161.0,,,0.0,1.0,0.0,100.0
5000,1,walk,walk,5584,,5584.0,20.0,2.0,6.0,2.0,1.64,-0.01,-0.009,1.138,33.0,28.14,0.0,19.0,0.0,4.0,2.19,0.04,-1.0,-0.04,0.22,-0.88,0.52,161.0,,,0.0,1.0,0.0,100.0
5020,1,walk,walk,5585,,5585.0,20.0,2.0,6.0,2.0,1.64,-0.01,-0.015,1.154,33.0,28.14,0.0,19.0,0.0,4.0,2.19,0.04,-1.0,-0.04,0.23,-0.89,0.49,161.0,,,0.0,1.0,0.0,100.0
5040,1,walk,walk,5586,,5586.0,20.0,2.0,6.0,2.0,1.64,-0.01,0.011,1.143,33.0,28.14,0.0,19.0,0.0,4.0,2.19,0.04,-1.0,-0.04,0.24,-0.9,0.47,161.0,,,0.0,1.0,0.0,100.0
5060,1,walk,walk,5587,,5587.0,20.0,2.0,6.0,2.0,1.64,-0.01,-0.006,1.144,33.0,28.14,0.0,19.0,0.0,4.0,2.19,0.04,-1.0,-0.04,0.25,-0.91,0.45,161.0,,,0.0,1.0,0.0,100.0
5060,1,walk,walk,5588,,5588.0,20.0,2.0,6.0,2.0,1.64,-0.01,0.002,1.151,33.0,28.14,0.0,19.0,0.0,4.0,2.19,0.04,-1.0,-0.04,0.27,-0.93,0.43,161.0,,,0.0,1.0,0.0,100.0
5100,1,walk,walk,5589,,5589.0,20.0,2.0,6.0,2.0,1.64,-0.01,0.021,1.14,33.0,28.14,0.0,19.0,0.0,4.0,2.19,0.04,-1.0,-0.04,0.29,-0.95,0.42,161.0,,,0.0,1.0,0.0,100.0
5100,1,walk,walk,5590,,5590.0,20.0,2.0,6.0,2.0,1.64,-0.01,-0.034,1.159,33.0,28.14,0.0,19.0,0.0,4.0,2.2,0.04,-1.0,-0.04,0.31,-0.96,0.41,161.0,,,0.0,1.0,0.0,100.0
5120,1,walk,walk,5591,,5591.0,20.0,2.0,6.0,2.0,1.64,-0.01,-0.023,1.139,33.0,28.14,0.0,19.0,0.0,4.0,2.2,0.04,-1.0,-0.04,0.32,-0.98,0.41,161.0,,,0.0,1.0,0.0,100.0
5140,1,walk,walk,5592,,5592.0,20.0,2.0,6.0,2.0,1.64,-0.01,0.04,1.172,33.0,28.14,0.0,19.0,0.0,4.0,2.21,0.04,-1.0,-0.04,0.34,-0.99,0.42,161.0,,,0.0,1.0,0.0,100.0
5160,1,walk,walk,5593,,5593.0,20.0,2.0,6.0,2.0,1.64,-0.01,0.079,1.139,33.0,28.14,0.0,19.0,0.0,4.0,2.21,0.04,-1.0,-0.04,0.35,-1.0,0.43,161.0,,,0.0,1.0,0.0,100.0
5220,1,walk,walk,5594,,5594.0,20.0,2.0,6.0,2.0,1.64,-0.01,-0.042,1.152,33.0,28.14,0.0,19.0,0.0,4.0,2.22,0.04,-1.0,-0.04,0.35,-1.01,0.45,161.0,,,0.0,1.0,0.0,100.0
5220,1,walk,walk,5595,,5595.0,20.0,2.0,6.0,2.0,1.64,-0.01,0.038,1.15,33.0,28.14,0.0,19.0,0.0,4.0,2.22,0.04,-1.0,-0.04,0.36,-1.01,0.46,161.0,,,0.0,1.0,0.0,100.0
5220,1,walk,walk,5596,,5596.0,20.0,2.0,6.0,2.0,1.64,-0.01,0.093,1.134,33.0,28.14,0.0,19.0,0.0,4.0,2.22,0.04,-1.0,-0.04,0.36,-1.02,0.47,161.0,,,0.0,1.0,0.0,100.0
5260,1,walk,walk,5597,,5597.0,20.0,2.0,6.0,2.0,1.64,-0.01,-0.075,1.16,33.0,28.11,0.0,19.0,0.0,4.0,2.22,0.04,-1.0,-0.04,0.35,-1.02,0.47,161.0,,,0.0,1.0,0.0,100.0
5260,1,walk,walk,5598,,5598.0,20.0,2.0,6.0,2.0,1.64,-0.01,-0.023,1.134,33.0,28.11,0.0,19.0,0.0,4.0,2.23,0.04,-1.0,-0.04,0.34,-1.02,0.46,161.0,,,0.0,1.0,0.0,100.0
5280,1,walk,walk,5599,,5599.0,20.0,2.0,6.0,2.0,1.65,-0.01,-0.032,1.15,33.0,28.14,0.0,19.0,0.0,4.0,2.23,0.04,-1.0,-0.04,0.33,-1.03,0.45,161.0,,,0.0,1.0,0.0,100.0
5300,1,walk,walk,5600,,5600.0,20.0,2.0,6.0,2.0,1.65,-0.01,-0.023,1.136,33.0,28.14,0.0,19.0,0.0,4.0,2.24,0.04,-1.0,-0.04,0.31,-1.04,0.45,161.0,,,0.0,1.0,0.0,100.0
5320,1,walk,walk,5601,,5601.0,20.0,2.0,6.0,2.0,1.65,-0.01,-0.023,1.143,33.0,28.14,0.0,19.0,0.0,4.0,2.25,0.04,-1.0,-0.04,0.28,-1.05,0.46,161.0,,,0.0,1.0,0.0,100.0
5340,1,walk,walk,5602,,5602.0,20.0,2.0,6.0,2.0,1.65,-0.01,-0.032,1.151,33.0,28.11,0.0,19.0,0.0,4.0,2.27,0.04,-1.0,-0.04,0.25,-1.08,0.49,161.0,,,0.0,1.0,0.0,100.0
5380,1,walk,walk,5603,,5603.0,20.0,2.0,6.0,2.0,1.65,-0.01,0.021,1.152,33.0,28.11,0.0,19.0,0.0,4.0,2.28,0.04,-1.0,-0.04,0.21,-1.1,0.53,161.0,,,0.0,1.0,0.0,100.0
5380,1,walk,walk,5604,,5604.0,20.0,2.0,6.0,2.0,1.66,-0.01,-0.079,1.153,33.0,28.14,0.0,19.0,0.0,4.0,2.29,0.04,-1.0,-0.04,0.18,-1.14,0.58,161.0,,,0.0,1.0,0.0,100.0
5400,1,walk,walk,5605,,5605.0,20.0,2.0,6.0,2.0,1.66,-0.01,-0.022,1.147,33.0,28.14,0.0,19.0,0.0,4.0,2.29,0.04,-1.0,-0.04,0.14,-1.17,0.63,161.0,,,0.0,1.0,0.0,100.0
5420,1,walk,walk,5606,,5606.0,20.0,2.0,6.0,2.0,1.66,-0.01,0.037,1.171,33.0,28.14,0.0,19.0,0.0,4.0,2.3,0.04,-1.0,-0.04,0.11,-1.21,0.68,161.0,,,0.0,1.0,0.0,100.0
5440,1,walk,walk,5607,,5607.0,20.0,2.0,6.0,2.0,1.66,-0.01,0.023,1.157,33.0,28.11,0.0,19.0,0.0,4.0,2.3,0.04,-1.0,-0.04,0.09,-1.24,0.73,161.0,,,0.0,1.0,0.0,100.0
5460,1,walk,walk,5608,,5608.0,20.0,2.0,6.0,2.0,1.66,-0.01,-0.05,1.128,33.0,28.14,0.0,19.0,0.0,4.0,2.29,0.04,-1.0,-0.04,0.08,-1.26,0.76,161.0,,,0.0,1.0,0.0,100.0
5500,1,walk,walk,5609,,5609.0,20.0,2.0,6.0,2.0,1.67,-0.01,-0.017,1.149,33.0,28.14,0.0,19.0,0.0,4.0,2.29,0.04,-1.0,-0.04,0.07,-1.26,0.78,161.0,,,0.0,1.0,0.0,100.0
5520,1,walk,walk,5610,,5610.0,20.0,2.0,6.0,2.0,1.67,-0.01,-0.042,1.184,33.0,28.11,0.0,19.0,0.0,4.0,2.28,0.04,-1.0,-0.04,0.07,-1.26,0.79,161.0,,,0.0,1.0,0.0,100.0
5540,1,walk,walk,5611,,5611.0,20.0,2.0,6.0,2.0,1.67,-0.01,-0.009,1.16,33.0,28.14,0.0,19.0,0.0,4.0,2.27,0.04,-1.0,-0.04,0.07,-1.25,0.79,161.0,,,0.0,1.0,0.0,100.0
5560,1,walk,walk,5612,,5612.0,20.0,2.0,6.0,2.0,1.67,-0.01,0.066,1.17,33.0,28.14,0.0,19.0,0.0,4.0,2.26,0.04,-1.0,-0.04,0.08,-1.24,0.79,161.0,,,0.0,1.0,0.0,100.0
5580,1,walk,walk,5613,,5613.0,20.0,2.0,6.0,2.0,1.67,-0.01,-0.048,1.17,33.0,28.14,0.0,19.0,0.0,4.0,2.26,0.04,-1.0,-0.04,0.09,-1.24,0.8,161.0,,,0.0,1.0,0.0,100.0
5580,1,walk,walk,5614,,5614.0,20.0,2.0,6.0,2.0,1.67,-0.01,-0.038,1.178,33.0,28.14,0.0,19.0,0.0,4.0,2.26,0.04,-1.0,-0.04,0.1,-1.24,0.81,161.0,,,0.0,1.0,0.0,100.0
5600,1,walk,walk,5615,,5615.0,20.0,2.0,6.0,2.0,1.67,-0.01,-0.023,1.165,33.0,28.11,0.0,19.0,0.0,4.0,2.26,0.04,-1.0,-0.04,0.12,-1.24,0.82,161.0,,,0.0,1.0,0.0,100.0
5620,1,walk,walk,5616,,5616.0,20.0,2.0,6.0,2.0,1.67,-0.01,0.041,1.169,33.0,28.11,0.0,19.0,0.0,4.0,2.25,0.04,-1.0,-0.04,0.13,-1.24,0.84,161.0,,,0.0,1.0,0.0,100.0
5640,1,walk,walk,5617,,5617.0,20.0,2.0,6.0,2.0,1.67,-0.01,0.007,1.192,33.0,28.14,0.0,19.0,0.0,4.0,2.24,0.04,-1.0,-0.04,0.14,-1.24,0.85,161.0,,,0.0,1.0,0.0,100.0
5660,1,walk,walk,5618,,5618.0,20.0,2.0,6.0,2.0,1.67,-0.01,-0.032,1.191,33.0,28.11,0.0,19.0,0.0,4.0,2.23,0.04,-1.0,-0.04,0.15,-1.24,0.86,161.0,,,0.0,1.0,0.0,100.0
5700,1,walk,walk,5619,,5619.0,20.0,2.0,6.0,2.0,1.66,-0.01,-0.015,1.161,33.0,28.11,0.0,19.0,0.0,4.0,2.22,0.04,-1.0,-0.04,0.16,-1.23,0.85,161.0,,,0.0,1.0,0.0,100.0
5720,1,walk,walk,5620,,5620.0,20.0,2.0,6.0,2.0,1.66,-0.01,-0.077,1.167,33.0,28.14,0.0,19.0,0.0,4.0,2.2,0.04,-1.0,-0.04,0.17,-1.22,0.85,161.0,,,0.0,1.0,0.0,100.0
5740,1,walk,walk,5621,,5621.0,20.0,2.0,6.0,2.0,1.66,-0.01,-0.06,1.189,33.0,28.14,0.0,19.0,0.0,4.0,2.19,0.04,-1.0,-0.04,0.19,-1.21,0.83,161.0,,,0.0,1.0,0.0,100.0
5740,1,walk,walk,5622,,5622.0,20.0,2.0,6.0,2.0,1.66,-0.01,0.009,1.178,33.0,28.14,0.0,19.0,0.0,4.0,2.18,0.04,-1.0,-0.04,0.2,-1.19,0.8,161.0,,,0.0,1.0,0.0,100.0
5780,1,walk,walk,5623,,5623.0,20.0,2.0,6.0,2.0,1.65,-0.01,0.033,1.189,33.0,28.14,0.0,19.0,0.0,4.0,2.17,0.04,-1.0,-0.04,0.21,-1.17,0.77,161.0,,,0.0,1.0,0.0,100.0
5800,1,walk,walk,5624,,5624.0,20.0,2.0,6.0,2.0,1.65,-0.01,-0.089,1.178,33.0,28.11,0.0,19.0,0.0,4.0,2.16,0.04,-1.0,-0.04,0.21,-1.14,0.74,161.0,,,0.0,1.0,0.0,100.0
5800,1,walk,walk,5625,,5625.0,20.0,2.0,6.0,2.0,1.65,-0.01,0.054,1.157,33.0,28.11,0.0,19.0,0.0,4.0,2.15,0.04,-1.0,-0.04,0.22,-1.12,0.7,161.0,,,0.0,1.0,0.0,100.0
5820,1,walk,walk,5626,,5626.0,20.0,2.0,6.0,2.0,1.64,-0.01,-0.01,1.169,33.0,28.14,0.0,19.0,0.0,4.0,2.15,0.04,-1.0,-0.04,0.22,-1.08,0.66,161.0,,,0.0,1.0,0.0,100.0
5880,1,walk,walk,5627,,5627.0,20.0,2.0,6.0,2.0,1.64,-0.01,0.079,1.172,33.0,28.14,0.0,19.0,0.0,4.0,2.15,0.04,-1.0,-0.04,0.23,-1.05,0.62,161.0,,,0.0,1.0,0.0,100.0
5880,1,walk,walk,5628,,5628.0,20.0,2.0,6.0,2.0,1.64,-0.01,0.04,1.193,33.0,28.11,0.0,19.0,0.0,4.0,2.15,0.04,-1.0,-0.04,0.23,-1.01,0.59,161.0,,,0.0,1.0,0.0,100.0
5900,1,walk,walk,5629,,5629.0,20.0,2.0,6.0,2.0,1.63,-0.01,-0.091,1.151,33.0,28.14,0.0,19.0,0.0,4.0,2.16,0.04,-1.0,-0.04,0.24,-0.97,0.56,161.0,,,0.0,1.0,0.0,100.0
5920,1,walk,walk,5630,,5630.0,20.0,2.0,6.0,2.0,1.63,-0.01,0.05,1.169,33.0,28.14,0.0,19.0,0.0,4.0,2.16,0.04,-1.0,-0.04,0.24,-0.94,0.53,161.0,,,0.0,1.0,0.0,100.0
5940,1,walk,walk,5631,,5631.0,20.0,2.0,6.0,2.0,1.62,-0.01,0.085,1.16,33.0,28.11,0.0,19.0,0.0,4.0,2.16,0.04,-1.0,-0.04,0.25,-0.91,0.51,161.0,,,0.0,1.0,0.0,100.0
5960,1,walk,walk,5632,,5632.0,20.0,2.0,6.0,2.0,1.62,-0.01,0.029,1.169,33.0,28.14,0.0,19.0,0.0,4.0,2.17,0.04,-1.0,-0.04,0.25,-0.88,0.49,161.0,,,0.0,1.0,0.0,100.0
5980,1,walk,walk,5633,,5633.0,20.0,2.0,6.0,2.0,1.62,-0.01,0.014,1.164,33.0,28.14,0.0,19.0,0.0,4.0,2.17,0.04,-1.0,-0.04,0.26,-0.87,0.48,161.0,,,0.0,1.0,0.0,100.0
6000,1,walk,walk,5634,,5634.0,20.0,2.0,6.0,2.0,1.62,-0.01,-0.041,1.185,33.0,28.11,0.0,19.0,0.0,4.0,2.18,0.04,-1.0,-0.04,0.26,-0.86,0.48,161.0,,,0.0,1.0,0.0,100.0
6020,1,walk,walk,5635,,5635.0,20.0,2.0,6.0,2.0,1.61,-0.01,-0.006,1.176,33.0,28.14,0.0,19.0,0.0,4.0,2.18,0.04,-1.0,-0.04,0.27,-0.86,0.48,161.0,,,0.0,1.0,0.0,100.0
6020,1,walk,walk,5636,,5636.0,20.0,2.0,6.0,2.0,1.61,-0.01,-0.03,1.15,33.0,28.14,0.0,19.0,0.0,4.0,2.18,0.04,-1.0,-0.04,0.27,-0.87,0.47,161.0,,,0.0,1.0,0.0,100.0
6040,1,walk,walk,5637,,5637.0,20.0,2.0,6.0,2.0,1.61,-0.01,0.025,1.168,33.0,28.14,0.0,19.0,0.0,4.0,2.19,0.04,-1.0,-0.04,0.28,-0.89,0.47,161.0,,,0.0,1.0,0.0,100.0
6060,1,walk,walk,5638,,5638.0,20.0,2.0,6.0,2.0,1.61,-0.01,-0.022,1.163,33.0,28.14,0.0,19.0,0.0,4.0,2.19,0.04,-1.0,-0.04,0.28,-0.91,0.47,161.0,,,0.0,1.0,0.0,100.0
6100,1,walk,walk,5639,,5639.0,20.0,2.0,6.0,2.0,1.61,-0.01,-0.003,1.16,33.0,28.11,0.0,19.0,0.0,4.0,2.2,0.04,-1.0,-0.04,0.29,-0.94,0.46,161.0,,,0.0,1.0,0.0,100.0
6100,1,walk,walk,5640,,5640.0,20.0,2.0,6.0,2.0,1.61,-0.01,-0.011,1.162,33.0,28.14,0.0,19.0,0.0,4.0,2.2,0.04,-1.0,-0.04,0.29,-0.96,0.45,161.0,,,0.0,1.0,0.0,100.0
6120,1,walk,walk,5641,,5641.0,20.0,2.0,6.0,2.0,1.61,-0.01,-0.037,1.142,33.0,28.14,0.0,19.0,0.0,4.0,2.21,0.04,-1.0,-0.04,0.3,-0.97,0.45,161.0,,,0.0,1.0,0.0,100.0
6140,1,walk,walk,5642,,5642.0,20.0,2.0,6.0,2.0,1.61,-0.01,0.049,1.16,33.0,28.11,0.0,19.0,0.0,4.0,2.22,0.04,-1.0,-0.04,0.31,-0.99,0.44,161.0,,,0.0,1.0,0.0,100.0
6180,1,walk,walk,5643,,5643.0,20.0,2.0,6.0,2.0,1.61,-0.01,0.017,1.164,33.0,28.11,0.0,19.0,0.0,4.0,2.23,0.04,-1.0,-0.04,0.31,-1.0,0.44,161.0,,,0.0,1.0,0.0,100.0
6200,1,walk,walk,5644,,5644.0,20.0,2.0,6.0,2.0,1.61,-0.01,0.03,1.149,33.0,28.14,0.0,19.0,0.0,4.0,2.24,0.04,-1.0,-0.04,0.32,-1.01,0.44,161.0,,,0.0,1.0,0.0,100.0
6220,1,walk,walk,5645,,5645.0,20.0,2.0,6.0,2.0,1.61,-0.01,0.002,1.163,33.0,28.14,0.0,19.0,0.0,4.0,2.25,0.04,-1.0,-0.04,0.33,-1.02,0.44,161.0,,,0.0,1.0,0.0,100.0
6220,1,walk,walk,5646,,5646.0,20.0,2.0,6.0,2.0,1.62,-0.01,0.048,1.151,33.0,28.14,0.0,19.0,0.0,4.0,2.26,0.04,-1.0,-0.04,0.34,-1.03,0.44,161.0,,,0.0,1.0,0.0,100.0
6240,1,walk,walk,5647,,5647.0,20.0,2.0,6.0,2.0,1.62,-0.01,-0.033,1.132,33.0,28.14,0.0,19.0,0.0,4.0,2.26,0.04,-1.0,-0.04,0.35,-1.03,0.44,161.0,,,0.0,1.0,0.0,100.0
6260,1,walk,walk,5648,,5648.0,20.0,2.0,6.0,2.0,1.62,-0.01,-0.025,1.148,33.0,28.14,0.0,19.0,0.0,4.0,2.27,0.04,-1.0,-0.04,0.36,-1.03,0.44,161.0,,,0.0,1.0,0.0,100.0
6280,1,walk,walk,5649,,5649.0,20.0,2.0,6.0,2.0,1.62,-0.01,0.08,1.146,33.0,28.14,0.0,19.0,0.0,4.0,2.27,0.04,-1.0,-0.04,0.37,-1.02,0.44,161.0,,,0.0,1.0,0.0,100.0
6300,1,walk,walk,5650,,5650.0,20.0,2.0,6.0,2.0,1.62,-0.01,0.001,1.16,33.0,28.14,0.0,19.0,0.0,4.0,2.27,0.04,-1.0,-0.04,0.38,-1.01,0.44,161.0,,,0.0,1.0,0.0,100.0
6340,1,walk,walk,5651,,5651.0,20.0,2.0,6.0,2.0,1.63,-0.01,-0.01,1.156,33.0,28.11,0.0,19.0,0.0,4.0,2.28,0.04,-1.0,-0.04,0.39,-1.0,0.43,161.0,,,0.0,1.0,0.0,100.0
6340,1,walk,walk,5652,,5652.0,20.0,2.0,6.0,2.0,1.63,-0.01,-0.014,1.139,33.0,28.14,0.0,19.0,0.0,4.0,2.28,0.04,-1.0,-0.04,0.4,-0.98,0.43,161.0,,,0.0,1.0,0.0,100.0
6360,1,walk,walk,5653,,5653.0,20.0,2.0,6.0,2.0,1.63,-0.01,-0.018,1.158,33.0,28.14,0.0,19.0,0.0,4.0,2.28,0.04,-1.0,-0.04,0.4,-0.96,0.43,161.0,,,0.0,1.0,0.0,100.0
6380,1,walk,walk,5654,,5654.0,20.0,2.0,6.0,2.0,1.64,-0.01,0.007,1.14,33.0,28.14,0.0,19.0,0.0,4.0,2.28,0.04,-1.0,-0.04,0.41,-0.94,0.43,161.0,,,0.0,1.0,0.0,100.0
6400,1,walk,walk,5655,,5655.0,20.0,2.0,6.0,2.0,1.64,-0.01,0.105,1.131,33.0,28.14,0.0,19.0,0.0,4.0,2.28,0.04,-1.0,-0.04,0.41,-0.92,0.43,161.0,,,0.0,1.0,0.0,100.0
6420,1,walk,walk,5656,,5656.0,20.0,2.0,6.0,2.0,1.64,-0.01,0.066,1.154,33.0,28.14,0.0,19.0,0.0,4.0,2.29,0.04,-1.0,-0.04,0.4,-0.91,0.43,161.0,,,0.0,1.0,0.0,100.0
6440,1,walk,walk,5657,,5657.0,20.0,2.0,6.0,2.0,1.65,-0.01,-0.066,1.14,33.0,28.14,0.0,19.0,0.0,4.0,2.29,0.04,-1.0,-0.04,0.4,-0.89,0.44,161.0,,,0.0,1.0,0.0,100.0
6460,1,walk,walk,5658,,5658.0,20.0,2.0,6.0,2.0,1.65,-0.01,-0.015,1.129,33.0,28.11,0.0,19.0,0.0,4.0,2.3,0.04,-1.0,-0.04,0.4,-0.88,0.45,161.0,,,0.0,1.0,0.0,100.0
6480,1,walk,walk,5659,,5659.0,20.0,2.0,6.0,2.0,1.65,-0.01,-0.066,1.142,33.0,28.14,0.0,19.0,0.0,4.0,2.3,0.04,-1.0,-0.04,0.4,-0.87,0.47,161.0,,,0.0,1.0,0.0,100.0
6520,1,walk,walk,5660,,5660.0,20.0,2.0,6.0,2.0,1.66,-0.01,-0.036,1.143,33.0,28.11,0.0,19.0,0.0,4.0,2.3,0.04,-1.0,-0.04,0.4,-0.86,0.49,161.0,,,0.0,1.0,0.0,100.0
6540,1,walk,walk,5661,,5661.0,20.0,2.0,6.0,2.0,1.66,-0.01,0.038,1.133,33.0,28.14,0.0,19.0,0.0,4.0,2.31,0.04,-1.0,-0.04,0.41,-0.86,0.51,161.0,,,0.0,1.0,0.0,100.0
6540,1,walk,walk,5662,,5662.0,20.0,2.0,6.0,2.0,1.66,-0.01,0.058,1.145,33.0,28.14,0.0,19.0,0.0,4.0,2.3,0.04,-1.0,-0.04,0.42,-0.85,0.53,161.0,,,0.0,1.0,0.0,100.0
6580,1,walk,walk,5663,,5663.0,20.0,2.0,6.0,2.0,1.67,-0.01,-0.029,1.135,33.0,28.11,0.0,19.0,0.0,4.0,2.3,0.04,-1.0,-0.04,0.44,-0.85,0.55,161.0,,,0.0,1.0,0.0,100.0
6580,1,walk,walk,5664,,5664.0,20.0,2.0,6.0,2.0,1.67,-0.01,-0.01,1.145,33.0,28.14,0.0,19.0,0.0,4.0,2.3,0.04,-1.0,-0.04,0.45,-0.85,0.57,161.0,,,0.0,1.0,0.0,100.0
6600,1,walk,walk,5665,,5665.0,20.0,2.0,6.0,2.0,1.67,-0.01,-0.022,1.138,33.0,28.11,0.0,19.0,0.0,4.0,2.29,0.04,-1.0,-0.04,0.47,-0.85,0.58,161.0,,,0.0,1.0,0.0,100.0
6640,1,walk,walk,5666,,5666.0,20.0,2.0,6.0,2.0,1.68,-0.01,0.002,1.137,33.0,28.14,0.0,19.0,0.0,4.0,2.29,0.04,-1.0,-0.04,0.48,-0.86,0.58,161.0,,,0.0,1.0,0.0,100.0
6680,1,walk,walk,5667,,5667.0,20.0,2.0,6.0,2.0,1.68,-0.01,0.014,1.115,33.0,28.14,0.0,19.0,0.0,4.0,2.28,0.04,-1.0,-0.04,0.49,-0.86,0.57,161.0,,,0.0,1.0,0.0,100.0
6680,1,walk,walk,5668,,5668.0,20.0,2.0,6.0,2.0,1.68,-0.01,-0.03,1.141,33.0,28.11,0.0,19.0,0.0,4.0,2.28,0.04,-1.0,-0.04,0.5,-0.87,0.56,161.0,,,0.0,1.0,0.0,100.0
6700,1,walk,walk,5669,,5669.0,20.0,2.0,6.0,2.0,1.69,-0.009,0.085,1.126,33.0,28.11,0.0,19.0,0.0,4.0,2.28,0.04,-1.0,-0.04,0.5,-0.87,0.55,161.0,,,0.0,1.0,0.0,100.0
6700,1,walk,walk,5670,,5670.0,20.0,2.0,6.0,2.0,1.69,-0.01,-0.045,1.123,33.0,28.14,0.0,19.0,0.0,4.0,2.28,0.04,-1.0,-0.04,0.5,-0.88,0.55,161.0,,,0.0,1.0,0.0,100.0
6720,1,walk,walk,5671,,5671.0,20.0,2.0,6.0,2.0,1.69,-0.009,0.092,1.118,33.0,28.14,0.0,19.0,0.0,4.0,2.28,0.04,-1.0,-0.04,0.51,-0.88,0.54,161.0,,,0.0,1.0,0.0,100.0
6740,1,walk,walk,5672,,5672.0,20.0,2.0,6.0,2.0,1.69,-0.01,0.022,1.13,33.0,28.14,0.0,19.0,0.0,4.0,2.29,0.04,-1.0,-0.04,0.51,-0.88,0.54,161.0,,,0.0,1.0,0.0,100.0
6760,1,walk,walk,5673,,5673.0,20.0,2.0,6.0,2.0,1.69,-0.009,0.017,1.123,33.0,28.14,0.0,19.0,0.0,4.0,2.29,0.04,-1.0,-0.04,0.51,-0.88,0.53,161.0,,,0.0,1.0,0.0,100.0
6780,1,walk,walk,5674,,5674.0,20.0,2.0,6.0,2.0,1.7,-0.009,0.068,1.091,33.0,28.14,0.0,19.0,0.0,4.0,2.29,0.04,-1.0,-0.04,0.51,-0.87,0.51,161.0,,,0.0,1.0,0.0,100.0
6800,1,walk,walk,5675,,5675.0,20.0,2.0,6.0,2.0,1.7,-0.009,-0.053,1.108,33.0,28.14,0.0,19.0,0.0,4.0,2.29,0.04,-1.0,-0.04,0.5,-0.85,0.49,161.0,,,0.0,1.0,0.0,100.0
6840,1,walk,walk,5676,,5676.0,20.0,2.0,6.0,2.0,1.7,-0.009,-0.022,1.087,33.0,28.14,0.0,19.0,0.0,4.0,2.29,0.04,-1.0,-0.04,0.5,-0.84,0.47,161.0,,,0.0,1.0,0.0,100.0
6860,1,walk,walk,5677,,5677.0,20.0,2.0,6.0,2.0,1.7,-0.009,0.052,1.129,33.0,28.14,0.0,19.0,0.0,4.0,2.3,0.04,-1.0,-0.04,0.49,-0.83,0.44,161.0,,,0.0,1.0,0.0,100.0
6880,1,walk,walk,5678,,5678.0,20.0,2.0,6.0,2.0,1.7,-0.009,0.109,1.099,33.0,28.11,0.0,19.0,0.0,4.0,2.3,0.04,-1.0,-0.04,0.49,-0.83,0.41,161.0,,,0.0,1.0,0.0,100.0
6880,1,walk,walk,5679,,5679.0,20.0,2.0,6.0,2.0,1.7,-0.009,0.021,1.085,33.0,28.14,0.0,19.0,0.0,4.0,2.31,0.04,-1.0,-0.04,0.49,-0.82,0.38,161.0,,,0.0,1.0,0.0,100.0
6900,1,walk,walk,5680,,5680.0,20.0,2.0,6.0,2.0,1.7,-0.009,-0.034,1.092,33.0,28.14,0.0,19.0,0.0,4.0,2.31,0.04,-1.0,-0.04,0.48,-0.82,0.36,161.0,,,0.0,1.0,0.0,100.0
6940,1,walk,walk,5681,,5681.0,20.0,2.0,6.0,2.0,1.71,-0.009,-0.061,1.099,33.0,28.11,0.0,19.0,0.0,4.0,2.32,0.04,-1.0,-0.04,0.48,-0.82,0.34,161.0,,,0.0,1.0,0.0,100.0
6960,1,walk,walk,5682,,5682.0,20.0,2.0,6.0,2.0,1.71,-0.009,-0.019,1.088,33.0,28.14,0.0,19.0,0.0,4.0,2.33,0.04,-1.0,-0.04,0.47,-0.82,0.33,161.0,,,0.0,1.0,0.0,100.0
6960,1,walk,walk,5683,,5683.0,20.0,2.0,6.0,2.0,1.71,-0.009,-0.001,1.089,33.0,28.11,0.0,19.0,0.0,4.0,2.34,0.04,-1.0,-0.04,0.45,-0.83,0.32,161.0,,,0.0,1.0,0.0,100.0
7020,1,walk,walk,5684,,5684.0,20.0,2.0,6.0,2.0,1.71,-0.009,0.065,1.082,33.0,28.14,0.0,19.0,0.0,4.0,2.34,0.04,-1.0,-0.04,0.44,-0.83,0.32,161.0,,,0.0,1.0,0.0,100.0
7020,1,walk,walk,5685,,5685.0,20.0,2.0,6.0,2.0,1.71,-0.009,-0.001,1.094,33.0,28.14,0.0,19.0,0.0,4.0,2.35,0.04,-1.0,-0.04,0.43,-0.84,0.32,161.0,,,0.0,1.0,0.0,100.0
7020,1,walk,walk,5686,,5686.0,20.0,2.0,6.0,2.0,1.72,-0.009,-0.032,1.057,33.0,28.14,0.0,19.0,0.0,4.0,2.35,0.04,-1.0,-0.04,0.42,-0.86,0.33,161.0,,,0.0,1.0,0.0,100.0
7060,1,walk,walk,5687,,5687.0,20.0,2.0,6.0,2.0,1.72,-0.009,0.052,1.074,33.0,28.14,0.0,19.0,0.0,4.0,2.35,0.04,-1.0,-0.04,0.41,-0.87,0.34,161.0,,,0.0,1.0,0.0,100.0
7080,1,walk,walk,5688,,5688.0,20.0,2.0,6.0,2.0,1.72,-0.009,-0.04,1.071,33.0,28.14,0.0,19.0,0.0,4.0,2.35,0.04,-1.0,-0.04,0.39,-0.89,0.35,161.0,,,0.0,1.0,0.0,100.0
7080,1,walk,walk,5689,,5689.0,20.0,2.0,6.0,2.0,1.73,-0.009,0.011,1.07,33.0,28.14,0.0,19.0,0.0,4.0,2.35,0.04,-1.0,-0.04,0.37,-0.91,0.36,161.0,,,0.0,1.0,0.0,100.0
7100,1,walk,walk,5690,,5690.0,20.0,2.0,6.0,2.0,1.73,-0.009,-0.026,1.073,33.0,28.14,0.0,19.0,0.0,4.0,2.36,0.04,-1.0,-0.04,0.34,-0.92,0.37,161.0,,,0.0,1.0,0.0,100.0
7120,1,walk,walk,5691,,5691.0,20.0,2.0,6.0,2.0,1.74,-0.009,-0.061,1.079,33.0,28.14,0.0,19.0,0.0,4.0,2.36,0.04,-1.0,-0.04,0.31,-0.93,0.37,161.0,,,0.0,1.0,0.0,100.0
7140,1,walk,walk,5692,,5692.0,20.0,2.0,6.0,2.0,1.74,-0.009,-0.092,1.058,33.0,28.14,0.0,19.0,0.0,4.0,2.36,0.04,-1.0,-0.04,0.27,-0.94,0.38,161.0,,,0.0,1.0,0.0,100.0
7200,1,walk,walk,5693,,5693.0,20.0,2.0,6.0,2.0,1.75,-0.009,0.036,1.074,33.0,28.11,0.0,19.0,0.0,4.0,2.37,0.04,-1.0,-0.04,0.24,-0.95,0.4,161.0,,,0.0,1.0,0.0,100.0
7220,1,walk,walk,5694,,5694.0,20.0,2.0,6.0,2.0,1.75,-0.009,0.033,1.065,33.0,28.14,0.0,19.0,0.0,4.0,2.37,0.04,-1.0,-0.04,0.2,-0.95,0.42,161.0,,,0.0,1.0,0.0,100.0
7220,1,walk,walk,5695,,5695.0,20.0,2.0,6.0,2.0,1.75,-0.009,-0.03,1.063,33.0,28.14,0.0,19.0,0.0,4.0,2.38,0.04,-1.0,-0.04,0.17,-0.96,0.44,161.0,,,0.0,1.0,0.0,100.0
7240,1,walk,walk,5696,,5696.0,20.0,2.0,6.0,2.0,1.76,-0.009,-0.037,1.055,33.0,28.14,0.0,19.0,0.0,4.0,2.39,0.04,-1.0,-0.04,0.13,-0.98,0.47,161.0,,,0.0,1.0,0.0,100.0
7240,1,walk,walk,5697,,5697.0,20.0,2.0,6.0,2.0,1.76,-0.009,-0.033,1.065,33.0,28.14,0.0,19.0,0.0,4.0,2.39,0.04,-1.0,-0.04,0.11,-0.99,0.5,161.0,,,0.0,1.0,0.0,100.0
7260,1,walk,walk,5698,,5698.0,20.0,2.0,6.0,2.0,1.77,-0.009,-0.013,1.074,33.0,28.14,0.0,19.0,0.0,4.0,2.39,0.04,-1.0,-0.04,0.09,-1.0,0.52,161.0,,,0.0,1.0,0.0,100.0
7280,1,walk,walk,5699,,5699.0,20.0,2.0,6.0,2.0,1.77,-0.009,-0.038,1.073,33.0,28.14,0.0,19.0,0.0,4.0,2.39,0.04,-1.0,-0.04,0.07,-1.01,0.54,161.0,,,0.0,1.0,0.0,100.0
7320,1,walk,walk,5700,,5700.0,20.0,2.0,6.0,2.0,1.78,-0.009,-0.029,1.073,33.0,28.14,0.0,19.0,0.0,4.0,2.39,0.04,-1.0,-0.04,0.05,-1.02,0.55,161.0,,,0.0,1.0,0.0,100.0
7340,1,walk,walk,5701,,5701.0,20.0,2.0,6.0,2.0,1.78,-0.009,-0.052,1.066,33.0,28.14,0.0,19.0,0.0,4.0,2.39,0.04,-1.0,-0.04,0.04,-1.03,0.57,161.0,,,0.0,1.0,0.0,100.0
7340,1,walk,walk,5702,,5702.0,20.0,2.0,6.0,2.0,1.78,-0.009,-0.057,1.054,33.0,28.14,0.0,19.0,0.0,4.0,2.39,0.04,-1.0,-0.04,0.04,-1.03,0.57,161.0,,,0.0,1.0,0.0,100.0
7380,1,walk,walk,5703,,5703.0,20.0,2.0,6.0,2.0,1.79,-0.009,-0.041,1.074,33.0,28.14,0.0,19.0,0.0,4.0,2.38,0.04,-1.0,-0.04,0.04,-1.03,0.58,161.0,,,0.0,1.0,0.0,100.0
7380,1,walk,walk,5704,,5704.0,20.0,2.0,6.0,2.0,1.79,-0.009,0.005,1.073,33.0,28.14,0.0,19.0,0.0,4.0,2.38,0.04,-1.0,-0.04,0.04,-1.03,0.58,161.0,,,0.0,1.0,0.0,100.0
7400,1,walk,walk,5705,,5705.0,20.0,2.0,6.0,2.0,1.79,-0.009,-0.033,1.051,33.0,28.14,0.0,19.0,0.0,4.0,2.38,0.04,-1.0,-0.04,0.05,-1.02,0.57,161.0,,,0.0,1.0,0.0,100.0
7420,1,walk,walk,5706,,5706.0,20.0,2.0,6.0,2.0,1.79,-0.009,0.045,1.054,33.0,28.14,0.0,19.0,0.0,4.0,2.37,0.04,-1.0,-0.04,0.07,-1.01,0.55,161.0,,,0.0,1.0,0.0,100.0
7440,1,walk,walk,5707,,5707.0,20.0,2.0,6.0,2.0,1.8,-0.009,-0.05,1.056,33.0,28.14,0.0,19.0,0.0,4.0,2.37,0.04,-1.0,-0.04,0.09,-1.0,0.53,161.0,,,0.0,1.0,0.0,100.0
7500,1,walk,walk,5708,,5708.0,20.0,2.0,6.0,2.0,1.8,-0.009,-0.04,1.059,33.0,28.14,0.0,19.0,0.0,4.0,2.37,0.04,-1.0,-0.04,0.11,-0.98,0.51,161.0,,,0.0,1.0,0.0,100.0
7500,1,walk,walk,5709,,5709.0,20.0,2.0,6.0,2.0,1.8,-0.009,0.022,1.068,33.0,28.14,0.0,19.0,0.0,4.0,2.37,0.04,-1.0,-0.04,0.14,-0.97,0.49,161.0,,,0.0,1.0,0.0,100.0
7500,1,walk,walk,5710,,5710.0,20.0,2.0,6.0,2.0,1.8,-0.009,-0.021,1.064,33.0,28.14,0.0,19.0,0.0,4.0,2.37,0.04,-1.0,-0.04,0.18,-0.96,0.47,161.0,,,0.0,1.0,0.0,100.0
7540,1,walk,walk,5711,,5711.0,20.0,2.0,6.0,2.0,1.8,-0.009,0.062,1.04,33.0,28.14,0.0,19.0,0.0,4.0,2.37,0.04,-1.0,-0.04,0.21,-0.95,0.47,161.0,,,0.0,1.0,0.0,100.0
7540,1,walk,walk,5712,,5712.0,20.0,2.0,6.0,2.0,1.8,-0.009,0.038,1.057,33.0,28.11,0.0,19.0,0.0,4.0,2.38,0.04,-1.0,-0.04,0.25,-0.95,0.47,161.0,,,0.0,1.0,0.0,100.0
7560,1,walk,walk,5713,,5713.0,20.0,2.0,6.0,2.0,1.81,-0.009,-0.056,1.065,33.0,28.14,0.0,19.0,0.0,4.0,2.38,0.04,-1.0,-0.04,0.28,-0.95,0.47,161.0,,,0.0,1.0,0.0,100.0
7600,1,walk,walk,5714,,5714.0,20.0,2.0,6.0,2.0,1.81,-0.009,-0.005,1.065,33.0,28.14,0.0,19.0,0.0,4.0,2.38,0.04,-1.0,-0.04,0.31,-0.95,0.48,161.0,,,0.0,1.0,0.0,100.0
7640,1,walk,walk,5715,,5715.0,20.0,2.0,6.0,2.0,1.81,-0.009,0.03,1.06,33.0,28.14,0.0,19.0,0.0,4.0,2.38,0.04,-1.0,-0.04,0.34,-0.95,0.49,161.0,,,0.0,1.0,0.0,100.0
7640,1,walk,walk,5716,,5716.0,20.0,2.0,6.0,2.0,1.81,-0.009,-0.042,1.032,33.0,28.14,0.0,19.0,0.0,4.0,2.38,0.04,-1.0,-0.04,0.37,-0.96,0.5,161.0,,,0.0,1.0,0.0,100.0
7660,1,walk,walk,5717,,5717.0,20.0,2.0,6.0,2.0,1.81,-0.009,0.025,1.047,33.0,28.14,0.0,19.0,0.0,4.0,2.39,0.04,-1.0,-0.04,0.39,-0.96,0.5,161.0,,,0.0,1.0,0.0,100.0
7660,1,walk,walk,5718,,5718.0,20.0,2.0,6.0,2.0,1.81,-0.009,0.053,1.065,33.0,28.14,0.0,19.0,0.0,4.0,2.39,0.04,-1.0,-0.04,0.41,-0.97,0.51,161.0,,,0.0,1.0,0.0,100.0
7680,1,walk,walk,5719,,5719.0,20.0,2.0,6.0,2.0,1.81,-0.009,-0.025,1.046,33.0,28.14,0.0,19.0,0.0,4.0,2.39,0.04,-1.0,-0.04,0.42,-0.98,0.51,161.0,,,0.0,1.0,0.0,100.0
7700,1,walk,walk,5720,,5720.0,20.0,2.0,6.0,2.0,1.82,-0.009,-0.091,1.028,33.0,28.14,0.0,19.0,0.0,4.0,2.4,0.04,-1.0,-0.04,0.42,-0.99,0.51,161.0,,,0.0,1.0,0.0,100.0
7720,1,walk,walk,5721,,5721.0,20.0,2.0,6.0,2.0,1.82,-0.009,-0.077,1.057,33.0,28.14,0.0,19.0,0.0,4.0,2.4,0.04,-1.0,-0.04,0.43,-1.0,0.5,161.0,,,0.0,1.0,0.0,100.0
7740,1,walk,walk,5722,,5722.0,20.0,2.0,6.0,2.0,1.82,-0.009,-0.08,1.064,33.0,28.14,0.0,19.0,0.0,4.0,2.41,0.04,-1.0,-0.04,0.42,-1.01,0.51,161.0,,,0.0,1.0,0.0,100.0
7780,1,walk,walk,5723,,5723.0,20.0,2.0,6.0,2.0,1.82,-0.009,0.01,1.058,33.0,28.14,0.0,19.0,0.0,4.0,2.41,0.04,-1.0,-0.04,0.41,-1.01,0.51,161.0,,,0.0,1.0,0.0,100.0
7800,1,walk,walk,5724,,5724.0,20.0,2.0,6.0,2.0,1.82,-0.009,-0.026,1.048,33.0,28.14,0.0,19.0,0.0,4.0,2.42,0.04,-1.0,-0.04,0.4,-1.02,0.52,161.0,,,0.0,1.0,0.0,100.0
7820,1,walk,walk,5725,,5725.0,20.0,2.0,6.0,2.0,1.82,-0.009,0.002,1.052,33.0,28.14,0.0,19.0,0.0,4.0,2.43,0.04,-1.0,-0.04,0.39,-1.03,0.54,161.0,,,0.0,1.0,0.0,100.0
7820,1,walk,walk,5726,,5726.0,20.0,2.0,6.0,2.0,1.82,-0.009,0.052,1.08,33.0,28.14,0.0,19.0,0.0,4.0,2.44,0.04,-1.0,-0.04,0.37,-1.04,0.57,161.0,,,0.0,1.0,0.0,100.0
7840,1,walk,walk,5727,,5727.0,20.0,2.0,6.0,2.0,1.83,-0.009,-0.014,1.092,33.0,28.14,0.0,19.0,0.0,4.0,2.44,0.04,-1.0,-0.04,0.35,-1.06,0.6,161.0,,,0.0,1.0,0.0,100.0
7860,1,walk,walk,5728,,5728.0,20.0,2.0,6.0,2.0,1.83,-0.009,0.046,1.079,33.0,28.14,0.0,19.0,0.0,4.0,2.45,0.04,-1.0,-0.04,0.33,-1.07,0.64,161.0,,,0.0,1.0,0.0,100.0
7900,1,walk,walk,5729,,5729.0,20.0,2.0,6.0,2.0,1.83,-0.009,-0.018,1.064,33.0,28.14,0.0,19.0,0.0,4.0,2.45,0.04,-1.0,-0.04,0.32,-1.08,0.68,161.0,,,0.0,1.0,0.0,100.0
7900,1,walk,walk,5730,,5730.0,20.0,2.0,6.0,2.0,1.83,-0.009,-0.006,1.08,33.0,28.14,0.0,19.0,0.0,4.0,2.45,0.04,-1.0,-0.04,0.32,-1.1,0.71,161.0,,,0.0,1.0,0.0,100.0
7920,1,walk,walk,5731,,5731.0,20.0,2.0,6.0,2.0,1.83,-0.009,0.023,1.054,33.0,28.11,0.0,19.0,0.0,4.0,2.44,0.04,-1.0,-0.04,0.32,-1.11,0.74,161.0,,,0.0,1.0,0.0,100.0
7960,1,walk,walk,5732,,5732.0,20.0,2.0,6.0,2.0,1.83,-0.009,-0.023,1.054,33.0,28.14,0.0,19.0,0.0,4.0,2.44,0.04,-1.0,-0.04,0.33,-1.12,0.76,161.0,,,0.0,1.0,0.0,100.0
7980,1,walk,walk,5733,,5733.0,20.0,2.0,6.0,2.0,1.83,-0.009,-0.005,1.049,33.0,28.14,0.0,19.0,0.0,4.0,2.43,0.04,-1.0,-0.04,0.35,-1.14,0.76,161.0,,,0.0,1.0,0.0,100.0
8020,1,walk,walk,5734,,5734.0,20.0,2.0,6.0,2.0,1.83,-0.009,-0.038,1.073,33.0,28.14,0.0,19.0,0.0,4.0,2.43,0.04,-1.0,-0.04,0.38,-1.15,0.76,161.0,,,0.0,1.0,0.0,100.0
8020,1,walk,walk,5735,,5735.0,20.0,2.0,6.0,2.0,1.83,-0.009,0.116,1.073,33.0,28.14,0.0,19.0,0.0,4.0,2.42,0.04,-1.0,-0.04,0.41,-1.16,0.75,161.0,,,0.0,1.0,0.0,100.0
8020,1,walk,walk,5736,,5736.0,20.0,2.0,6.0,2.0,1.83,-0.009,-0.032,1.062,33.0,28.14,0.0,19.0,0.0,4.0,2.42,0.04,-1.0,-0.04,0.45,-1.16,0.73,161.0,,,0.0,1.0,0.0,100.0
8040,1,walk,walk,5737,,5737.0,20.0,2.0,6.0,2.0,1.83,-0.009,0.041,1.071,33.0,28.14,0.0,19.0,0.0,4.0,2.41,0.04,-1.0,-0.04,0.49,-1.17,0.71,161.0,,,0.0,1.0,0.0,100.0
8060,1,walk,walk,5738,,5738.0,20.0,2.0,6.0,2.0,1.83,-0.009,0.038,1.074,33.0,28.14,0.0,19.0,0.0,4.0,2.41,0.04,-1.0,-0.04,0.53,-1.16,0.69,161.0,,,0.0,1.0,0.0,100.0
8080,1,walk,walk,5739,,5739.0,20.0,2.0,6.0,2.0,1.83,-0.009,0.037,1.066,33.0,28.14,0.0,19.0,0.0,4.0,2.41,0.04,-1.0,-0.04,0.56,-1.16,0.66,161.0,,,0.0,1.0,0.0,100.0
8100,1,walk,walk,5740,,5740.0,20.0,2.0,6.0,2.0,1.83,-0.009,-0.005,1.054,33.0,28.14,0.0,19.0,0.0,4.0,2.41,0.04,-1.0,-0.04,0.59,-1.16,0.64,161.0,,,0.0,1.0,0.0,100.0
8140,1,walk,walk,5741,,5741.0,20.0,2.0,6.0,2.0,1.83,-0.009,-0.113,1.046,33.0,28.14,0.0,19.0,0.0,4.0,2.41,0.04,-1.0,-0.04,0.6,-1.15,0.61,161.0,,,0.0,1.0,0.0,100.0
8180,1,walk,walk,5742,,5742.0,20.0,2.0,6.0,2.0,1.83,-0.009,0.056,1.091,33.0,28.14,0.0,19.0,0.0,4.0,2.41,0.04,-1.0,-0.04,0.61,-1.15,0.58,161.0,,,0.0,1.0,0.0,100.0
8180,1,walk,walk,5743,,5743.0,20.0,2.0,6.0,2.0,1.83,-0.009,0.037,1.067,33.0,28.14,0.0,19.0,0.0,4.0,2.42,0.04,-1.0,-0.04,0.62,-1.14,0.55,161.0,,,0.0,1.0,0.0,100.0
8200,1,walk,walk,5744,,5744.0,20.0,2.0,6.0,2.0,1.83,-0.009,-0.041,1.05,33.0,28.14,0.0,19.0,0.0,4.0,2.42,0.04,-1.0,-0.04,0.61,-1.13,0.52,161.0,,,0.0,1.0,0.0,100.0
8200,1,walk,walk,5745,,5745.0,20.0,2.0,6.0,2.0,1.82,-0.009,0.091,1.054,33.0,28.14,0.0,19.0,0.0,4.0,2.43,0.04,-1.0,-0.04,0.61,-1.12,0.5,161.0,,,0.0,1.0,0.0,100.0
8240,1,walk,walk,5746,,5746.0,20.0,2.0,6.0,2.0,1.82,-0.009,-0.018,1.06,33.0,28.14,0.0,19.0,0.0,4.0,2.44,0.04,-1.0,-0.04,0.59,-1.12,0.48,161.0,,,0.0,1.0,0.0,100.0
8280,1,walk,walk,5747,,5747.0,20.0,2.0,6.0,2.0,1.82,-0.009,-0.042,1.079,33.0,28.14,0.0,19.0,0.0,4.0,2.44,0.04,-1.0,-0.04,0.58,-1.11,0.46,161.0,,,0.0,1.0,0.0,100.0
8280,1,walk,walk,5748,,5748.0,20.0,2.0,6.0,2.0,1.82,-0.009,-0.019,1.05,33.0,28.14,0.0,19.0,0.0,4.0,2.45,0.04,-1.0,-0.04,0.56,-1.11,0.45,161.0,,,0.0,1.0,0.0,100.0
8280,1,walk,walk,5749,,5749.0,20.0,2.0,6.0,2.0,1.82,-0.009,-0.073,1.048,33.0,28.14,0.0,19.0,0.0,4.0,2.45,0.04,-1.0,-0.04,0.54,-1.09,0.44,161.0,,,0.0,1.0,0.0,100.0
8320,1,walk,walk,5750,,5750.0,20.0,2.0,6.0,2.0,1.82,-0.009,-0.01,1.054,33.0,28.14,0.0,19.0,0.0,4.0,2.45,0.04,-1.0,-0.04,0.52,-1.08,0.43,161.0,,,0.0,1.0,0.0,100.0
8340,1,walk,walk,5751,,5751.0,20.0,2.0,6.0,2.0,1.82,-0.009,0.073,1.064,33.0,28.14,0.0,19.0,0.0,4.0,2.45,0.04,-1.0,-0.04,0.5,-1.07,0.42,161.0,,,0.0,1.0,0.0,100.0
8360,1,walk,walk,5752,,5752.0,20.0,2.0,6.0,2.0,1.82,-0.009,-0.007,1.086,33.0,28.14,0.0,19.0,0.0,4.0,2.46,0.04,-1.0,-0.04,0.47,-1.06,0.41,161.0,,,0.0,1.0,0.0,100.0
8360,1,walk,walk,5753,,5753.0,20.0,2.0,6.0,2.0,1.82,-0.009,-0.032,1.065,33.0,28.14,0.0,19.0,0.0,4.0,2.46,0.04,-1.0,-0.04,0.45,-1.05,0.41,161.0,,,0.0,1.0,0.0,100.0
8380,1,walk,walk,5754,,5754.0,20.0,2.0,6.0,2.0,1.83,-0.009,0.049,1.075,33.0,28.14,0.0,19.0,0.0,4.0,2.47,0.04,-1.0,-0.04,0.42,-1.04,0.42,161.0,,,0.0,1.0,0.0,100.0
8400,1,walk,walk,5755,,5755.0,20.0,2.0,6.0,2.0,1.83,-0.009,-0.075,1.065,33.0,28.14,0.0,19.0,0.0,4.0,2.47,0.04,-1.0,-0.04,0.4,-1.03,0.44,161.0,,,0.0,1.0,0.0,100.0
8420,1,walk,walk,5756,,5756.0,20.0,2.0,6.0,2.0,1.83,-0.009,-0.06,1.065,33.0,28.14,0.0,19.0,0.0,4.0,2.47,0.04,-1.0,-0.04,0.36,-1.03,0.46,161.0,,,0.0,1.0,0.0,100.0
8460,1,walk,walk,5757,,5757.0,20.0,2.0,6.0,2.0,1.83,-0.009,0.015,1.074,33.0,28.14,0.0,19.0,0.0,4.0,2.47,0.04,-1.0,-0.04,0.33,-1.04,0.48,161.0,,,0.0,1.0,0.0,100.0
8460,1,walk,walk,5758,,5758.0,20.0,2.0,6.0,2.0,1.83,-0.009,-0.033,1.077,33.0,28.14,0.0,19.0,0.0,4.0,2.47,0.04,-1.0,-0.04,0.3,-1.05,0.5,161.0,,,0.0,1.0,0.0,100.0
8480,1,walk,walk,5759,,5759.0,20.0,2.0,6.0,2.0,1.84,-0.009,-0.001,1.085,33.0,28.14,0.0,19.0,0.0,4.0,2.47,0.04,-1.0,-0.04,0.26,-1.05,0.52,161.0,,,0.0,1.0,0.0,100.0
8520,1,walk,walk,5760,,5760.0,20.0,2.0,6.0,2.0,1.84,-0.009,0.057,1.082,33.0,28.14,0.0,19.0,0.0,4.0,2.47,0.04,-1.0,-0.04,0.22,-1.06,0.53,161.0,,,0.0,1.0,0.0,100.0
8540,1,walk,walk,5761,,5761.0,20.0,2.0,6.0,2.0,1.84,-0.009,0.011,1.087,33.0,28.14,0.0,19.0,0.0,4.0,2.46,0.04,-1.0,-0.04,0.18,-1.07,0.54,161.0,,,0.0,1.0,0.0,100.0
8560,1,walk,walk,5762,,5762.0,20.0,2.0,6.0,2.0,1.85,-0.009,0.066,1.083,33.0,28.14,0.0,19.0,0.0,4.0,2.46,0.04,-1.0,-0.04,0.14,-1.08,0.55,161.0,,,0.0,1.0,0.0,100.0
8560,1,walk,walk,5763,,5763.0,20.0,2.0,6.0,2.0,1.85,-0.009,0.049,1.062,33.0,28.14,0.0,19.0,0.0,4.0,2.47,0.04,-1.0,-0.04,0.11,-1.1,0.56,161.0,,,0.0,1.0,0.0,100.0
8580,1,walk,walk,5764,,5764.0,20.0,2.0,6.0,2.0,1.85,-0.009,0.018,1.087,33.0,28.14,0.0,19.0,0.0,4.0,2.47,0.04,-1.0,-0.04,0.07,-1.11,0.58,161.0,,,0.0,1.0,0.0,100.0
8600,1,walk,walk,5765,,5765.0,20.0,2.0,6.0,2.0,1.85,-0.009,-0.036,1.125,33.0,28.14,0.0,19.0,0.0,4.0,2.47,0.04,-1.0,-0.04,0.05,-1.13,0.61,161.0,,,0.0,1.0,0.0,100.0
8620,1,walk,walk,5766,,5766.0,20.0,2.0,6.0,2.0,1.86,-0.009,0.058,1.092,33.0,28.11,0.0,19.0,0.0,4.0,2.47,0.04,-1.0,-0.04,0.02,-1.14,0.64,161.0,,,0.0,1.0,0.0,100.0
8640,1,walk,walk,5767,,5767.0,20.0,2.0,6.0,2.0,1.86,-0.009,0.038,1.127,33.0,28.14,0.0,19.0,0.0,4.0,2.47,0.04,-1.0,-0.04,0.0,-1.16,0.67,161.0,,,0.0,1.0,0.0,100.0
8700,1,walk,walk,5768,,5768.0,20.0,2.0,6.0,2.0,1.86,-0.009,0.069,1.109,33.0,28.14,0.0,19.0,0.0,4.0,2.47,0.04,-1.0,-0.04,-0.02,-1.18,0.7,161.0,,,0.0,1.0,0.0,100.0
8700,1,walk,walk,5769,,5769.0,20.0,2.0,6.0,2.0,1.86,-0.009,0.037,1.099,33.0,28.11,0.0,19.0,0.0,4.0,2.47,0.04,-1.0,-0.04,-0.03,-1.19,0.73,161.0,,,0.0,1.0,0.0,100.0
8700,1,walk,walk,5770,,5770.0,20.0,2.0,6.0,2.0,1.86,-0.009,-0.064,1.101,33.0,28.11,0.0,19.0,0.0,4.0,2.46,0.04,-1.0,-0.04,-0.05,-1.21,0.76,161.0,,,0.0,1.0,0.0,100.0
8720,1,walk,walk,5771,,5771.0,20.0,2.0,6.0,2.0,1.87,-0.009,0.041,1.096,33.0,28.14,0.0,19.0,0.0,4.0,2.46,0.04,-1.0,-0.04,-0.05,-1.22,0.79,161.0,,,0.0,1.0,0.0,100.0
8760,1,walk,walk,5772,,5772.0,20.0,2.0,6.0,2.0,1.87,-0.009,-0.054,1.105,33.0,28.14,0.0,19.0,0.0,4.0,2.46,0.04,-1.0,-0.04,-0.06,-1.23,0.82,161.0,,,0.0,1.0,0.0,100.0
8800,1,walk,walk,5773,,5773.0,20.0,2.0,6.0,2.0,1.87,-0.009,-0.006,1.112,33.0,28.14,0.0,19.0,0.0,4.0,2.46,0.04,-1.0,-0.04,-0.05,-1.23,0.84,161.0,,,0.0,1.0,0.0,100.0
8800,1,walk,walk,5774,,5774.0,20.0,2.0,6.0,2.0,1.87,-0.009,0.014,1.094,33.0,28.14,0.0,19.0,0.0,4.0,2.45,0.04,-1.0,-0.04,-0.03,-1.23,0.86,161.0,,,0.0,1.0,0.0,100.0
8820,1,walk,walk,5775,,5775.0,20.0,2.0,6.0,2.0,1.87,-0.009,-0.023,1.107,33.0,28.14,0.0,19.0,0.0,4.0,2.44,0.04,-1.0,-0.04,0.0,-1.23,0.87,161.0,,,0.0,1.0,0.0,100.0
8840,1,walk,walk,5776,,5776.0,20.0,2.0,6.0,2.0,1.87,-0.009,0.015,1.102,33.0,28.14,0.0,19.0,0.0,4.0,2.43,0.04,-1.0,-0.04,0.03,-1.22,0.88,161.0,,,0.0,1.0,0.0,100.0
8860,1,walk,walk,5777,,5777.0,20.0,2.0,6.0,2.0,1.86,-0.009,0.076,1.127,33.0,28.11,0.0,19.0,0.0,4.0,2.43,0.04,-1.0,-0.04,0.08,-1.21,0.87,161.0,,,0.0,1.0,0.0,100.0
8860,1,walk,walk,5778,,5778.0,20.0,2.0,6.0,2.0,1.86,-0.009,-0.009,1.1,33.0,28.14,0.0,19.0,0.0,4.0,2.42,0.04,-1.0,-0.04,0.13,-1.19,0.86,161.0,,,0.0,1.0,0.0,100.0
8880,1,walk,walk,5779,,5779.0,20.0,2.0,6.0,2.0,1.86,-0.009,-0.007,1.107,33.0,28.14,0.0,19.0,0.0,4.0,2.42,0.04,-1.0,-0.04,0.18,-1.17,0.84,161.0,,,0.0,1.0,0.0,100.0
8900,1,walk,walk,5780,,5780.0,20.0,2.0,6.0,2.0,1.86,-0.009,0.002,1.113,33.0,28.14,0.0,19.0,0.0,4.0,2.42,0.04,-1.0,-0.04,0.23,-1.16,0.83,161.0,,,0.0,1.0,0.0,100.0
8920,1,walk,walk,5781,,5781.0,20.0,2.0,6.0,2.0,1.85,-0.009,-0.052,1.104,33.0,28.14,0.0,19.0,0.0,4.0,2.42,0.04,-1.0,-0.04,0.28,-1.14,0.82,161.0,,,0.0,1.0,0.0,100.0
8940,1,walk,walk,5782,,5782.0,20.0,2.0,6.0,2.0,1.85,-0.009,0.028,1.103,33.0,28.14,0.0,19.0,0.0,4.0,2.42,0.04,-1.0,-0.04,0.32,-1.13,0.82,161.0,,,0.0,1.0,0.0,100.0
8980,1,walk,walk,5783,,5783.0,20.0,2.0,6.0,2.0,1.85,-0.009,0.007,1.097,33.0,28.14,0.0,19.0,0.0,4.0,2.42,0.04,-1.0,-0.04,0.36,-1.12,0.81,161.0,,,0.0,1.0,0.0,100.0
9020,1,walk,walk,5784,,5784.0,20.0,2.0,6.0,2.0,1.84,-0.009,-0.038,1.102,33.0,28.14,0.0,19.0,0.0,4.0,2.41,0.04,-1.0,-0.04,0.39,-1.11,0.8,161.0,,,0.0,1.0,0.0,100.0
9020,1,walk,walk,5785,,5785.0,20.0,2.0,6.0,2.0,1.84,-0.009,-0.088,1.106,33.0,28.14,0.0,19.0,0.0,4.0,2.41,0.04,-1.0,-0.04,0.42,-1.09,0.79,161.0,,,0.0,1.0,0.0,100.0
9040,1,walk,walk,5786,,5786.0,20.0,2.0,6.0,2.0,1.84,-0.009,-0.077,1.119,33.0,28.14,0.0,19.0,0.0,4.0,2.4,0.04,-1.0,-0.04,0.44,-1.08,0.77,161.0,,,0.0,1.0,0.0,100.0
9040,1,walk,walk,5787,,5787.0,20.0,2.0,6.0,2.0,1.83,-0.009,0.069,1.089,33.0,28.14,0.0,19.0,0.0,4.0,2.4,0.04,-1.0,-0.04,0.45,-1.07,0.76,161.0,,,0.0,1.0,0.0,100.0
9060,1,walk,walk,5788,,5788.0,20.0,2.0,6.0,2.0,1.83,-0.009,-0.099,1.095,33.0,28.14,0.0,19.0,0.0,4.0,2.39,0.04,-1.0,-0.04,0.45,-1.06,0.74,161.0,,,0.0,1.0,0.0,100.0
9100,1,walk,walk,5789,,5789.0,20.0,2.0,6.0,2.0,1.83,-0.009,-0.034,1.117,33.0,28.11,0.0,19.0,0.0,4.0,2.39,0.04,-1.0,-0.04,0.44,-1.06,0.74,161.0,,,0.0,1.0,0.0,100.0
9100,1,walk,walk,5790,,5790.0,20.0,2.0,6.0,2.0,1.82,-0.009,0.019,1.105,33.0,28.14,0.0,19.0,0.0,4.0,2.38,0.04,-1.0,-0.04,0.43,-1.06,0.74,161.0,,,0.0,1.0,0.0,100.0
9120,1,walk,walk,5791,,5791.0,20.0,2.0,6.0,2.0,1.82,-0.009,-0.002,1.087,33.0,28.14,0.0,19.0,0.0,4.0,2.37,0.04,-1.0,-0.04,0.41,-1.06,0.74,161.0,,,0.0,1.0,0.0,100.0
9180,1,walk,walk,5792,,5792.0,20.0,2.0,6.0,2.0,1.81,-0.009,0.05,1.112,33.0,28.14,0.0,19.0,0.0,4.0,2.36,0.04,-1.0,-0.04,0.39,-1.06,0.74,161.0,,,0.0,1.0,0.0,100.0
9180,1,walk,walk,5793,,5793.0,20.0,2.0,6.0,2.0,1.81,-0.009,0.013,1.107,33.0,28.11,0.0,19.0,0.0,4.0,2.36,0.04,-1.0,-0.04,0.38,-1.07,0.74,161.0,,,0.0,1.0,0.0,100.0
9180,1,walk,walk,5794,,5794.0,20.0,2.0,6.0,2.0,1.81,-0.009,0.045,1.099,33.0,28.14,0.0,19.0,0.0,4.0,2.35,0.04,-1.0,-0.04,0.36,-1.08,0.75,161.0,,,0.0,1.0,0.0,100.0
9200,1,walk,walk,5795,,5795.0,20.0,2.0,6.0,2.0,1.8,-0.009,0.009,1.11,33.0,28.14,0.0,19.0,0.0,4.0,2.35,0.04,-1.0,-0.04,0.36,-1.08,0.75,161.0,,,0.0,1.0,0.0,100.0
9220,1,walk,walk,5796,,5796.0,20.0,2.0,6.0,2.0,1.8,-0.009,0.049,1.107,33.0,28.11,0.0,19.0,0.0,4.0,2.35,0.04,-1.0,-0.04,0.35,-1.09,0.76,161.0,,,0.0,1.0,0.0,100.0
9240,1,walk,walk,5797,,5797.0,20.0,2.0,6.0,2.0,1.8,-0.009,0.003,1.106,33.0,28.14,0.0,19.0,0.0,4.0,2.35,0.04,-1.0,-0.04,0.36,-1.1,0.77,161.0,,,0.0,1.0,0.0,100.0
9260,1,walk,walk,5798,,5798.0,20.0,2.0,6.0,2.0,1.79,-0.009,0.018,1.106,33.0,28.14,0.0,19.0,0.0,4.0,2.34,0.04,-1.0,-0.04,0.36,-1.11,0.77,161.0,,,0.0,1.0,0.0,100.0
9300,1,walk,walk,5799,,5799.0,20.0,2.0,6.0,2.0,1.79,-0.009,-0.042,1.104,33.0,28.14,0.0,19.0,0.0,4.0,2.34,0.04,-1.0,-0.04,0.36,-1.12,0.78,161.0,,,0.0,1.0,0.0,100.0
9320,1,walk,walk,5800,,5800.0,20.0,2.0,6.0,2.0,1.79,-0.009,-0.006,1.103,33.0,28.14,0.0,19.0,0.0,4.0,2.33,0.04,-1.0,-0.04,0.36,-1.13,0.78,161.0,,,0.0,1.0,0.0,100.0
9360,1,walk,walk,5801,,5801.0,20.0,2.0,6.0,2.0,1.78,-0.009,0.002,1.109,32.0,28.14,0.0,19.0,0.0,4.0,2.33,0.04,-1.0,-0.04,0.35,-1.14,0.77,161.0,,,0.0,1.0,0.0,100.0
9360,1,walk,walk,5802,,5802.0,20.0,2.0,6.0,2.0,1.78,-0.009,-0.018,1.111,33.0,28.11,0.0,19.0,0.0,4.0,2.32,0.04,-1.0,-0.04,0.34,-1.15,0.76,161.0,,,0.0,1.0,0.0,100.0
9360,1,walk,walk,5803,,5803.0,20.0,2.0,6.0,2.0,1.78,-0.009,0.022,1.094,32.0,28.14,0.0,19.0,0.0,4.0,2.31,0.04,-1.0,-0.04,0.33,-1.16,0.74,161.0,,,0.0,1.0,0.0,100.0
9380,1,walk,walk,5804,,5804.0,20.0,2.0,6.0,2.0,1.77,-0.009,0.021,1.112,32.0,28.14,0.0,19.0,0.0,4.0,2.31,0.04,-1.0,-0.04,0.31,-1.16,0.72,161.0,,,0.0,1.0,0.0,100.0
9420,1,walk,walk,5805,,5805.0,20.0,2.0,6.0,2.0,1.77,-0.009,-0.079,1.094,33.0,28.14,0.0,19.0,0.0,4.0,2.31,0.04,-1.0,-0.04,0.3,-1.16,0.69,161.0,,,0.0,1.0,0.0,100.0
9420,1,walk,walk,5806,,5806.0,20.0,2.0,6.0,2.0,1.77,-0.009,-0.072,1.087,32.0,28.14,0.0,19.0,0.0,4.0,2.31,0.04,-1.0,-0.04,0.28,-1.15,0.67,161.0,,,0.0,1.0,0.0,100.0
9440,1,walk,walk,5807,,5807.0,20.0,2.0,6.0,2.0,1.76,-0.009,-0.081,1.123,32.0,28.14,0.0,19.0,0.0,4.0,2.32,0.04,-1.0,-0.04,0.26,-1.14,0.65,161.0,,,0.0,1.0,0.0,100.0
9460,1,walk,walk,5808,,5808.0,20.0,2.0,6.0,2.0,1.76,-0.009,-0.003,1.105,32.0,28.14,0.0,19.0,0.0,4.0,2.32,0.04,-1.0,-0.04,0.24,-1.14,0.64,161.0,,,0.0,1.0,0.0,100.0
9480,1,walk,walk,5809,,5809.0,20.0,2.0,6.0,2.0,1.76,-0.009,0.019,1.093,32.0,28.14,0.0,19.0,0.0,4.0,2.33,0.04,-1.0,-0.04,0.23,-1.13,0.64,161.0,,,0.0,1.0,0.0,100.0
9520,1,walk,walk,5810,,5810.0,20.0,2.0,6.0,2.0,1.76,-0.009,-0.048,1.101,32.0,28.14,0.0,19.0,0.0,4.0,2.33,0.04,-1.0,-0.04,0.22,-1.12,0.65,161.0,,,0.0,1.0,0.0,100.0
9520,1,walk,walk,5811,,5811.0,20.0,2.0,6.0,2.0,1.75,-0.009,-0.006,1.105,33.0,28.14,0.0,19.0,0.0,4.0,2.33,0.04,-1.0,-0.04,0.22,-1.11,0.66,161.0,,,0.0,1.0,0.0,100.0
9560,1,walk,walk,5812,,5812.0,20.0,2.0,6.0,2.0,1.75,-0.009,-0.07,1.119,32.0,28.14,0.0,19.0,0.0,4.0,2.33,0.04,-1.0,-0.04,0.23,-1.1,0.68,161.0,,,0.0,1.0,0.0,100.0
9580,1,walk,walk,5813,,5813.0,20.0,2.0,6.0,2.0,1.75,-0.009,0.101,1.12,32.0,28.14,0.0,19.0,0.0,4.0,2.32,0.04,-1.0,-0.04,0.24,-1.09,0.69,161.0,,,0.0,1.0,0.0,100.0
9580,1,walk,walk,5814,,5814.0,20.0,2.0,6.0,2.0,1.75,-0.009,0.029,1.11,32.0,28.14,0.0,19.0,0.0,4.0,2.32,0.04,-1.0,-0.04,0.27,-1.07,0.7,161.0,,,0.0,1.0,0.0,100.0
9600,1,walk,walk,5815,,5815.0,20.0,2.0,6.0,2.0,1.74,-0.009,-0.045,1.105,32.0,28.14,0.0,19.0,0.0,4.0,2.31,0.04,-1.0,-0.04,0.29,-1.06,0.69,161.0,,,0.0,1.0,0.0,100.0
9620,1,walk,walk,5816,,5816.0,20.0,2.0,6.0,2.0,1.74,-0.009,0.044,1.098,32.0,28.14,0.0,19.0,0.0,4.0,2.3,0.04,-1.0,-0.04,0.32,-1.05,0.68,161.0,,,0.0,1.0,0.0,100.0
9660,1,walk,walk,5817,,5817.0,20.0,2.0,6.0,2.0,1.74,-0.009,-0.076,1.096,32.0,28.14,0.0,19.0,0.0,4.0,2.29,0.04,-1.0,-0.04,0.34,-1.04,0.67,161.0,,,0.0,1.0,0.0,100.0
9680,1,walk,walk,5818,,5818.0,20.0,2.0,6.0,2.0,1.74,-0.009,0.023,1.118,32.0,28.14,0.0,19.0,0.0,4.0,2.29,0.04,-1.0,-0.04,0.36,-1.04,0.65,161.0,,,0.0,1.0,0.0,100.0
9680,1,walk,walk,5819,,5819.0,20.0,2.0,6.0,2.0,1.74,-0.009,0.029,1.133,32.0,28.14,0.0,19.0,0.0,4.0,2.29,0.04,-1.0,-0.04,0.37,-1.03,0.64,161.0,,,0.0,1.0,0.0,100.0
9700,1,walk,walk,5820,,5820.0,20.0,2.0,6.0,2.0,1.73,-0.009,0.033,1.119,32.0,28.14,0.0,19.0,0.0,4.0,2.29,0.04,-1.0,-0.04,0.37,-1.04,0.64,161.0,,,0.0,1.0,0.0,100.0
9720,1,walk,walk,5821,,5821.0,20.0,2.0,6.0,2.0,1.73,-0.009,0.029,1.109,32.0,28.14,0.0,19.0,0.0,4.0,2.29,0.04,-1.0,-0.04,0.36,-1.04,0.64,161.0,,,0.0,1.0,0.0,100.0
9740,1,walk,walk,5822,,5822.0,20.0,2.0,6.0,2.0,1.73,-0.009,-0.025,1.099,32.0,28.14,0.0,19.0,0.0,4.0,2.29,0.04,-1.0,-0.04,0.35,-1.04,0.64,161.0,,,0.0,1.0,0.0,100.0
9760,1,walk,walk,5823,,5823.0,20.0,2.0,6.0,2.0,1.73,-0.009,0.018,1.102,32.0,28.14,0.0,19.0,0.0,4.0,2.29,0.04,-1.0,-0.04,0.34,-1.04,0.64,161.0,,,0.0,1.0,0.0,100.0
9780,1,walk,walk,5824,,5824.0,20.0,2.0,6.0,2.0,1.73,-0.009,0.044,1.114,32.0,28.14,0.0,19.0,0.0,4.0,2.29,0.04,-1.0,-0.04,0.32,-1.04,0.64,161.0,,,0.0,1.0,0.0,100.0
9820,1,walk,walk,5825,,5825.0,20.0,2.0,6.0,2.0,1.73,-0.009,-0.019,1.105,32.0,28.11,0.0,19.0,0.0,4.0,2.29,0.04,-1.0,-0.04,0.31,-1.04,0.64,161.0,,,0.0,1.0,0.0,100.0
9820,1,walk,walk,5826,,5826.0,20.0,2.0,6.0,2.0,1.72,-0.009,-0.014,1.105,32.0,28.14,0.0,19.0,0.0,4.0,2.29,0.04,-1.0,-0.04,0.3,-1.04,0.64,161.0,,,0.0,1.0,0.0,100.0
9840,1,walk,walk,5827,,5827.0,20.0,2.0,6.0,2.0,1.72,-0.009,-0.033,1.108,32.0,28.14,0.0,19.0,0.0,4.0,2.29,0.04,-1.0,-0.04,0.3,-1.06,0.64,161.0,,,0.0,1.0,0.0,100.0
9860,1,walk,walk,5828,,5828.0,20.0,2.0,6.0,2.0,1.72,-0.009,-0.096,1.113,32.0,28.14,0.0,19.0,0.0,4.0,2.29,0.04,-1.0,-0.04,0.29,-1.08,0.63,161.0,,,0.0,1.0,0.0,100.0
9880,1,walk,walk,5829,,5829.0,20.0,2.0,6.0,2.0,1.72,-0.009,0.042,1.114,32.0,28.14,0.0,19.0,0.0,4.0,2.3,0.04,-1.0,-0.04,0.29,-1.09,0.62,161.0,,,0.0,1.0,0.0,100.0
9900,1,walk,walk,5830,,5830.0,20.0,2.0,6.0,2.0,1.72,-0.009,0.022,1.111,32.0,28.14,0.0,19.0,0.0,4.0,2.3,0.04,-1.0,-0.04,0.29,-1.09,0.61,161.0,,,0.0,1.0,0.0,100.0
9920,1,walk,walk,5831,,5831.0,20.0,2.0,6.0,2.0,1.72,-0.009,-0.087,1.124,32.0,28.14,0.0,19.0,0.0,4.0,2.3,0.04,-1.0,-0.04,0.29,-1.08,0.6,161.0,,,0.0,1.0,0.0,100.0
9940,1,walk,walk,5832,,5832.0,20.0,2.0,6.0,2.0,1.72,-0.009,0.025,1.103,32.0,28.14,0.0,19.0,0.0,4.0,2.31,0.04,-1.0,-0.04,0.29,-1.07,0.6,161.0,,,0.0,1.0,0.0,100.0
9960,1,walk,walk,5833,,5833.0,20.0,2.0,6.0,2.0,1.72,-0.009,-0.001,1.091,32.0,28.14,0.0,19.0,0.0,4.0,2.31,0.04,-1.0,-0.04,0.28,-1.06,0.6,161.0,,,0.0,1.0,0.0,100.0
10000,1,walk,walk,5834,,5834.0,20.0,2.0,6.0,2.0,1.71,-0.009,0.025,1.101,32.0,28.14,0.0,19.0,0.0,4.0,2.31,0.04,-1.0,-0.04,0.28,-1.05,0.6,161.0,,,0.0,1.0,0.0,100.0
10000,1,walk,walk,5835,,5835.0,20.0,2.0,6.0,2.0,1.71,-0.009,-0.03,1.077,32.0,28.14,0.0,19.0,0.0,4.0,2.32,0.04,-1.0,-0.04,0.28,-1.04,0.59,161.0,,,0.0,1.0,0.0,100.0
10020,1,walk,walk,5836,,5836.0,20.0,2.0,6.0,2.0,1.71,-0.009,0.032,1.106,32.0,28.14,0.0,19.0,0.0,4.0,2.31,0.04,-1.0,-0.04,0.28,-1.03,0.58,161.0,,,0.0,1.0,0.0,100.0
10060,1,walk,walk,5837,,5837.0,20.0,2.0,6.0,2.0,1.71,-0.009,0.036,1.091,32.0,28.14,0.0,19.0,0.0,4.0,2.31,0.04,-1.0,-0.04,0.28,-1.02,0.56,161.0,,,0.0,1.0,0.0,100.0
10080,1,walk,walk,5838,,5838.0,20.0,2.0,6.0,2.0,1.71,-0.009,-0.077,1.103,32.0,28.14,0.0,19.0,0.0,4.0,2.31,0.04,-1.0,-0.04,0.29,-1.0,0.55,161.0,,,0.0,1.0,0.0,100.0
10100,1,walk,walk,5839,,5839.0,20.0,2.0,6.0,2.0,1.71,-0.009,-0.022,1.098,32.0,28.14,0.0,19.0,0.0,4.0,2.32,0.04,-1.0,-0.04,0.3,-0.99,0.54,161.0,,,0.0,1.0,0.0,100.0
10120,1,walk,walk,5840,,5840.0,20.0,2.0,6.0,2.0,1.71,-0.009,-0.005,1.097,32.0,28.14,0.0,19.0,0.0,4.0,2.32,0.04,-1.0,-0.04,0.32,-0.98,0.53,161.0,,,0.0,1.0,0.0,100.0
10140,1,walk,walk,5841,,5841.0,20.0,2.0,6.0,2.0,1.71,-0.009,0.036,1.103,32.0,28.14,0.0,19.0,0.0,4.0,2.32,0.04,-1.0,-0.04,0.34,-0.98,0.53,161.0,,,0.0,1.0,0.0,100.0
10180,1,walk,walk,5842,,5842.0,20.0,2.0,6.0,2.0,1.71,-0.009,-0.017,1.103,32.0,28.11,0.0,19.0,0.0,4.0,2.33,0.04,-1.0,-0.04,0.35,-0.99,0.53,161.0,,,0.0,1.0,0.0,100.0
10180,1,walk,walk,5843,,5843.0,20.0,2.0,6.0,2.0,1.71,-0.009,-0.115,1.085,32.0,28.11,0.0,19.0,0.0,4.0,2.33,0.04,-1.0,-0.04,0.37,-0.99,0.54,161.0,,,0.0,1.0,0.0,100.0
10180,1,walk,walk,5844,,5844.0,20.0,2.0,6.0,2.0,1.71,-0.009,0.03,1.108,32.0,28.14,0.0,19.0,0.0,4.0,2.34,0.04,-1.0,-0.04,0.39,-1.0,0.55,161.0,,,0.0,1.0,0.0,100.0
10200,1,walk,walk,5845,,5845.0,20.0,2.0,6.0,2.0,1.71,-0.009,-0.04,1.109,32.0,28.11,0.0,19.0,0.0,4.0,2.34,0.04,-1.0,-0.04,0.41,-1.01,0.55,161.0,,,0.0,1.0,0.0,100.0
10240,1,walk,walk,5846,,5846.0,20.0,2.0,6.0,2.0,1.71,-0.009,-0.025,1.094,32.0,28.11,0.0,19.0,0.0,4.0,2.34,0.04,-1.0,-0.04,0.43,-1.01,0.56,161.0,,,0.0,1.0,0.0,100.0
10240,1,walk,walk,5847,,5847.0,20.0,2.0,6.0,2.0,1.71,-0.009,0.015,1.096,32.0,28.14,0.0,19.0,0.0,4.0,2.34,0.04,-1.0,-0.04,0.44,-1.02,0.56,161.0,,,0.0,1.0,0.0,100.0
10260,1,walk,walk,5848,,5848.0,20.0,2.0,6.0,2.0,1.72,-0.009,-0.044,1.097,32.0,28.14,0.0,19.0,0.0,4.0,2.34,0.04,-1.0,-0.04,0.45,-1.02,0.57,161.0,,,0.0,1.0,0.0,100.0
10320,1,walk,walk,5849,,5849.0,20.0,2.0,6.0,2.0,1.72,-0.009,0.046,1.095,32.0,28.11,0.0,19.0,0.0,4.0,2.34,0.04,-1.0,-0.04,0.46,-1.02,0.57,161.0,,,0.0,1.0,0.0,100.0
10320,1,walk,walk,5850,,5850.0,20.0,2.0,6.0,2.0,1.72,-0.009,0.068,1.103,32.0,28.14,0.0,19.0,0.0,4.0,2.34,0.04,-1.0,-0.04,0.45,-1.02,0.58,161.0,,,0.0,1.0,0.0,100.0
10340,1,walk,walk,5851,,5851.0,20.0,2.0,6.0,2.0,1.72,-0.009,-0.019,1.104,32.0,28.14,0.0,19.0,0.0,4.0,2.34,0.04,-1.0,-0.04,0.44,-1.03,0.58,161.0,,,0.0,1.0,0.0,100.0
10360,1,walk,walk,5852,,5852.0,20.0,2.0,6.0,2.0,1.72,-0.009,0.075,1.093,32.0,28.14,0.0,19.0,0.0,4.0,2.34,0.04,-1.0,-0.04,0.43,-1.03,0.6,161.0,,,0.0,1.0,0.0,100.0
10380,1,walk,walk,5853,,5853.0,20.0,2.0,6.0,2.0,1.72,-0.009,0.011,1.116,32.0,28.14,0.0,19.0,0.0,4.0,2.35,0.04,-1.0,-0.04,0.42,-1.04,0.61,161.0,,,0.0,1.0,0.0,100.0
10380,1,walk,walk,5854,,5854.0,20.0,2.0,6.0,2.0,1.72,-0.009,0.029,1.119,32.0,28.14,0.0,19.0,0.0,4.0,2.35,0.04,-1.0,-0.04,0.41,-1.04,0.63,161.0,,,0.0,1.0,0.0,100.0
10420,1,walk,walk,5855,,5855.0,20.0,2.0,6.0,2.0,1.72,-0.009,-0.003,1.108,32.0,28.11,0.0,19.0,0.0,4.0,2.35,0.04,-1.0,-0.04,0.4,-1.06,0.64,161.0,,,0.0,1.0,0.0,100.0
10420,1,walk,walk,5856,,5856.0,20.0,2.0,6.0,2.0,1.72,-0.009,-0.052,1.084,32.0,28.14,0.0,19.0,0.0,4.0,2.35,0.04,-1.0,-0.04,0.39,-1.07,0.66,161.0,,,0.0,1.0,0.0,100.0
10440,1,walk,walk,5857,,5857.0,20.0,2.0,6.0,2.0,1.73,-0.009,0.023,1.086,32.0,28.14,0.0,19.0,0.0,4.0,2.35,0.04,-1.0,-0.04,0.38,-1.08,0.67,161.0,,,0.0,1.0,0.0,100.0
10480,1,walk,walk,5858,,5858.0,20.0,2.0,6.0,2.0,1.73,-0.009,0.018,1.106,32.0,28.14,0.0,19.0,0.0,4.0,2.34,0.04,-1.0,-0.04,0.37,-1.08,0.68,161.0,,,0.0,1.0,0.0,100.0
10480,1,walk,walk,5859,,5859.0,20.0,2.0,6.0,2.0,1.73,-0.009,-0.104,1.097,32.0,28.14,0.0,19.0,0.0,4.0,2.34,0.04,-1.0,-0.04,0.37,-1.07,0.69,161.0,,,0.0,1.0,0.0,100.0
10500,1,walk,walk,5860,,5860.0,20.0,2.0,6.0,2.0,1.73,-0.009,-0.04,1.104,32.0,28.14,0.0,19.0,0.0,4.0,2.34,0.04,-1.0,-0.04,0.37,-1.07,0.69,161.0,,,0.0,1.0,0.0,100.0
10520,1,walk,walk,5861,,5861.0,20.0,2.0,6.0,2.0,1.73,-0.009,-0.06,1.089,32.0,28.11,0.0,19.0,0.0,4.0,2.34,0.04,-1.0,-0.04,0.37,-1.06,0.68,161.0,,,0.0,1.0,0.0,100.0
10540,1,walk,walk,5862,,5862.0,20.0,2.0,6.0,2.0,1.73,-0.01,-0.091,1.088,32.0,28.14,0.0,19.0,0.0,4.0,2.34,0.04,-1.0,-0.04,0.37,-1.04,0.68,161.0,,,0.0,1.0,0.0,100.0
10560,1,walk,walk,5863,,5863.0,20.0,2.0,6.0,2.0,1.73,-0.009,-0.03,1.102,32.0,28.11,0.0,19.0,0.0,4.0,2.34,0.04,-1.0,-0.04,0.37,-1.03,0.67,161.0,,,0.0,1.0,0.0,100.0
10580,1,walk,walk,5864,,5864.0,20.0,2.0,6.0,2.0,1.73,-0.009,-0.028,1.114,32.0,28.14,0.0,19.0,0.0,4.0,2.34,0.04,-1.0,-0.04,0.37,-1.01,0.67,161.0,,,0.0,1.0,0.0,100.0
10620,1,walk,walk,5865,,5865.0,20.0,2.0,6.0,2.0,1.73,-0.009,0.005,1.12,32.0,28.14,0.0,19.0,0.0,4.0,2.33,0.04,-1.0,-0.04,0.36,-1.0,0.66,161.0,,,0.0,1.0,0.0,100.0
10640,1,walk,walk,5866,,5866.0,20.0,2.0,6.0,2.0,1.73,-0.009,0.01,1.087,32.0,28.14,0.0,19.0,0.0,4.0,2.33,0.04,-1.0,-0.04,0.36,-0.98,0.65,161.0,,,0.0,1.0,0.0,100.0
10640,1,walk,walk,5867,,5867.0,20.0,2.0,6.0,2.0,1.73,-0.009,0.005,1.098,32.0,28.14,0.0,19.0,0.0,4.0,2.33,0.04,-1.0,-0.04,0.35,-0.96,0.64,161.0,,,0.0,1.0,0.0,100.0
10660,1,walk,walk,5868,,5868.0,20.0,2.0,6.0,2.0,1.73,-0.009,-0.132,1.103,32.0,28.14,0.0,19.0,0.0,4.0,2.32,0.04,-1.0,-0.04,0.34,-0.95,0.63,161.0,,,0.0,1.0,0.0,100.0
10680,1,walk,walk,5869,,5869.0,20.0,2.0,6.0,2.0,1.73,-0.009,-0.03,1.065,32.0,28.14,0.0,19.0,0.0,4.0,2.32,0.04,-1.0,-0.04,0.32,-0.94,0.61,161.0,,,0.0,1.0,0.0,100.0
10720,1,walk,walk,5870,,5870.0,20.0,2.0,6.0,2.0,1.73,-0.009,-0.028,1.092,32.0,28.14,0.0,19.0,0.0,4.0,2.31,0.04,-1.0,-0.04,0.31,-0.93,0.59,161.0,,,0.0,1.0,0.0,100.0
10720,1,walk,walk,5871,,5871.0,20.0,2.0,6.0,2.0,1.73,-0.009,-0.005,1.082,32.0,28.11,0.0,19.0,0.0,4.0,2.31,0.04,-1.0,-0.04,0.29,-0.93,0.56,161.0,,,0.0,1.0,0.0,100.0
10740,1,walk,walk,5872,,5872.0,20.0,2.0,6.0,2.0,1.73,-0.009,0.015,1.068,32.0,28.14,0.0,19.0,0.0,4.0,2.31,0.04,-1.0,-0.04,0.28,-0.93,0.53,161.0,,,0.0,1.0,0.0,100.0
10800,1,walk,walk,5873,,5873.0,20.0,2.0,6.0,2.0,1.72,-0.009,-0.005,1.075,32.0,28.14,0.0,19.0,0.0,4.0,2.31,0.04,-1.0,-0.04,0.26,-0.92,0.5,161.0,,,0.0,1.0,0.0,100.0
10800,1,walk,walk,5874,,5874.0,20.0,2.0,6.0,2.0,1.72,-0.009,-0.03,1.105,32.0,28.14,0.0,19.0,0.0,4.0,2.31,0.04,-1.0,-0.04,0.24,-0.92,0.49,161.0,,,0.0,1.0,0.0,100.0
10800,1,walk,walk,5875,,5875.0,20.0,2.0,6.0,2.0,1.72,-0.009,0.032,1.071,32.0,28.14,0.0,19.0,0.0,4.0,2.31,0.04,-1.0,-0.04,0.23,-0.93,0.48,161.0,,,0.0,1.0,0.0,100.0
10840,1,walk,walk,5876,,5876.0,20.0,2.0,6.0,2.0,1.72,-0.009,0.007,1.111,32.0,28.14,0.0,19.0,0.0,4.0,2.32,0.04,-1.0,-0.04,0.23,-0.93,0.47,161.0,,,0.0,1.0,0.0,100.0
10840,1,walk,walk,5877,,5877.0,20.0,2.0,6.0,2.0,1.72,-0.009,0.046,1.109,32.0,28.14,0.0,19.0,0.0,4.0,2.32,0.04,-1.0,-0.04,0.23,-0.94,0.48,161.0,,,0.0,1.0,0.0,100.0
10860,1,walk,walk,5878,,5878.0,20.0,2.0,6.0,2.0,1.72,-0.009,0.052,1.088,32.0,28.14,0.0,19.0,0.0,4.0,2.32,0.04,-1.0,-0.04,0.23,-0.95,0.49,161.0,,,0.0,1.0,0.0,100.0
10880,1,walk,walk,5879,,5879.0,20.0,2.0,6.0,2.0,1.73,-0.009,0.018,1.081,32.0,28.11,0.0,19.0,0.0,4.0,2.32,0.04,-1.0,-0.04,0.24,-0.96,0.5,161.0,,,0.0,1.0,0.0,100.0
10900,1,walk,walk,5880,,5880.0,20.0,2.0,6.0,2.0,1.73,-0.009,-0.097,1.072,32.0,28.14,0.0,19.0,0.0,4.0,2.33,0.04,-1.0,-0.04,0.24,-0.96,0.52,161.0,,,0.0,1.0,0.0,100.0
10920,1,walk,walk,5881,,5881.0,20.0,2.0,6.0,2.0,1.73,-0.009,0.009,1.098,32.0,28.14,0.0,19.0,0.0,4.0,2.33,0.04,-1.0,-0.04,0.25,-0.96,0.54,161.0,,,0.0,1.0,0.0,100.0
10960,1,walk,walk,5882,,5882.0,20.0,2.0,6.0,2.0,1.73,-0.009,-0.015,1.076,32.0,28.11,0.0,19.0,0.0,4.0,2.33,0.04,-1.0,-0.04,0.25,-0.97,0.55,161.0,,,0.0,1.0,0.0,100.0
10960,1,walk,walk,5883,,5883.0,20.0,2.0,6.0,2.0,1.73,-0.009,-0.006,1.089,32.0,28.14,0.0,19.0,0.0,4.0,2.33,0.04,-1.0,-0.04,0.25,-0.96,0.56,161.0,,,0.0,1.0,0.0,100.0
10980,1,walk,walk,5884,,5884.0,20.0,2.0,6.0,2.0,1.73,-0.009,-0.025,1.096,32.0,28.14,0.0,19.0,0.0,4.0,2.34,0.04,-1.0,-0.04,0.25,-0.96,0.56,161.0,,,0.0,1.0,0.0,100.0
11040,1,walk,walk,5885,,5885.0,20.0,2.0,6.0,2.0,1.73,-0.009,-0.111,1.079,32.0,28.14,0.0,19.0,0.0,4.0,2.34,0.04,-1.0,-0.04,0.24,-0.94,0.56,161.0,,,0.0,1.0,0.0,100.0
11040,1,walk,walk,5886,,5886.0,20.0,2.0,6.0,2.0,1.73,-0.009,-0.034,1.089,32.0,28.14,0.0,19.0,0.0,4.0,2.34,0.04,-1.0,-0.04,0.23,-0.93,0.56,161.0,,,0.0,1.0,0.0,100.0
11040,1,walk,walk,5887,,5887.0,20.0,2.0,6.0,2.0,1.73,-0.009,-0.001,1.096,32.0,28.14,0.0,19.0,0.0,4.0,2.35,0.04,-1.0,-0.04,0.22,-0.92,0.55,161.0,,,0.0,1.0,0.0,100.0
11080,1,walk,walk,5888,,5888.0,20.0,2.0,6.0,2.0,1.74,-0.009,-0.084,1.084,32.0,28.14,0.0,19.0,0.0,4.0,2.35,0.04,-1.0,-0.04,0.21,-0.91,0.55,161.0,,,0.0,1.0,0.0,100.0
11100,1,walk,walk,5889,,5889.0,20.0,2.0,6.0,2.0,1.74,-0.009,0.019,1.076,32.0,28.14,0.0,19.0,0.0,4.0,2.36,0.04,-1.0,-0.04,0.2,-0.9,0.54,161.0,,,0.0,1.0,0.0,100.0
11120,1,walk,walk,5890,,5890.0,20.0,2.0,6.0,2.0,1.74,-0.009,-0.079,1.098,32.0,28.14,0.0,19.0,0.0,4.0,2.36,0.04,-1.0,-0.04,0.19,-0.9,0.53,161.0,,,0.0,1.0,0.0,100.0
11140,1,walk,walk,5891,,5891.0,20.0,2.0,6.0,2.0,1.74,-0.009,-0.036,1.089,32.0,28.14,0.0,19.0,0.0,4.0,2.37,0.04,-1.0,-0.04,0.19,-0.9,0.52,161.0,,,0.0,1.0,0.0,100.0
11140,1,walk,walk,5892,,5892.0,20.0,2.0,6.0,2.0,1.74,-0.009,0.005,1.073,32.0,28.11,0.0,19.0,0.0,4.0,2.37,0.04,-1.0,-0.04,0.18,-0.9,0.52,161.0,,,0.0,1.0,0.0,100.0
11160,1,walk,walk,5893,,5893.0,20.0,2.0,6.0,2.0,1.74,-0.009,-0.041,1.069,32.0,28.14,0.0,19.0,0.0,4.0,2.37,0.04,-1.0,-0.04,0.19,-0.91,0.5,161.0,,,0.0,1.0,0.0,100.0
11180,1,walk,walk,5894,,5894.0,20.0,2.0,6.0,2.0,1.74,-0.009,-0.009,1.085,32.0,28.14,0.0,19.0,0.0,4.0,2.38,0.04,-1.0,-0.04,0.19,-0.92,0.49,161.0,,,0.0,1.0,0.0,100.0
11200,1,walk,walk,5895,,5895.0,20.0,2.0,6.0,2.0,1.74,-0.009,0.022,1.082,32.0,28.11,0.0,19.0,0.0,4.0,2.38,0.04,-1.0,-0.04,0.2,-0.93,0.48,161.0,,,0.0,1.0,0.0,100.0
11220,1,walk,walk,5896,,5896.0,20.0,2.0,6.0,2.0,1.75,-0.009,-0.028,1.108,32.0,28.14,0.0,19.0,0.0,4.0,2.39,0.04,-1.0,-0.04,0.21,-0.94,0.48,161.0,,,0.0,1.0,0.0,100.0
11280,1,walk,walk,5897,,5897.0,20.0,2.0,6.0,2.0,1.75,-0.009,0.003,1.07,32.0,28.14,0.0,19.0,0.0,4.0,2.39,0.04,-1.0,-0.04,0.22,-0.95,0.48,161.0,,,0.0,1.0,0.0,100.0
11280,1,walk,walk,5898,,5898.0,20.0,2.0,6.0,2.0,1.75,-0.009,-0.052,1.087,32.0,28.11,0.0,19.0,0.0,4.0,2.4,0.04,-1.0,-0.04,0.22,-0.96,0.48,161.0,,,0.0,1.0,0.0,100.0
11280,1,walk,walk,5899,,5899.0,20.0,2.0,6.0,2.0,1.75,-0.009,0.058,1.073,32.0,28.14,0.0,19.0,0.0,4.0,2.4,0.04,-1.0,-0.04,0.23,-0.96,0.49,161.0,,,0.0,1.0,0.0,100.0
11320,1,walk,walk,5900,,5900.0,20.0,2.0,6.0,2.0,1.75,-0.009,0.066,1.076,32.0,28.14,0.0,19.0,0.0,4.0,2.4,0.04,-1.0,-0.04,0.23,-0.96,0.5,161.0,,,0.0,1.0,0.0,100.0
11340,1,walk,walk,5901,,5901.0,20.0,2.0,6.0,2.0,1.76,-0.009,-0.085,1.059,32.0,28.14,0.0,19.0,0.0,4.0,2.4,0.04,-1.0,-0.04,0.23,-0.96,0.52,161.0,,,0.0,1.0,0.0,100.0
11340,1,walk,walk,5902,,5902.0,20.0,2.0,6.0,2.0,1.76,-0.009,0.028,1.085,32.0,28.11,0.0,19.0,0.0,4.0,2.41,0.04,-1.0,-0.04,0.22,-0.96,0.54,161.0,,,0.0,1.0,0.0,100.0
11360,1,walk,walk,5903,,5903.0,20.0,2.0,6.0,2.0,1.76,-0.009,0.034,1.063,32.0,28.14,0.0,19.0,0.0,4.0,2.41,0.04,-1.0,-0.04,0.22,-0.97,0.56,161.0,,,0.0,1.0,0.0,100.0
11400,1,walk,walk,5904,,5904.0,20.0,2.0,6.0,2.0,1.76,-0.009,-0.058,1.099,32.0,28.14,0.0,19.0,0.0,4.0,2.41,0.04,-1.0,-0.04,0.21,-0.97,0.57,161.0,,,0.0,1.0,0.0,100.0
11420,1,walk,walk,5905,,5905.0,20.0,2.0,6.0,2.0,1.76,-0.009,0.05,1.074,32.0,28.11,0.0,19.0,0.0,4.0,2.4,0.04,-1.0,-0.04,0.2,-0.98,0.59,161.0,,,0.0,1.0,0.0,100.0
11460,1,walk,walk,5906,,5906.0,20.0,2.0,6.0,2.0,1.77,-0.009,0.037,1.068,32.0,28.14,0.0,19.0,0.0,4.0,2.4,0.04,-1.0,-0.04,0.18,-1.0,0.6,161.0,,,0.0,1.0,0.0,100.0
11460,1,walk,walk,5907,,5907.0,20.0,2.0,6.0,2.0,1.77,-0.009,-0.06,1.089,32.0,28.14,0.0,19.0,0.0,4.0,2.4,0.04,-1.0,-0.04,0.17,-1.02,0.62,161.0,,,0.0,1.0,0.0,100.0
11480,1,walk,walk,5908,,5908.0,20.0,2.0,6.0,2.0,1.77,-0.009,0.054,1.082,32.0,28.14,0.0,19.0,0.0,4.0,2.39,0.04,-1.0,-0.04,0.17,-1.03,0.63,161.0,,,0.0,1.0,0.0,100.0
11500,1,walk,walk,5909,,5909.0,20.0,2.0,6.0,2.0,1.77,-0.009,-0.023,1.091,32.0,28.14,0.0,19.0,0.0,4.0,2.39,0.04,-1.0,-0.04,0.17,-1.04,0.64,161.0,,,0.0,1.0,0.0,100.0
11500,1,walk,walk,5910,,5910.0,20.0,2.0,6.0,2.0,1.77,-0.009,0.073,1.066,32.0,28.14,0.0,19.0,0.0,4.0,2.38,0.04,-1.0,-0.04,0.17,-1.05,0.65,161.0,,,0.0,1.0,0.0,100.0
11520,1,walk,walk,5911,,5911.0,20.0,2.0,6.0,2.0,1.78,-0.009,0.018,1.088,32.0,28.14,0.0,19.0,0.0,4.0,2.38,0.04,-1.0,-0.04,0.17,-1.06,0.66,161.0,,,0.0,1.0,0.0,100.0
11560,1,walk,walk,5912,,5912.0,20.0,2.0,6.0,2.0,1.78,-0.009,0.019,1.089,32.0,28.14,0.0,19.0,0.0,4.0,2.37,0.04,-1.0,-0.04,0.18,-1.06,0.67,161.0,,,0.0,1.0,0.0,100.0
11560,1,walk,walk,5913,,5913.0,20.0,2.0,6.0,2.0,1.78,-0.009,0.07,1.069,32.0,28.14,0.0,19.0,0.0,4.0,2.37,0.04,-1.0,-0.04,0.18,-1.06,0.68,161.0,,,0.0,1.0,0.0,100.0
11580,1,walk,walk,5914,,5914.0,20.0,2.0,6.0,2.0,1.78,-0.009,0.028,1.081,32.0,28.14,0.0,19.0,0.0,4.0,2.36,0.04,-1.0,-0.04,0.18,-1.06,0.7,161.0,,,0.0,1.0,0.0,100.0
11620,1,walk,walk,5915,,5915.0,20.0,2.0,6.0,2.0,1.78,-0.009,0.06,1.1,32.0,28.14,0.0,19.0,0.0,4.0,2.35,0.04,-1.0,-0.04,0.19,-1.05,0.7,161.0,,,0.0,1.0,0.0,100.0
11620,1,walk,walk,5916,,5916.0,20.0,2.0,6.0,2.0,1.78,-0.009,0.038,1.08,32.0,28.14,0.0,19.0,0.0,4.0,2.35,0.04,-1.0,-0.04,0.21,-1.05,0.7,161.0,,,0.0,1.0,0.0,100.0
11640,1,walk,walk,5917,,5917.0,20.0,2.0,6.0,2.0,1.78,-0.009,0.048,1.101,32.0,28.14,0.0,19.0,0.0,4.0,2.34,0.04,-1.0,-0.04,0.23,-1.04,0.7,161.0,,,0.0,1.0,0.0,100.0
11680,1,walk,walk,5918,,5918.0,20.0,2.0,6.0,2.0,1.78,-0.009,-0.015,1.09,32.0,28.14,0.0,19.0,0.0,4.0,2.34,0.04,-1.0,-0.04,0.25,-1.03,0.69,161.0,,,0.0,1.0,0.0,100.0
11680,1,walk,walk,5919,,5919.0,20.0,2.0,6.0,2.0,1.78,-0.009,0.038,1.096,32.0,28.14,0.0,19.0,0.0,4.0,2.34,0.04,-1.0,-0.04,0.28,-1.03,0.67,161.0,,,0.0,1.0,0.0,100.0
11700,1,walk,walk,5920,,5920.0,20.0,2.0,6.0,2.0,1.78,-0.009,0.034,1.059,32.0,28.14,0.0,19.0,0.0,4.0,2.34,0.04,-1.0,-0.04,0.31,-1.02,0.65,161.0,,,0.0,1.0,0.0,100.0
11740,1,walk,walk,5921,,5921.0,20.0,2.0,6.0,2.0,1.78,-0.009,0.006,1.088,32.0,28.14,0.0,19.0,0.0,4.0,2.34,0.04,-1.0,-0.04,0.34,-1.01,0.64,161.0,,,0.0,1.0,0.0,100.0
11780,1,walk,walk,5922,,5922.0,20.0,2.0,6.0,2.0,1.78,-0.009,-0.005,1.09,32.0,28.14,0.0,19.0,0.0,4.0,2.35,0.04,-1.0,-0.04,0.36,-1.01,0.63,161.0,,,0.0,1.0,0.0,100.0
11780,1,walk,walk,5923,,5923.0,20.0,2.0,6.0,2.0,1.78,-0.009,0.032,1.101,32.0,28.14,0.0,19.0,0.0,4.0,2.36,0.04,-1.0,-0.04,0.37,-1.01,0.63,161.0,,,0.0,1.0,0.0,100.0
11800,1,walk,walk,5924,,5924.0,20.0,2.0,6.0,2.0,1.78,-0.009,-0.018,1.102,32.0,28.14,0.0,19.0,0.0,4.0,2.36,0.04,-1.0,-0.04,0.37,-1.02,0.65,161.0,,,0.0,1.0,0.0,100.0
11800,1,walk,walk,5925,,5925.0,20.0,2.0,6.0,2.0,1.78,-0.009,0.057,1.106,32.0,28.14,0.0,19.0,0.0,4.0,2.37,0.04,-1.0,-0.04,0.37,-1.03,0.67,161.0,,,0.0,1.0,0.0,100.0
11820,1,walk,walk,5926,,5926.0,20.0,2.0,6.0,2.0,1.77,-0.009,0.032,1.111,32.0,28.14,0.0,19.0,0.0,4.0,2.37,0.04,-1.0,-0.04,0.36,-1.04,0.7,161.0,,,0.0,1.0,0.0,100.0
11840,1,walk,walk,5927,,5927.0,20.0,2.0,6.0,2.0,1.77,-0.009,0.079,1.076,32.0,28.14,0.0,19.0,0.0,4.0,2.38,0.04,-1.0,-0.04,0.35,-1.05,0.72,161.0,,,0.0,1.0,0.0,100.0
11880,1,walk,walk,5928,,5928.0,20.0,2.0,6.0,2.0,1.77,-0.009,0.034,1.101,32.0,28.14,0.0,19.0,0.0,4.0,2.37,0.04,-1.0,-0.04,0.34,-1.06,0.74,161.0,,,0.0,1.0,0.0,100.0
11900,1,walk,walk,5929,,5929.0,20.0,2.0,6.0,2.0,1.77,-0.009,0.018,1.109,32.0,28.14,0.0,19.0,0.0,4.0,2.37,0.04,-1.0,-0.04,0.33,-1.07,0.75,161.0,,,0.0,1.0,0.0,100.0
11920,1,walk,walk,5930,,5930.0,20.0,2.0,6.0,2.0,1.77,-0.009,-0.002,1.104,32.0,28.14,0.0,19.0,0.0,4.0,2.37,0.04,-1.0,-0.04,0.32,-1.08,0.75,161.0,,,0.0,1.0,0.0,100.0
11940,1,walk,walk,5931,,5931.0,20.0,2.0,6.0,2.0,1.77,-0.009,-0.056,1.095,32.0,28.14,0.0,19.0,0.0,4.0,2.36,0.04,-1.0,-0.04,0.32,-1.09,0.75,161.0,,,0.0,1.0,0.0,100.0
11940,1,walk,walk,5932,,5932.0,20.0,2.0,6.0,2.0,1.77,-0.009,-0.023,1.081,32.0,28.14,0.0,19.0,0.0,4.0,2.35,0.04,-1.0,-0.04,0.31,-1.09,0.74,161.0,,,0.0,1.0,0.0,100.0
12020,1,walk,walk,5933,,5933.0,20.0,2.0,6.0,2.0,1.77,-0.009,0.002,1.09,32.0,28.14,0.0,19.0,0.0,4.0,2.35,0.04,-1.0,-0.04,0.31,-1.09,0.73,161.0,,,0.0,1.0,0.0,100.0
12020,1,walk,walk,5934,,5934.0,20.0,2.0,6.0,2.0,1.76,-0.009,-0.025,1.108,32.0,28.14,0.0,19.0,0.0,4.0,2.34,0.04,-1.0,-0.04,0.31,-1.08,0.72,161.0,,,0.0,1.0,0.0,100.0
12020,1,walk,walk,5935,,5935.0,20.0,2.0,6.0,2.0,1.76,-0.009,0.015,1.092,32.0,28.14,0.0,19.0,0.0,4.0,2.34,0.04,-1.0,-0.04,0.31,-1.07,0.7,161.0,,,0.0,1.0,0.0,100.0
12040,1,walk,walk,5936,,5936.0,20.0,2.0,6.0,2.0,1.76,-0.009,-0.03,1.104,32.0,28.14,0.0,19.0,0.0,4.0,2.33,0.04,-1.0,-0.04,0.32,-1.06,0.68,161.0,,,0.0,1.0,0.0,100.0
12040,1,walk,walk,5937,,5937.0,20.0,2.0,6.0,2.0,1.76,-0.009,0.076,1.065,32.0,28.14,0.0,19.0,0.0,4.0,2.32,0.04,-1.0,-0.04,0.33,-1.04,0.66,161.0,,,0.0,1.0,0.0,100.0
12060,1,walk,walk,5938,,5938.0,20.0,2.0,6.0,2.0,1.76,-0.009,0.032,1.101,32.0,28.11,0.0,19.0,0.0,4.0,2.32,0.04,-1.0,-0.04,0.33,-1.02,0.62,161.0,,,0.0,1.0,0.0,100.0
12120,1,walk,walk,5939,,5939.0,20.0,2.0,6.0,2.0,1.76,-0.009,-0.06,1.07,32.0,28.14,0.0,19.0,0.0,4.0,2.31,0.04,-1.0,-0.04,0.34,-0.99,0.59,161.0,,,0.0,1.0,0.0,100.0
12140,1,walk,walk,5940,,5940.0,20.0,2.0,6.0,2.0,1.75,-0.009,0.001,1.085,32.0,28.14,0.0,19.0,0.0,4.0,2.31,0.04,-1.0,-0.04,0.34,-0.96,0.56,161.0,,,0.0,1.0,0.0,100.0
12140,1,walk,walk,5941,,5941.0,20.0,2.0,6.0,2.0,1.75,-0.009,-0.006,1.077,32.0,28.14,0.0,19.0,0.0,4.0,2.31,0.04,-1.0,-0.04,0.34,-0.94,0.53,161.0,,,0.0,1.0,0.0,100.0
12160,1,walk,walk,5942,,5942.0,20.0,2.0,6.0,2.0,1.75,-0.009,0.033,1.095,32.0,28.14,0.0,19.0,0.0,4.0,2.32,0.04,-1.0,-0.04,0.34,-0.93,0.52,161.0,,,0.0,1.0,0.0,100.0
12180,1,walk,walk,5943,,5943.0,20.0,2.0,6.0,2.0,1.75,-0.009,0.091,1.084,32.0,28.14,0.0,19.0,0.0,4.0,2.32,0.04,-1.0,-0.04,0.33,-0.92,0.51,161.0,,,0.0,1.0,0.0,100.0
12180,1,walk,walk,5944,,5944.0,20.0,2.0,6.0,2.0,1.75,-0.009,-0.046,1.092,32.0,28.14,0.0,19.0,0.0,4.0,2.33,0.04,-1.0,-0.04,0.32,-0.91,0.51,161.0,,,0.0,1.0,0.0,100.0
12220,1,walk,walk,5945,,5945.0,20.0,2.0,6.0,2.0,1.75,-0.009,-0.019,1.117,32.0,28.14,0.0,19.0,0.0,4.0,2.33,0.04,-1.0,-0.04,0.3,-0.91,0.52,161.0,,,0.0,1.0,0.0,100.0
12220,1,walk,walk,5946,,5946.0,20.0,2.0,6.0,2.0,1.75,-0.009,0.009,1.089,32.0,28.14,0.0,19.0,0.0,4.0,2.34,0.04,-1.0,-0.04,0.27,-0.92,0.53,161.0,,,0.0,1.0,0.0,100.0
12260,1,walk,walk,5947,,5947.0,20.0,2.0,6.0,2.0,1.75,-0.009,-0.077,1.074,32.0,28.14,0.0,19.0,0.0,4.0,2.34,0.04,-1.0,-0.04,0.25,-0.93,0.56,161.0,,,0.0,1.0,0.0,100.0
12280,1,walk,walk,5948,,5948.0,20.0,2.0,6.0,2.0,1.74,-0.009,-0.028,1.102,32.0,28.14,0.0,19.0,0.0,4.0,2.35,0.04,-1.0,-0.04,0.22,-0.94,0.58,161.0,,,0.0,1.0,0.0,100.0
12300,1,walk,walk,5949,,5949.0,20.0,2.0,6.0,2.0,1.74,-0.009,0.033,1.118,32.0,28.14,0.0,19.0,0.0,4.0,2.35,0.04,-1.0,-0.04,0.19,-0.96,0.61,161.0,,,0.0,1.0,0.0,100.0
12300,1,walk,walk,5950,,5950.0,20.0,2.0,6.0,2.0,1.74,-0.009,-0.025,1.088,32.0,28.11,0.0,19.0,0.0,4.0,2.35,0.04,-1.0,-0.04,0.17,-0.97,0.63,161.0,,,0.0,1.0,0.0,100.0
12340,1,walk,walk,5951,,5951.0,20.0,2.0,6.0,2.0,1.74,-0.009,-0.066,1.072,32.0,28.11,0.0,19.0,0.0,4.0,2.35,0.04,-1.0,-0.04,0.15,-0.98,0.65,161.0,,,0.0,1.0,0.0,100.0
12340,1,walk,walk,5952,,5952.0,20.0,2.0,6.0,2.0,1.75,-0.009,0.038,1.095,32.0,28.11,0.0,19.0,0.0,4.0,2.35,0.04,-1.0,-0.04,0.13,-0.99,0.66,161.0,,,0.0,1.0,0.0,100.0
12360,1,walk,walk,5953,,5953.0,20.0,2.0,6.0,2.0,1.75,-0.009,0.005,1.127,32.0,28.14,0.0,19.0,0.0,4.0,2.35,0.04,-1.0,-0.04,0.11,-1.0,0.68,161.0,,,0.0,1.0,0.0,100.0
12400,1,walk,walk,5954,,5954.0,20.0,2.0,6.0,2.0,1.75,-0.009,-0.038,1.102,32.0,28.11,0.0,19.0,0.0,4.0,2.35,0.04,-1.0,-0.04,0.09,-1.01,0.69,161.0,,,0.0,1.0,0.0,100.0
12420,1,walk,walk,5955,,5955.0,20.0,2.0,6.0,2.0,1.75,-0.009,-0.163,1.098,32.0,28.14,0.0,19.0,0.0,4.0,2.35,0.04,-1.0,-0.04,0.07,-1.02,0.71,161.0,,,0.0,1.0,0.0,100.0
12440,1,walk,walk,5956,,5956.0,20.0,2.0,6.0,2.0,1.75,-0.009,0.053,1.082,32.0,28.14,0.0,19.0,0.0,4.0,2.35,0.04,-1.0,-0.04,0.05,-1.03,0.72,161.0,,,0.0,1.0,0.0,100.0
12440,1,walk,walk,5957,,5957.0,20.0,2.0,6.0,2.0,1.75,-0.009,0.014,1.078,32.0,28.14,0.0,19.0,0.0,4.0,2.35,0.04,-1.0,-0.04,0.03,-1.03,0.74,161.0,,,0.0,1.0,0.0,100.0
12460,1,walk,walk,5958,,5958.0,20.0,2.0,6.0,2.0,1.75,-0.009,-0.005,1.092,32.0,28.11,0.0,19.0,0.0,4.0,2.35,0.04,-1.0,-0.04,0.03,-1.04,0.75,161.0,,,0.0,1.0,0.0,100.0
12480,1,walk,walk,5959,,5959.0,20.0,2.0,6.0,2.0,1.75,-0.009,-0.044,1.124,32.0,28.14,0.0,19.0,0.0,4.0,2.34,0.04,-1.0,-0.04,0.03,-1.05,0.75,161.0,,,0.0,1.0,0.0,100.0
12520,1,walk,walk,5960,,5960.0,20.0,2.0,6.0,2.0,1.74,-0.009,0.014,1.073,32.0,28.14,0.0,19.0,0.0,4.0,2.34,0.04,-1.0,-0.04,0.03,-1.05,0.74,161.0,,,0.0,1.0,0.0,100.0
12520,1,walk,walk,5961,,5961.0,20.0,2.0,6.0,2.0,1.74,-0.009,-0.06,1.083,32.0,28.11,0.0,19.0,0.0,4.0,2.33,0.04,-1.0,-0.04,0.05,-1.05,0.73,161.0,,,0.0,1.0,0.0,100.0
12540,1,walk,walk,5962,,5962.0,20.0,2.0,6.0,2.0,1.74,-0.009,0.002,1.095,32.0,28.14,0.0,19.0,0.0,4.0,2.32,0.04,-1.0,-0.04,0.07,-1.05,0.7,161.0,,,0.0,1.0,0.0,100.0
12580,1,walk,walk,5963,,5963.0,20.0,2.0,6.0,2.0,1.74,-0.009,-0.042,1.098,32.0,28.14,0.0,19.0,0.0,4.0,2.32,0.04,-1.0,-0.04,0.09,-1.05,0.68,161.0,,,0.0,1.0,0.0,100.0
12600,1,walk,walk,5964,,5964.0,20.0,2.0,6.0,2.0,1.74,-0.009,-0.015,1.075,32.0,28.14,0.0,19.0,0.0,4.0,2.31,0.04,-1.0,-0.04,0.12,-1.05,0.66,161.0,,,0.0,1.0,0.0,100.0
12620,1,walk,walk,5965,,5965.0,20.0,2.0,6.0,2.0,1.74,-0.009,0.05,1.093,32.0,28.11,0.0,19.0,0.0,4.0,2.31,0.04,-1.0,-0.04,0.15,-1.04,0.65,161.0,,,0.0,1.0,0.0,100.0
12640,1,walk,walk,5966,,5966.0,20.0,2.0,6.0,2.0,1.74,-0.009,0.062,1.105,32.0,28.14,0.0,19.0,0.0,4.0,2.31,0.04,-1.0,-0.04,0.17,-1.04,0.65,161.0,,,0.0,1.0,0.0,100.0
12640,1,walk,walk,5967,,5967.0,20.0,2.0,6.0,2.0,1.74,-0.009,-0.011,1.098,32.0,28.11,0.0,19.0,0.0,4.0,2.3,0.04,-1.0,-0.04,0.19,-1.03,0.66,161.0,,,0.0,1.0,0.0,100.0
12660,1,walk,walk,5968,,5968.0,20.0,2.0,6.0,2.0,1.74,-0.009,-0.037,1.092,32.0,28.14,0.0,19.0,0.0,4.0,2.3,0.04,-1.0,-0.04,0.21,-1.02,0.67,161.0,,,0.0,1.0,0.0,100.0
12680,1,walk,walk,5969,,5969.0,20.0,2.0,6.0,2.0,1.73,-0.009,0.072,1.08,32.0,28.14,0.0,19.0,0.0,4.0,2.3,0.04,-1.0,-0.04,0.23,-1.02,0.69,161.0,,,0.0,1.0,0.0,100.0
12720,1,walk,walk,5970,,5970.0,20.0,2.0,6.0,2.0,1.73,-0.009,0.04,1.096,32.0,28.14,0.0,19.0,0.0,4.0,2.3,0.04,-1.0,-0.04,0.24,-1.02,0.71,161.0,,,0.0,1.0,0.0,100.0
12760,1,walk,walk,5971,,5971.0,20.0,2.0,6.0,2.0,1.73,-0.009,-0.015,1.093,32.0,28.14,0.0,19.0,0.0,4.0,2.29,0.04,-1.0,-0.04,0.24,-1.02,0.73,161.0,,,0.0,1.0,0.0,100.0
12780,1,walk,walk,5972,,5972.0,20.0,2.0,6.0,2.0,1.73,-0.009,0.04,1.103,32.0,28.14,0.0,19.0,0.0,4.0,2.29,0.04,-1.0,-0.04,0.25,-1.03,0.75,161.0,,,0.0,1.0,0.0,100.0
12780,1,walk,walk,5973,,5973.0,20.0,2.0,6.0,2.0,1.73,-0.009,0.022,1.091,32.0,28.11,0.0,19.0,0.0,4.0,2.28,0.04,-1.0,-0.04,0.25,-1.05,0.76,161.0,,,0.0,1.0,0.0,100.0
12800,1,walk,walk,5974,,5974.0,20.0,2.0,6.0,2.0,1.73,-0.009,-0.013,1.093,32.0,28.14,0.0,19.0,0.0,4.0,2.28,0.04,-1.0,-0.04,0.25,-1.06,0.77,161.0,,,0.0,1.0,0.0,100.0
12820,1,walk,walk,5975,,5975.0,20.0,2.0,6.0,2.0,1.72,-0.009,0.036,1.105,32.0,28.11,0.0,19.0,0.0,4.0,2.27,0.04,-1.0,-0.04,0.25,-1.06,0.78,161.0,,,0.0,1.0,0.0,100.0
12820,1,walk,walk,5976,,5976.0,20.0,2.0,6.0,2.0,1.72,-0.009,0.003,1.113,32.0,28.14,0.0,19.0,0.0,4.0,2.27,0.04,-1.0,-0.04,0.24,-1.07,0.78,161.0,,,0.0,1.0,0.0,100.0
12840,1,walk,walk,5977,,5977.0,20.0,2.0,6.0,2.0,1.72,-0.009,0.092,1.102,32.0,28.14,0.0,19.0,0.0,4.0,2.27,0.04,-1.0,-0.04,0.24,-1.07,0.77,161.0,,,0.0,1.0,0.0,100.0
12880,1,walk,walk,5978,,5978.0,20.0,2.0,6.0,2.0,1.72,-0.01,0.003,1.084,32.0,28.14,0.0,19.0,0.0,4.0,2.26,0.04,-1.0,-0.04,0.24,-1.07,0.76,161.0,,,0.0,1.0,0.0,100.0
12880,1,walk,walk,5979,,5979.0,20.0,2.0,6.0,2.0,1.71,-0.009,-0.003,1.107,32.0,28.14,0.0,19.0,0.0,4.0,2.26,0.04,-1.0,-0.04,0.24,-1.08,0.75,161.0,,,0.0,1.0,0.0,100.0
12900,1,walk,walk,5980,,5980.0,20.0,2.0,6.0,2.0,1.71,-0.009,-0.03,1.11,32.0,28.14,0.0,19.0,0.0,4.0,2.26,0.04,-1.0,-0.04,0.25,-1.08,0.74,161.0,,,0.0,1.0,0.0,100.0
12960,1,walk,walk,5981,,5981.0,20.0,2.0,6.0,2.0,1.71,-0.009,-0.006,1.101,32.0,28.14,0.0,19.0,0.0,4.0,2.25,0.04,-1.0,-0.04,0.25,-1.07,0.73,161.0,,,0.0,1.0,0.0,100.0
12960,1,walk,walk,5982,,5982.0,20.0,2.0,6.0,2.0,1.71,-0.009,-0.084,1.117,32.0,28.11,0.0,19.0,0.0,4.0,2.25,0.04,-1.0,-0.04,0.25,-1.07,0.73,161.0,,,0.0,1.0,0.0,100.0
12960,1,walk,walk,5983,,5983.0,20.0,2.0,6.0,2.0,1.7,-0.009,-0.023,1.105,32.0,28.14,0.0,19.0,0.0,4.0,2.25,0.04,-1.0,-0.04,0.25,-1.07,0.72,161.0,,,0.0,1.0,0.0,100.0
12980,1,walk,walk,5984,,5984.0,20.0,2.0,6.0,2.0,1.7,-0.01,-0.111,1.113,32.0,28.14,0.0,19.0,0.0,4.0,2.25,0.04,-1.0,-0.04,0.26,-1.07,0.7,161.0,,,0.0,1.0,0.0,100.0
13000,1,walk,walk,5985,,5985.0,20.0,2.0,6.0,2.0,1.7,-0.009,0.029,1.098,32.0,28.14,0.0,19.0,0.0,4.0,2.25,0.04,-1.0,-0.04,0.26,-1.07,0.69,161.0,,,0.0,1.0,0.0,100.0
13020,1,walk,walk,5986,,5986.0,20.0,2.0,6.0,2.0,1.7,-0.009,0.014,1.095,32.0,28.14,0.0,19.0,0.0,4.0,2.25,0.04,-1.0,-0.04,0.28,-1.07,0.67,161.0,,,0.0,1.0,0.0,100.0
13060,1,walk,walk,5987,,5987.0,20.0,2.0,6.0,2.0,1.69,-0.009,-0.034,1.102,32.0,28.14,0.0,19.0,0.0,4.0,2.25,0.04,-1.0,-0.04,0.29,-1.07,0.66,161.0,,,0.0,1.0,0.0,100.0
13060,1,walk,walk,5988,,5988.0,20.0,2.0,6.0,2.0,1.69,-0.009,-0.042,1.114,32.0,28.14,0.0,19.0,0.0,4.0,2.25,0.04,-1.0,-0.04,0.31,-1.08,0.64,161.0,,,0.0,1.0,0.0,100.0
13080,1,walk,walk,5989,,5989.0,20.0,2.0,6.0,2.0,1.69,-0.009,0.001,1.107,32.0,28.11,0.0,19.0,0.0,4.0,2.25,0.04,-1.0,-0.04,0.33,-1.08,0.63,161.0,,,0.0,1.0,0.0,100.0
13120,1,walk,walk,5990,,5990.0,20.0,2.0,6.0,2.0,1.68,-0.009,0.028,1.13,32.0,28.14,0.0,19.0,0.0,4.0,2.25,0.04,-1.0,-0.04,0.35,-1.09,0.62,161.0,,,0.0,1.0,0.0,100.0
13120,1,walk,walk,5991,,5991.0,20.0,2.0,6.0,2.0,1.68,-0.009,0.026,1.102,32.0,28.14,0.0,19.0,0.0,4.0,2.26,0.04,-1.0,-0.04,0.36,-1.09,0.62,161.0,,,0.0,1.0,0.0,100.0
13140,1,walk,walk,5992,,5992.0,20.0,2.0,6.0,2.0,1.68,-0.009,0.007,1.121,32.0,28.14,0.0,19.0,0.0,4.0,2.26,0.04,-1.0,-0.04,0.36,-1.09,0.62,161.0,,,0.0,1.0,0.0,100.0
13160,1,walk,walk,5993,,5993.0,20.0,2.0,6.0,2.0,1.68,-0.009,0.014,1.116,32.0,28.11,0.0,19.0,0.0,4.0,2.26,0.04,-1.0,-0.04,0.37,-1.1,0.62,161.0,,,0.0,1.0,0.0,100.0
13180,1,walk,walk,5994,,5994.0,20.0,2.0,6.0,2.0,1.68,-0.009,-0.01,1.108,32.0,28.11,0.0,19.0,0.0,4.0,2.26,0.04,-1.0,-0.04,0.37,-1.11,0.62,161.0,,,0.0,1.0,0.0,100.0
13200,1,walk,walk,5995,,5995.0,20.0,2.0,6.0,2.0,1.67,-0.009,-0.011,1.107,32.0,28.11,0.0,19.0,0.0,4.0,2.26,0.04,-1.0,-0.04,0.36,-1.12,0.61,161.0,,,0.0,1.0,0.0,100.0
13240,1,walk,walk,5996,,5996.0,20.0,2.0,6.0,2.0,1.67,-0.009,-0.041,1.095,32.0,28.14,0.0,19.0,0.0,4.0,2.26,0.04,-1.0,-0.04,0.36,-1.13,0.6,161.0,,,0.0,1.0,0.0,100.0
13280,1,walk,walk,5997,,5997.0,20.0,2.0,6.0,2.0,1.67,-0.009,0.011,1.094,32.0,28.14,0.0,19.0,0.0,4.0,2.26,0.04,-1.0,-0.04,0.36,-1.12,0.58,161.0,,,0.0,1.0,0.0,100.0
13280,1,walk,walk,5998,,5998.0,20.0,2.0,6.0,2.0,1.67,-0.009,-0.08,1.107,32.0,28.14,0.0,19.0,0.0,4.0,2.25,0.04,-1.0,-0.04,0.36,-1.11,0.55,161.0,,,0.0,1.0,0.0,100.0
13300,1,walk,walk,5999,,5999.0,20.0,2.0,6.0,2.0,1.67,-0.009,-0.033,1.091,32.0,28.14,0.0,19.0,0.0,4.0,2.25,0.04,-1.0,-0.04,0.35,-1.09,0.51,161.0,,,0.0,1.0,0.0,100.0
13320,1,walk,walk,6000,,6000.0,20.0,2.0,6.0,2.0,1.67,-0.009,-0.019,1.075,32.0,28.14,0.0,19.0,0.0,4.0,2.25,0.04,-1.0,-0.04,0.35,-1.07,0.47,161.0,,,0.0,1.0,0.0,100.0
13320,1,walk,walk,6001,,6001.0,20.0,2.0,6.0,2.0,1.67,-0.009,0.038,1.1,32.0,28.14,0.0,19.0,0.0,4.0,2.25,0.04,-1.0,-0.04,0.35,-1.05,0.44,161.0,,,0.0,1.0,0.0,100.0
13360,1,walk,walk,6002,,6002.0,20.0,2.0,6.0,2.0,1.67,-0.009,0.056,1.1,32.0,28.14,0.0,19.0,0.0,4.0,2.26,0.04,-1.0,-0.04,0.35,-1.03,0.42,161.0,,,0.0,1.0,0.0,100.0
13360,1,walk,walk,6003,,6003.0,20.0,2.0,6.0,2.0,1.67,-0.009,-0.058,1.076,32.0,28.14,0.0,19.0,0.0,4.0,2.27,0.04,-1.0,-0.04,0.35,-1.0,0.41,161.0,,,0.0,1.0,0.0,100.0
13420,1,walk,walk,6004,,6004.0,20.0,2.0,6.0,2.0,1.67,-0.009,-0.058,1.098,32.0,28.14,0.0,19.0,0.0,4.0,2.28,0.04,-1.0,-0.04,0.34,-0.98,0.41,161.0,,,0.0,1.0,0.0,100.0
13440,1,walk,walk,6005,,6005.0,20.0,2.0,6.0,2.0,1.67,-0.009,-0.038,1.096,32.0,28.14,0.0,19.0,0.0,4.0,2.29,0.04,-1.0,-0.04,0.34,-0.97,0.42,161.0,,,0.0,1.0,0.0,100.0
13440,1,walk,walk,6006,,6006.0,20.0,2.0,6.0,2.0,1.67,-0.009,-0.045,1.1,32.0,28.14,0.0,19.0,0.0,4.0,2.29,0.04,-1.0,-0.04,0.33,-0.95,0.44,161.0,,,0.0,1.0,0.0,100.0
13460,1,walk,walk,6007,,6007.0,20.0,2.0,6.0,2.0,1.67,-0.009,0.025,1.091,32.0,28.14,0.0,19.0,0.0,4.0,2.3,0.04,-1.0,-0.04,0.32,-0.94,0.46,161.0,,,0.0,1.0,0.0,100.0
13460,1,walk,walk,6008,,6008.0,20.0,2.0,6.0,2.0,1.67,-0.009,-0.062,1.119,32.0,28.14,0.0,19.0,0.0,4.0,2.3,0.04,-1.0,-0.04,0.32,-0.93,0.48,161.0,,,0.0,1.0,0.0,100.0
13500,1,walk,walk,6009,,6009.0,20.0,2.0,6.0,2.0,1.67,-0.009,-0.002,1.095,32.0,28.14,0.0,19.0,0.0,4.0,2.3,0.04,-1.0,-0.04,0.31,-0.92,0.5,161.0,,,0.0,1.0,0.0,100.0
13520,1,walk,walk,6010,,6010.0,20.0,2.0,6.0,2.0,1.67,-0.009,-0.07,1.091,32.0,28.14,0.0,19.0,0.0,4.0,2.3,0.04,-1.0,-0.04,0.31,-0.91,0.52,161.0,,,0.0,1.0,0.0,100.0
13540,1,walk,walk,6011,,6011.0,20.0,2.0,6.0,2.0,1.68,-0.009,-0.037,1.09,32.0,28.14,0.0,19.0,0.0,4.0,2.3,0.04,-1.0,-0.04,0.3,-0.91,0.53,161.0,,,0.0,1.0,0.0,100.0
13540,1,walk,walk,6012,,6012.0,20.0,2.0,6.0,2.0,1.68,-0.009,0.046,1.063,32.0,28.14,0.0,19.0,0.0,4.0,2.3,0.04,-1.0,-0.04,0.29,-0.91,0.55,161.0,,,0.0,1.0,0.0,100.0
13560,1,walk,walk,6013,,6013.0,20.0,2.0,6.0,2.0,1.68,-0.009,-0.002,1.079,32.0,28.14,0.0,19.0,0.0,4.0,2.3,0.04,-1.0,-0.04,0.28,-0.92,0.56,161.0,,,0.0,1.0,0.0,100.0
13620,1,walk,walk,6014,,6014.0,20.0,2.0,6.0,2.0,1.68,-0.009,-0.018,1.116,32.0,28.14,0.0,19.0,0.0,4.0,2.31,0.04,-1.0,-0.04,0.27,-0.93,0.58,161.0,,,0.0,1.0,0.0,100.0
13620,1,walk,walk,6015,,6015.0,20.0,2.0,6.0,2.0,1.68,-0.009,0.023,1.1,32.0,28.14,0.0,19.0,0.0,4.0,2.31,0.04,-1.0,-0.04,0.26,-0.95,0.6,161.0,,,0.0,1.0,0.0,100.0
13620,1,walk,walk,6016,,6016.0,20.0,2.0,6.0,2.0,1.69,-0.009,-0.037,1.091,32.0,28.14,0.0,19.0,0.0,4.0,2.31,0.04,-1.0,-0.04,0.25,-0.97,0.62,161.0,,,0.0,1.0,0.0,100.0
13640,1,walk,walk,6017,,6017.0,20.0,2.0,6.0,2.0,1.69,-0.009,0.021,1.092,32.0,28.11,0.0,19.0,0.0,4.0,2.31,0.04,-1.0,-0.04,0.24,-0.99,0.63,161.0,,,0.0,1.0,0.0,100.0
13660,1,walk,walk,6018,,6018.0,20.0,2.0,6.0,2.0,1.69,-0.009,0.036,1.107,32.0,28.14,0.0,19.0,0.0,4.0,2.3,0.04,-1.0,-0.04,0.23,-1.01,0.63,161.0,,,0.0,1.0,0.0,100.0
13680,1,walk,walk,6019,,6019.0,20.0,2.0,6.0,2.0,1.69,-0.009,0.025,1.093,32.0,28.14,0.0,19.0,0.0,4.0,2.3,0.04,-1.0,-0.04,0.23,-1.01,0.62,161.0,,,0.0,1.0,0.0,100.0
13700,1,walk,walk,6020,,6020.0,20.0,2.0,6.0,2.0,1.69,-0.009,-0.005,1.086,32.0,28.11,0.0,19.0,0.0,4.0,2.3,0.04,-1.0,-0.04,0.23,-1.01,0.61,161.0,,,0.0,1.0,0.0,100.0
13740,1,walk,walk,6021,,6021.0,20.0,2.0,6.0,2.0,1.7,-0.009,-0.025,1.078,32.0,28.14,0.0,19.0,0.0,4.0,2.29,0.04,-1.0,-0.04,0.22,-1.0,0.59,161.0,,,0.0,1.0,0.0,100.0
13760,1,walk,walk,6022,,6022.0,20.0,2.0,6.0,2.0,1.7,-0.009,0.033,1.106,32.0,28.14,0.0,19.0,0.0,4.0,2.29,0.04,-1.0,-0.04,0.22,-0.99,0.57,161.0,,,0.0,1.0,0.0,100.0
13820,1,walk,walk,6023,,6023.0,20.0,2.0,6.0,2.0,1.7,-0.009,0.107,1.088,32.0,28.14,0.0,19.0,0.0,4.0,2.29,0.04,-1.0,-0.04,0.22,-0.99,0.54,161.0,,,0.0,1.0,0.0,100.0
13820,1,walk,walk,6024,,6024.0,20.0,2.0,6.0,2.0,1.7,-0.009,0.01,1.076,32.0,28.14,0.0,19.0,0.0,4.0,2.29,0.04,-1.0,-0.04,0.23,-0.98,0.52,161.0,,,0.0,1.0,0.0,100.0
13820,1,walk,walk,6025,,6025.0,20.0,2.0,6.0,2.0,1.7,-0.009,-0.091,1.092,32.0,28.14,0.0,19.0,0.0,4.0,2.29,0.04,-1.0,-0.04,0.23,-0.97,0.51,161.0,,,0.0,1.0,0.0,100.0
13840,1,walk,walk,6026,,6026.0,20.0,2.0,6.0,2.0,1.7,-0.009,-0.032,1.096,32.0,28.14,0.0,19.0,0.0,4.0,2.29,0.04,-1.0,-0.04,0.23,-0.97,0.51,161.0,,,0.0,1.0,0.0,100.0
13840,1,walk,walk,6027,,6027.0,20.0,2.0,6.0,2.0,1.7,-0.009,-0.019,1.102,32.0,28.14,0.0,19.0,0.0,4.0,2.3,0.04,-1.0,-0.04,0.23,-0.97,0.51,161.0,,,0.0,1.0,0.0,100.0
13860,1,walk,walk,6028,,6028.0,20.0,2.0,6.0,2.0,1.7,-0.009,-0.018,1.101,32.0,28.14,0.0,19.0,0.0,4.0,2.3,0.04,-1.0,-0.04,0.22,-0.97,0.52,161.0,,,0.0,1.0,0.0,100.0
13940,1,walk,walk,6029,,6029.0,20.0,2.0,6.0,2.0,1.7,-0.009,0.026,1.085,32.0,28.11,0.0,19.0,0.0,4.0,2.3,0.04,-1.0,-0.04,0.22,-0.98,0.53,161.0,,,0.0,1.0,0.0,100.0
13960,1,walk,walk,6030,,6030.0,20.0,2.0,6.0,2.0,1.7,-0.009,0.06,1.101,32.0,28.14,0.0,19.0,0.0,4.0,2.31,0.04,-1.0,-0.04,0.21,-1.0,0.53,161.0,,,0.0,1.0,0.0,100.0
13960,1,walk,walk,6031,,6031.0,20.0,2.0,6.0,2.0,1.71,-0.009,0.069,1.109,32.0,28.14,0.0,19.0,0.0,4.0,2.31,0.04,-1.0,-0.04,0.21,-1.02,0.54,161.0,,,0.0,1.0,0.0,100.0
13960,1,walk,walk,6032,,6032.0,20.0,2.0,6.0,2.0,1.71,-0.009,0.04,1.086,32.0,28.14,0.0,19.0,0.0,4.0,2.32,0.04,-1.0,-0.04,0.21,-1.03,0.54,161.0,,,0.0,1.0,0.0,100.0
14000,1,walk,walk,6033,,6033.0,20.0,2.0,6.0,2.0,1.71,-0.009,-0.001,1.064,32.0,28.14,0.0,19.0,0.0,4.0,2.32,0.04,-1.0,-0.04,0.21,-1.05,0.54,161.0,,,0.0,1.0,0.0,100.0
14000,1,walk,walk,6034,,6034.0,20.0,2.0,6.0,2.0,1.71,-0.009,0.03,1.095,32.0,28.14,0.0,19.0,0.0,4.0,2.33,0.04,-1.0,-0.04,0.21,-1.07,0.54,161.0,,,0.0,1.0,0.0,100.0
14000,1,walk,walk,6035,,6035.0,20.0,2.0,6.0,2.0,1.71,-0.009,0.018,1.085,32.0,28.14,0.0,19.0,0.0,4.0,2.33,0.04,-1.0,-0.04,0.21,-1.08,0.54,161.0,,,0.0,1.0,0.0,100.0
14060,1,walk,walk,6036,,6036.0,20.0,2.0,6.0,2.0,1.71,-0.009,-0.072,1.091,32.0,28.14,0.0,19.0,0.0,4.0,2.34,0.04,-1.0,-0.04,0.22,-1.1,0.54,161.0,,,0.0,1.0,0.0,100.0
14060,1,walk,walk,6037,,6037.0,20.0,2.0,6.0,2.0,1.71,-0.009,-0.06,1.092,32.0,28.11,0.0,19.0,0.0,4.0,2.34,0.04,-1.0,-0.04,0.23,-1.12,0.55,161.0,,,0.0,1.0,0.0,100.0
14080,1,walk,walk,6038,,6038.0,20.0,2.0,6.0,2.0,1.71,-0.009,0.015,1.11,32.0,28.14,0.0,19.0,0.0,4.0,2.34,0.04,-1.0,-0.04,0.25,-1.13,0.57,161.0,,,0.0,1.0,0.0,100.0
14100,1,walk,walk,6039,,6039.0,20.0,2.0,6.0,2.0,1.71,-0.009,0.036,1.099,32.0,28.14,0.0,19.0,0.0,4.0,2.35,0.04,-1.0,-0.04,0.27,-1.15,0.6,161.0,,,0.0,1.0,0.0,100.0
14120,1,walk,walk,6040,,6040.0,20.0,2.0,6.0,2.0,1.72,-0.009,-0.002,1.12,32.0,28.14,0.0,19.0,0.0,4.0,2.35,0.04,-1.0,-0.04,0.29,-1.17,0.63,161.0,,,0.0,1.0,0.0,100.0
14160,1,walk,walk,6041,,6041.0,20.0,2.0,6.0,2.0,1.72,-0.009,-0.018,1.121,32.0,28.14,0.0,19.0,0.0,4.0,2.34,0.04,-1.0,-0.04,0.32,-1.19,0.67,161.0,,,0.0,1.0,0.0,100.0
14160,1,walk,walk,6042,,6042.0,20.0,2.0,6.0,2.0,1.72,-0.009,-0.009,1.109,32.0,28.14,0.0,19.0,0.0,4.0,2.34,0.04,-1.0,-0.04,0.35,-1.2,0.7,161.0,,,0.0,1.0,0.0,100.0
14160,1,walk,walk,6043,,6043.0,20.0,2.0,6.0,2.0,1.72,-0.01,-0.023,1.13,32.0,28.14,0.0,19.0,0.0,4.0,2.33,0.04,-1.0,-0.04,0.38,-1.21,0.74,161.0,,,0.0,1.0,0.0,100.0
14200,1,walk,walk,6044,,6044.0,20.0,2.0,6.0,2.0,1.72,-0.009,-0.061,1.138,32.0,28.14,0.0,19.0,0.0,4.0,2.32,0.04,-1.0,-0.04,0.41,-1.22,0.77,161.0,,,0.0,1.0,0.0,100.0
14240,1,walk,walk,6045,,6045.0,20.0,2.0,6.0,2.0,1.72,-0.01,0.023,1.131,32.0,28.14,0.0,19.0,0.0,4.0,2.32,0.04,-1.0,-0.04,0.43,-1.23,0.79,161.0,,,0.0,1.0,0.0,100.0
14260,1,walk,walk,6046,,6046.0,20.0,2.0,6.0,2.0,1.72,-0.01,0.009,1.145,32.0,28.14,0.0,19.0,0.0,4.0,2.31,0.04,-1.0,-0.04,0.44,-1.23,0.82,161.0,,,0.0,1.0,0.0,100.0
14260,1,walk,walk,6047,,6047.0,20.0,2.0,6.0,2.0,1.72,-0.01,-0.007,1.143,32.0,28.11,0.0,19.0,0.0,4.0,2.3,0.04,-1.0,-0.04,0.45,-1.23,0.84,161.0,,,0.0,1.0,0.0,100.0
14280,1,walk,walk,6048,,6048.0,20.0,2.0,6.0,2.0,1.72,-0.01,0.006,1.14,32.0,28.14,0.0,19.0,0.0,4.0,2.3,0.04,-1.0,-0.04,0.46,-1.23,0.87,161.0,,,0.0,1.0,0.0,100.0
14300,1,walk,walk,6049,,6049.0,20.0,2.0,6.0,2.0,1.72,-0.01,0.048,1.198,32.0,28.14,0.0,19.0,0.0,4.0,2.3,0.04,-1.0,-0.04,0.45,-1.23,0.89,161.0,,,0.0,1.0,0.0,100.0
14320,1,walk,walk,6050,,6050.0,20.0,2.0,6.0,2.0,1.72,-0.01,-0.041,1.186,32.0,28.14,0.0,19.0,0.0,4.0,2.3,0.04,-1.0,-0.04,0.43,-1.23,0.91,161.0,,,0.0,1.0,0.0,100.0
14320,1,walk,walk,6051,,6051.0,20.0,2.0,6.0,2.0,1.72,-0.01,0.038,1.189,32.0,28.11,0.0,19.0,0.0,4.0,2.3,0.04,-1.0,-0.04,0.39,-1.23,0.93,161.0,,,0.0,1.0,0.0,100.0
14340,1,walk,walk,6052,,6052.0,20.0,2.0,6.0,2.0,1.72,-0.01,0.1,1.168,32.0,28.11,0.0,19.0,0.0,4.0,2.3,0.04,-1.0,-0.04,0.34,-1.23,0.94,161.0,,,0.0,1.0,0.0,100.0
14380,1,walk,walk,6053,,6053.0,20.0,2.0,6.0,2.0,1.72,-0.01,-0.089,1.201,32.0,28.11,0.0,19.0,0.0,4.0,2.3,0.04,-1.0,-0.04,0.28,-1.22,0.95,161.0,,,0.0,1.0,0.0,100.0
14380,1,walk,walk,6054,,6054.0,20.0,2.0,6.0,2.0,1.71,-0.01,0.001,1.187,32.0,28.11,0.0,19.0,0.0,4.0,2.29,0.04,-1.0,-0.04,0.2,-1.21,0.95,161.0,,,0.0,1.0,0.0,100.0
14400,1,walk,walk,6055,,6055.0,20.0,2.0,6.0,2.0,1.71,-0.01,0.053,1.188,32.0,28.11,0.0,19.0,0.0,4.0,2.28,0.04,-1.0,-0.04,0.12,-1.19,0.94,161.0,,,0.0,1.0,0.0,100.0
14420,1,walk,walk,6056,,6056.0,20.0,2.0,6.0,2.0,1.71,-0.01,0.01,1.195,32.0,28.14,0.0,19.0,0.0,4.0,2.27,0.04,-1.0,-0.04,0.04,-1.17,0.92,161.0,,,0.0,1.0,0.0,100.0
14440,1,walk,walk,6057,,6057.0,20.0,2.0,6.0,2.0,1.7,-0.01,0.093,1.167,32.0,28.14,0.0,19.0,0.0,4.0,2.26,0.04,-1.0,-0.04,-0.05,-1.14,0.89,161.0,,,0.0,1.0,0.0,100.0
14480,1,walk,walk,6058,,6058.0,20.0,2.0,6.0,2.0,1.7,-0.01,-0.015,1.17,32.0,28.14,0.0,19.0,0.0,4.0,2.25,0.04,-1.0,-0.04,-0.12,-1.11,0.85,161.0,,,0.0,1.0,0.0,100.0
14480,1,walk,walk,6059,,6059.0,20.0,2.0,6.0,2.0,1.69,-0.01,0.032,1.171,32.0,28.14,0.0,19.0,0.0,4.0,2.24,0.04,-1.0,-0.04,-0.19,-1.07,0.8,161.0,,,0.0,1.0,0.0,100.0
14500,1,walk,walk,6060,,6060.0,20.0,2.0,6.0,2.0,1.69,-0.01,-0.007,1.178,32.0,28.14,0.0,19.0,0.0,4.0,2.23,0.04,-1.0,-0.04,-0.25,-1.03,0.75,161.0,,,0.0,1.0,0.0,100.0
14540,1,walk,walk,6061,,6061.0,20.0,2.0,6.0,2.0,1.68,-0.01,0.013,1.148,32.0,28.14,0.0,19.0,0.0,4.0,2.22,0.04,-1.0,-0.04,-0.3,-0.99,0.69,161.0,,,0.0,1.0,0.0,100.0
14560,1,walk,walk,6062,,6062.0,20.0,2.0,6.0,2.0,1.68,-0.01,-0.072,1.16,32.0,28.14,0.0,19.0,0.0,4.0,2.22,0.04,-1.0,-0.04,-0.34,-0.96,0.64,161.0,,,0.0,1.0,0.0,100.0
14560,1,walk,walk,6063,,6063.0,20.0,2.0,6.0,2.0,1.68,-0.01,-0.011,1.128,32.0,28.11,0.0,19.0,0.0,4.0,2.21,0.04,-1.0,-0.04,-0.37,-0.92,0.59,161.0,,,0.0,1.0,0.0,100.0
14580,1,walk,walk,6064,,6064.0,20.0,2.0,6.0,2.0,1.67,-0.01,0.025,1.149,32.0,28.14,0.0,19.0,0.0,4.0,2.21,0.04,-1.0,-0.04,-0.39,-0.89,0.54,161.0,,,0.0,1.0,0.0,100.0
14640,1,walk,walk,6065,,6065.0,20.0,2.0,6.0,2.0,1.67,-0.01,0.065,1.131,32.0,28.14,0.0,19.0,0.0,4.0,2.21,0.04,-1.0,-0.04,-0.39,-0.86,0.5,161.0,,,0.0,1.0,0.0,100.0
14640,1,walk,walk,6066,,6066.0,20.0,2.0,6.0,2.0,1.66,-0.01,-0.003,1.137,32.0,28.14,0.0,19.0,0.0,4.0,2.22,0.04,-1.0,-0.04,-0.37,-0.85,0.45,161.0,,,0.0,1.0,0.0,100.0
14640,1,walk,walk,6067,,6067.0,20.0,2.0,6.0,2.0,1.66,-0.01,-0.026,1.136,32.0,28.14,0.0,19.0,0.0,4.0,2.22,0.04,-1.0,-0.04,-0.33,-0.84,0.41,161.0,,,0.0,1.0,0.0,100.0
14680,1,walk,walk,6068,,6068.0,20.0,2.0,6.0,2.0,1.66,-0.01,-0.092,1.112,32.0,28.14,0.0,19.0,0.0,4.0,2.23,0.04,-1.0,-0.04,-0.28,-0.83,0.38,161.0,,,0.0,1.0,0.0,100.0
