t_ms,segment_id,packet_type,source_mode,frame_fid,note,walk_fid,walk_dt_ms,walk_exec_ms,walk_out,walk_state,walk_tilt_forward_deg,walk_pos_rad,walk_vel_rad_s,walk_tq_nm,walk_temp_c,walk_vbus_v,walk_pattern,walk_err_code,walk_fb_age_ms,walk_typical_stride_ms,walk_effective_step_count,walk_tilt_accel_deg,walk_acc_x,walk_acc_y,walk_acc_z,walk_gyr_x,walk_gyr_y,walk_gyr_z,cfg_fid,cfg_gait_model,cfg_gait_mode,cfg_side_is_left,cfg_assist_pct
0,1,walk,walk,0,,0.0,20.0,1.0,0.0,1.0,0.0,0.212,-0.06,0.0,27.0,22.74,0.0,0.0,0.0,0.0,0.0,-7.11,0.0,-0.01,0.0,-0.05,-0.07,0.17,0.0,1.0,1.0,0.0,50.0
0,1,walk,walk,1,,1.0,20.0,0.0,0.0,1.0,0.0,0.212,-0.06,0.0,27.0,22.74,0.0,0.0,19.0,0.0,0.0,-6.64,0.0,-0.02,0.0,-0.2,-0.24,0.65,0.0,1.0,1.0,0.0,50.0
0,1,walk,walk,2,,2.0,20.0,0.0,0.0,1.0,-0.01,0.212,0.022,0.0,27.0,22.74,0.0,0.0,14.0,0.0,0.0,-6.09,-0.01,-0.05,-0.01,-0.48,-0.51,1.54,0.0,1.0,1.0,0.0,50.0
60,1,walk,walk,3,,3.0,20.0,0.0,0.0,1.0,-0.02,0.213,0.057,0.0,27.0,22.74,0.0,0.0,14.0,0.0,0.0,-5.52,-0.01,-0.09,-0.01,-0.9,-0.77,2.86,0.0,1.0,1.0,0.0,50.0
60,1,walk,walk,4,,4.0,20.0,0.0,0.0,1.0,-0.03,0.215,0.249,0.0,27.0,22.74,0.0,0.0,14.0,0.0,0.0,-5.02,-0.01,-0.15,-0.02,-1.41,-0.86,4.57,0.0,1.0,1.0,0.0,50.0
60,1,walk,walk,5,,5.0,20.0,0.0,0.0,1.0,-0.06,0.216,0.108,0.0,27.0,22.74,0.0,0.0,14.0,0.0,0.0,-4.65,-0.02,-0.21,-0.03,-2.01,-0.7,6.61,0.0,1.0,1.0,0.0,50.0
60,1,walk,walk,6,,6.0,20.0,0.0,0.0,1.0,-0.09,0.22,0.173,0.0,27.0,22.74,0.0,0.0,14.0,0.0,0.0,-4.43,-0.02,-0.28,-0.04,-2.67,-0.26,8.89,0.0,1.0,1.0,0.0,50.0
140,1,walk,walk,7,,7.0,20.0,0.0,0.0,1.0,-0.13,0.224,0.185,0.0,27.0,22.74,0.0,0.0,14.0,0.0,0.0,-4.36,-0.03,-0.35,-0.06,-3.38,0.39,11.33,0.0,1.0,1.0,0.0,50.0
140,1,walk,walk,8,,8.0,20.0,0.0,0.0,1.0,-0.18,0.228,0.347,0.0,27.0,22.74,0.0,0.0,14.0,0.0,0.0,-4.45,-0.03,-0.42,-0.07,-4.12,1.1,13.83,0.0,1.0,1.0,0.0,50.0
140,1,walk,walk,9,,9.0,20.0,0.0,0.0,1.0,-0.25,0.235,0.43,0.0,27.0,22.74,0.0,0.0,14.0,0.0,0.0,-4.66,-0.04,-0.49,-0.08,-4.88,1.7,16.31,0.0,1.0,1.0,0.0,50.0
200,1,walk,walk,10,,10.0,20.0,0.0,0.0,1.0,-0.34,0.241,0.54,0.0,27.0,22.74,0.0,0.0,14.0,0.0,0.0,-4.96,-0.05,-0.56,-0.09,-5.6,2.05,18.69,0.0,1.0,1.0,0.0,50.0
200,1,walk,walk,11,,11.0,20.0,0.0,0.0,1.0,-0.44,0.25,0.6,0.0,27.0,22.74,0.0,0.0,14.0,0.0,0.0,-5.31,-0.06,-0.62,-0.09,-6.26,2.06,20.94,0.0,1.0,1.0,0.0,50.0
200,1,walk,walk,12,,12.0,20.0,0.0,0.0,1.0,-0.57,0.258,0.604,0.0,27.0,22.74,0.0,0.0,14.0,0.0,0.0,-5.66,-0.07,-0.68,-0.1,-6.84,1.68,23.01,0.0,1.0,1.0,0.0,50.0
200,1,walk,walk,13,,13.0,20.0,0.0,0.0,1.0,-0.72,0.268,0.869,0.0,27.0,22.74,0.0,0.0,14.0,0.0,0.0,-5.97,-0.08,-0.73,-0.11,-7.33,0.86,24.89,0.0,1.0,1.0,0.0,50.0
280,1,walk,walk,14,,14.0,20.0,0.0,0.0,1.0,-0.89,0.282,0.805,0.0,27.0,22.74,0.0,0.0,14.0,0.0,0.0,-6.2,-0.08,-0.78,-0.11,-7.7,-0.41,26.56,0.0,1.0,1.0,0.0,50.0
280,1,walk,walk,15,,15.0,20.0,0.0,0.0,1.0,-1.1,0.296,1.207,0.0,27.0,22.74,0.0,0.0,14.0,0.0,0.0,-6.32,-0.09,-0.82,-0.12,-7.91,-2.06,28.02,0.0,1.0,1.0,0.0,50.0
280,1,walk,walk,16,,16.0,20.0,0.0,0.0,1.0,-1.33,0.313,1.174,0.0,27.0,22.74,0.0,0.0,14.0,0.0,0.0,-6.28,-0.09,-0.86,-0.12,-7.94,-4.02,29.25,0.0,1.0,1.0,0.0,50.0
340,1,walk,walk,17,,17.0,20.0,0.0,0.0,1.0,-1.6,0.334,1.466,0.0,27.0,22.77,0.0,0.0,14.0,0.0,0.0,-6.06,-0.09,-0.89,-0.12,-7.73,-6.22,30.22,0.0,1.0,1.0,0.0,50.0
340,1,walk,walk,18,,18.0,20.0,0.0,0.0,1.0,-1.9,0.359,1.734,0.0,27.0,22.74,0.0,0.0,14.0,0.0,0.0,-5.64,-0.09,-0.93,-0.12,-7.27,-8.6,30.88,0.0,1.0,1.0,0.0,50.0
340,1,walk,walk,19,,19.0,20.0,0.0,0.0,1.0,-2.23,0.39,2.234,0.0,27.0,22.74,0.0,0.0,14.0,0.0,0.0,-5.04,-0.08,-0.96,-0.11,-6.52,-11.28,31.13,0.0,1.0,1.0,0.0,50.0
340,1,walk,walk,20,,20.0,20.0,0.0,0.0,1.0,-2.59,0.426,2.584,0.0,27.0,22.74,0.0,0.0,14.0,0.0,0.0,-4.25,-0.07,-0.99,-0.11,-5.47,-14.39,30.84,0.0,1.0,1.0,0.0,50.0
400,1,walk,walk,21,,21.0,20.0,0.0,0.0,1.0,-2.98,0.47,3.332,0.0,27.0,22.74,0.0,0.0,14.0,0.0,0.0,-3.27,-0.06,-1.01,-0.1,-4.18,-17.97,29.75,0.0,1.0,1.0,0.0,50.0
400,1,walk,walk,22,,22.0,20.0,1.0,0.0,1.0,-3.4,0.529,4.366,0.0,27.0,22.74,0.0,0.0,15.0,0.0,0.0,-2.14,-0.04,-1.03,-0.09,-2.8,-21.81,27.58,1.0,1.0,1.0,0.0,50.0
420,1,walk,walk,23,,23.0,20.0,1.0,0.0,1.0,-3.84,0.602,5.203,0.0,27.0,22.74,0.0,0.0,15.0,0.0,0.0,-0.93,-0.02,-1.04,-0.08,-1.53,-25.57,24.11,1.0,1.0,1.0,0.0,50.0
480,1,walk,walk,24,,24.0,20.0,1.0,0.0,1.0,-4.3,0.682,5.396,0.0,27.0,22.74,0.0,0.0,15.0,0.0,0.0,0.27,0.0,-1.05,-0.07,-0.52,-28.82,19.23,1.0,1.0,1.0,0.0,50.0
480,1,walk,walk,25,,25.0,20.0,1.0,0.0,1.0,-4.76,0.761,5.144,0.0,27.0,22.74,0.0,0.0,15.0,0.0,0.0,1.29,0.02,-1.06,-0.06,0.22,-31.18,12.93,1.0,1.0,1.0,0.0,50.0
480,1,walk,walk,26,,26.0,20.0,0.0,0.0,1.0,-5.23,0.849,3.991,0.0,27.0,22.74,0.0,0.0,8.0,0.0,0.0,2.01,0.04,-1.07,-0.06,0.69,-32.34,5.44,1.0,1.0,1.0,0.0,50.0
540,1,walk,walk,27,,27.0,20.0,1.0,0.0,1.0,-5.68,0.901,3.198,0.0,27.0,22.74,0.0,0.0,9.0,0.0,0.0,2.28,0.04,-1.07,-0.07,0.89,-32.15,-2.81,1.0,1.0,1.0,0.0,50.0
540,1,walk,walk,28,,28.0,20.0,1.0,0.0,1.0,-6.11,0.942,2.38,0.0,27.0,22.74,0.0,0.0,9.0,0.0,0.0,2.07,0.04,-1.08,-0.07,0.93,-30.75,-11.38,1.0,1.0,1.0,0.0,50.0
540,1,walk,walk,29,,29.0,20.0,1.0,0.0,1.0,-6.51,0.971,1.493,0.0,27.0,22.74,0.0,0.0,9.0,0.0,0.0,1.39,0.03,-1.08,-0.08,0.98,-28.48,-19.92,1.0,1.0,1.0,0.0,50.0
540,1,walk,walk,30,,30.0,20.0,1.0,0.0,1.0,-6.86,0.982,0.13,0.0,27.0,22.74,0.0,0.0,9.0,0.0,0.0,0.31,0.01,-1.09,-0.09,1.2,-25.64,-28.2,1.0,1.0,1.0,0.0,50.0
620,1,walk,walk,31,,31.0,20.0,1.0,0.0,1.0,-7.15,0.98,-0.08,0.0,27.0,22.74,0.0,0.0,9.0,0.0,0.0,-1.02,-0.02,-1.1,-0.1,1.7,-22.35,-36.15,1.0,1.0,1.0,0.0,50.0
620,1,walk,walk,32,,32.0,20.0,1.0,0.0,1.0,-7.37,0.973,-0.745,0.0,27.0,22.74,0.0,0.0,9.0,0.0,0.0,-2.48,-0.05,-1.11,-0.11,2.53,-18.64,-43.77,1.0,1.0,1.0,0.0,50.0
620,1,walk,walk,33,,33.0,20.0,0.0,0.0,1.0,-7.51,0.958,-1.484,0.0,27.0,22.74,0.0,0.0,8.0,0.0,0.0,-3.97,-0.08,-1.11,-0.11,3.62,-14.49,-51.0,1.0,1.0,1.0,0.0,50.0
680,1,walk,walk,34,,34.0,20.0,0.0,0.0,1.0,-7.56,0.927,-2.53,0.0,27.0,22.74,0.0,0.0,8.0,0.0,0.0,-5.4,-0.11,-1.11,-0.11,4.86,-9.79,-57.73,1.0,1.0,1.0,0.0,50.0
680,1,walk,walk,35,,35.0,20.0,0.0,0.0,1.0,-7.51,0.879,-3.72,0.0,27.0,22.74,0.0,0.0,8.0,0.0,0.0,-6.74,-0.13,-1.11,-0.11,6.19,-4.39,-63.8,1.0,1.0,1.0,0.0,50.0
680,1,walk,walk,36,,36.0,20.0,1.0,0.0,1.0,-7.36,0.82,-4.087,0.0,27.0,22.74,0.0,0.0,9.0,0.0,0.0,-7.97,-0.15,-1.1,-0.11,7.58,1.76,-69.1,1.0,1.0,1.0,0.0,50.0
680,1,walk,walk,37,,37.0,20.0,1.0,0.0,1.0,-7.1,0.755,-4.432,0.0,27.0,22.74,0.0,0.0,9.0,0.0,0.0,-9.11,-0.18,-1.1,-0.11,9.06,8.41,-73.54,1.0,1.0,1.0,0.0,50.0
740,1,walk,walk,38,,38.0,20.0,1.0,0.0,1.0,-6.74,0.688,-4.453,0.0,27.0,22.74,0.0,0.0,9.0,0.0,0.0,-10.16,-0.19,-1.09,-0.11,10.67,15.14,-77.07,1.0,1.0,1.0,0.0,50.0
740,1,walk,walk,39,,39.0,20.0,1.0,0.0,1.0,-6.28,0.624,-4.185,0.0,27.0,22.74,0.0,0.0,9.0,0.0,0.0,-11.07,-0.21,-1.07,-0.1,12.49,21.45,-79.71,1.0,1.0,1.0,0.0,50.0
740,1,walk,walk,40,,40.0,20.0,1.0,0.0,1.0,-5.72,0.561,-3.881,0.0,27.0,22.74,0.0,0.0,9.0,0.0,0.0,-11.78,-0.22,-1.06,-0.1,14.51,27.09,-81.57,1.0,1.0,1.0,0.0,50.0
820,1,walk,walk,41,,41.0,20.0,0.0,0.0,1.0,-5.06,0.509,-3.148,0.0,27.0,22.74,0.0,0.0,8.0,0.0,0.0,-12.21,-0.23,-1.05,-0.09,16.65,31.98,-82.75,1.0,1.0,1.0,0.0,50.0
820,1,walk,walk,42,,42.0,20.0,0.0,0.0,1.0,-4.32,0.464,-3.06,0.0,27.0,22.74,0.0,0.0,8.0,0.0,0.0,-12.35,-0.23,-1.04,-0.08,18.76,36.15,-83.37,2.0,1.0,1.0,0.0,50.0
820,1,walk,walk,43,,43.0,20.0,0.0,0.0,1.0,-3.49,0.416,-3.292,0.0,27.0,22.77,0.0,0.0,8.0,0.0,0.0,-12.17,-0.22,-1.03,-0.08,20.67,39.74,-83.44,2.0,1.0,1.0,0.0,50.0
820,1,walk,walk,44,,44.0,20.0,1.0,0.0,1.0,-2.59,0.367,-3.227,0.0,27.0,22.74,0.0,0.0,9.0,0.0,0.0,-11.73,-0.21,-1.02,-0.07,22.27,42.79,-82.88,2.0,1.0,1.0,0.0,50.0
880,1,walk,walk,45,,45.0,20.0,1.0,0.0,1.0,-1.63,0.32,-3.038,0.0,27.0,22.77,0.0,0.0,9.0,0.0,0.0,-11.07,-0.2,-1.0,-0.06,23.48,45.09,-81.54,2.0,1.0,1.0,0.0,50.0
880,1,walk,walk,46,,46.0,20.0,1.0,0.0,1.0,-0.61,0.277,-2.697,0.0,27.0,22.74,0.0,0.0,9.0,0.0,0.0,-10.22,-0.18,-0.99,-0.06,24.24,46.25,-79.24,2.0,1.0,1.0,0.0,50.0
880,1,walk,walk,47,,47.0,20.0,1.0,0.0,1.0,0.45,0.244,-1.725,0.0,27.0,22.74,0.0,0.0,9.0,0.0,0.0,-9.19,-0.16,-0.98,-0.05,24.47,45.73,-75.89,2.0,1.0,1.0,0.0,50.0
940,1,walk,walk,48,,48.0,20.0,1.0,0.0,1.0,1.54,0.226,-0.677,0.0,27.0,22.74,0.0,0.0,9.0,0.0,0.0,-7.93,-0.13,-0.97,-0.04,24.03,43.1,-71.49,2.0,1.0,1.0,0.0,50.0
940,1,walk,walk,49,,49.0,20.0,1.0,0.0,1.0,2.66,0.223,0.045,0.0,27.0,22.74,0.0,0.0,9.0,0.0,0.0,-6.4,-0.11,-0.95,-0.04,22.79,38.34,-66.14,2.0,1.0,1.0,0.0,50.0
940,1,walk,walk,50,,50.0,20.0,0.0,0.0,1.0,3.79,0.223,0.023,0.0,27.0,22.74,0.0,0.0,7.0,0.0,0.0,-4.63,-0.08,-0.94,-0.04,20.67,32.06,-59.94,2.0,1.0,1.0,0.0,50.0
1020,1,walk,walk,51,,51.0,20.0,0.0,0.0,1.0,4.93,0.223,0.028,0.0,27.0,22.74,0.0,0.0,7.0,0.0,0.0,-2.66,-0.04,-0.92,-0.04,17.68,25.32,-52.97,2.0,1.0,1.0,0.0,50.0
1020,1,walk,walk,52,,52.0,20.0,1.0,0.0,1.0,6.06,0.222,-0.156,0.0,27.0,22.74,0.0,0.0,8.0,0.0,0.0,-0.6,-0.01,-0.91,-0.03,13.99,19.17,-45.41,2.0,1.0,1.0,0.0,50.0
1020,1,walk,walk,53,,53.0,20.0,1.0,0.0,1.0,7.17,0.213,-0.769,0.0,27.0,22.74,0.0,0.0,8.0,0.0,0.0,1.44,0.02,-0.91,-0.03,9.99,14.62,-37.54,2.0,1.0,1.0,0.0,50.0
1080,1,walk,walk,54,,54.0,20.0,1.0,0.0,1.0,8.24,0.205,-0.269,0.0,27.0,22.74,0.0,0.0,8.0,0.0,0.0,3.37,0.05,-0.91,-0.02,6.07,12.28,-29.58,2.0,1.0,1.0,0.0,50.0
1080,1,walk,walk,55,,55.0,20.0,0.0,0.0,1.0,9.28,0.203,-0.084,0.0,27.0,22.74,0.0,0.0,7.0,0.0,0.0,5.09,0.08,-0.92,-0.01,2.5,12.01,-21.59,2.0,1.0,1.0,0.0,50.0
1080,1,walk,walk,56,,56.0,20.0,0.0,0.0,1.0,10.27,0.2,-0.21,0.0,27.0,22.74,0.0,0.0,7.0,0.0,0.0,6.51,0.11,-0.94,0.01,-0.66,13.29,-13.67,2.0,1.0,1.0,0.0,50.0
1140,1,walk,walk,57,,57.0,20.0,1.0,0.0,1.0,11.19,0.2,0.076,0.0,27.0,22.74,0.0,0.0,8.0,0.0,0.0,7.59,0.13,-0.96,0.02,-3.55,15.43,-5.98,2.0,1.0,1.0,0.0,50.0
1140,1,walk,walk,58,,58.0,20.0,1.0,0.0,1.0,12.05,0.205,0.563,0.0,27.0,22.74,0.0,0.0,8.0,0.0,0.0,8.24,0.14,-0.98,0.03,-6.38,17.66,1.28,2.0,1.0,1.0,0.0,50.0
1140,1,walk,walk,59,,59.0,20.0,1.0,0.0,1.0,12.83,0.212,0.288,0.0,27.0,22.74,0.0,0.0,8.0,0.0,0.0,8.43,0.15,-1.0,0.04,-9.21,19.16,7.91,2.0,1.0,1.0,0.0,50.0
1160,1,walk,walk,60,,60.0,20.0,1.0,0.0,1.0,13.52,0.213,0.052,0.0,27.0,22.77,0.0,0.0,8.0,0.0,0.0,8.26,0.15,-1.01,0.04,-11.92,19.51,13.8,2.0,1.0,1.0,0.0,50.0
1220,1,walk,walk,61,,61.0,20.0,1.0,0.0,1.0,14.12,0.212,-0.088,0.0,27.0,22.77,0.0,0.0,8.0,0.0,0.0,7.86,0.14,-1.02,0.04,-14.4,18.79,19.0,2.0,1.0,1.0,0.0,50.0
1220,1,walk,walk,62,,62.0,20.0,0.0,0.0,1.0,14.63,0.211,-0.241,0.0,27.0,22.74,0.0,0.0,7.0,0.0,0.0,7.33,0.13,-1.03,0.03,-16.57,17.46,23.64,2.0,1.0,1.0,0.0,50.0
1280,1,walk,walk,63,,63.0,20.0,0.0,0.0,1.0,15.03,0.21,-0.003,0.0,27.0,22.77,0.0,0.0,7.0,0.0,0.0,6.75,0.12,-1.04,0.02,-18.38,16.03,27.76,2.0,1.0,1.0,0.0,50.0
1280,1,walk,walk,64,,64.0,20.0,0.0,0.0,1.0,15.33,0.21,0.03,0.0,27.0,22.77,0.0,0.0,7.0,0.0,0.0,6.1,0.11,-1.04,0.01,-19.82,14.8,31.36,2.0,1.0,1.0,0.0,50.0
1280,1,walk,walk,65,,65.0,20.0,0.0,0.0,1.0,15.53,0.209,-0.131,0.0,27.0,22.74,0.0,0.0,7.0,0.0,0.0,5.37,0.1,-1.04,-0.01,-20.92,13.71,34.41,2.0,1.0,1.0,0.0,50.0
1340,1,walk,walk,66,,66.0,20.0,1.0,0.0,1.0,15.62,0.207,-0.104,0.0,27.0,22.74,0.0,0.0,7.0,0.0,0.0,4.58,0.08,-1.04,-0.02,-21.72,12.54,36.95,2.0,1.0,1.0,0.0,50.0
1340,1,walk,walk,67,,67.0,20.0,1.0,0.0,1.0,15.62,0.207,0.032,0.0,27.0,22.77,0.0,0.0,7.0,0.0,0.0,3.76,0.07,-1.04,-0.04,-22.28,11.1,38.99,2.0,1.0,1.0,0.0,50.0
1340,1,walk,walk,68,,68.0,20.0,1.0,0.0,1.0,15.51,0.207,0.095,0.0,27.0,22.77,0.0,0.0,7.0,0.0,0.0,2.96,0.05,-1.03,-0.05,-22.63,9.33,40.54,2.0,1.0,1.0,0.0,50.0
1340,1,walk,walk,69,,69.0,20.0,1.0,0.0,1.0,15.31,0.207,-0.029,0.0,27.0,22.74,0.0,0.0,6.0,0.0,0.0,2.24,0.04,-1.03,-0.07,-22.79,7.32,41.64,2.0,1.0,1.0,0.0,50.0
1340,1,walk,walk,70,,70.0,20.0,1.0,0.0,1.0,15.01,0.207,0.084,0.0,27.0,22.77,0.0,0.0,6.0,0.0,0.0,1.61,0.03,-1.03,-0.08,-22.77,5.25,42.37,2.0,1.0,1.0,0.0,50.0
1400,1,walk,walk,71,,71.0,20.0,0.0,0.0,1.0,14.64,0.207,0.017,0.0,27.0,22.74,0.0,0.0,5.0,0.0,0.0,1.09,0.02,-1.02,-0.09,-22.58,3.33,42.79,2.0,1.0,1.0,0.0,50.0
1400,1,walk,walk,72,,72.0,20.0,0.0,0.0,1.0,14.18,0.207,0.037,0.0,27.0,22.74,0.0,0.0,4.0,0.0,0.0,0.64,0.01,-1.02,-0.1,-22.24,1.74,42.98,3.0,1.0,1.0,0.0,50.0
1420,1,walk,walk,73,,73.0,20.0,0.0,0.0,1.0,13.65,0.207,-0.023,0.0,27.0,22.77,0.0,0.0,4.0,0.0,0.0,0.25,0.0,-1.02,-0.11,-21.78,0.58,42.99,3.0,1.0,1.0,0.0,50.0
1480,1,walk,walk,74,,74.0,20.0,0.0,0.0,1.0,13.06,0.207,0.046,0.0,27.0,22.77,0.0,0.0,4.0,0.0,0.0,-0.15,0.0,-1.02,-0.11,-21.22,-0.18,42.85,3.0,1.0,1.0,0.0,50.0
1480,1,walk,walk,75,,75.0,20.0,1.0,0.0,1.0,12.41,0.207,0.025,0.0,27.0,22.74,0.0,0.0,5.0,0.0,0.0,-0.58,-0.01,-1.01,-0.12,-20.59,-0.61,42.62,3.0,1.0,1.0,0.0,50.0
1480,1,walk,walk,76,,76.0,20.0,1.0,0.0,1.0,11.71,0.207,-0.019,0.0,27.0,22.74,0.0,0.0,4.0,0.0,0.0,-1.05,-0.02,-1.01,-0.12,-19.89,-0.86,42.32,3.0,1.0,1.0,0.0,50.0
1480,1,walk,walk,77,,77.0,20.0,0.0,0.0,1.0,10.96,0.207,0.044,0.0,27.0,22.74,0.0,0.0,3.0,0.0,0.0,-1.54,-0.03,-1.01,-0.13,-19.16,-1.03,41.98,3.0,1.0,1.0,0.0,50.0
1540,1,walk,walk,78,,78.0,20.0,0.0,0.0,1.0,10.19,0.207,0.044,0.0,27.0,22.74,0.0,0.0,3.0,0.0,0.0,-2.03,-0.04,-1.0,-0.13,-18.43,-1.18,41.62,3.0,1.0,1.0,0.0,50.0
1540,1,walk,walk,79,,79.0,20.0,0.0,0.0,1.0,9.38,0.207,0.011,0.0,27.0,22.74,0.0,0.0,3.0,0.0,0.0,-2.49,-0.04,-1.0,-0.13,-17.71,-1.31,41.28,3.0,1.0,1.0,0.0,50.0
1540,1,walk,walk,80,,80.0,20.0,1.0,0.0,1.0,8.55,0.207,-0.032,0.0,27.0,22.77,0.0,0.0,4.0,0.0,0.0,-2.91,-0.05,-1.0,-0.13,-17.02,-1.43,40.96,3.0,1.0,1.0,0.0,50.0
1600,1,walk,walk,81,,81.0,20.0,1.0,0.0,1.0,7.7,0.208,-0.036,0.0,27.0,22.77,0.0,0.0,4.0,0.0,0.0,-3.27,-0.06,-1.0,-0.13,-16.36,-1.5,40.69,3.0,1.0,1.0,0.0,50.0
1600,1,walk,walk,82,,82.0,20.0,1.0,0.0,1.0,6.84,0.209,0.164,0.0,27.0,22.74,0.0,0.0,4.0,0.0,0.0,-3.57,-0.06,-0.99,-0.13,-15.74,-1.5,40.49,3.0,1.0,1.0,0.0,50.0
1600,1,walk,walk,83,,83.0,20.0,1.0,0.0,1.0,5.97,0.213,0.498,0.0,27.0,22.74,0.0,0.0,4.0,0.0,0.0,-3.82,-0.07,-0.99,-0.14,-15.15,-1.42,40.36,3.0,1.0,1.0,0.0,50.0
1680,1,walk,walk,84,,84.0,20.0,1.0,0.0,1.0,5.1,0.221,0.489,0.0,27.0,22.74,0.0,0.0,4.0,0.0,0.0,-4.05,-0.07,-0.99,-0.14,-14.57,-1.28,40.28,3.0,1.0,1.0,0.0,50.0
1680,1,walk,walk,85,,85.0,20.0,1.0,0.0,1.0,4.23,0.228,0.472,0.0,27.0,22.74,0.0,0.0,4.0,0.0,0.0,-4.29,-0.07,-0.99,-0.14,-14.01,-1.18,40.23,3.0,1.0,1.0,0.0,50.0
1680,1,walk,walk,86,,86.0,20.0,0.0,0.0,1.0,3.35,0.237,0.575,0.0,27.0,22.74,0.0,0.0,3.0,0.0,0.0,-4.56,-0.08,-0.99,-0.14,-13.46,-1.25,40.23,3.0,1.0,1.0,0.0,50.0
1740,1,walk,walk,87,,87.0,20.0,0.0,0.0,1.0,2.48,0.248,0.892,0.0,27.0,22.74,0.0,0.0,3.0,0.0,0.0,-4.87,-0.08,-1.0,-0.14,-12.94,-1.76,40.2,3.0,1.0,1.0,0.0,50.0
1740,1,walk,walk,88,,88.0,20.0,0.0,0.0,1.0,1.62,0.259,0.765,0.0,27.0,22.74,0.0,0.0,3.0,0.0,0.0,-5.16,-0.09,-1.0,-0.14,-12.47,-2.93,40.13,3.0,1.0,1.0,0.0,50.0
1740,1,walk,walk,89,,89.0,20.0,1.0,0.0,1.0,0.76,0.273,1.211,0.0,27.0,22.74,0.0,0.0,4.0,0.0,0.0,-5.37,-0.09,-1.01,-0.14,-12.02,-4.83,39.98,3.0,1.0,1.0,0.0,50.0
1800,1,walk,walk,90,,90.0,20.0,1.0,0.0,1.0,-0.09,0.292,1.322,0.0,27.0,22.77,0.0,0.0,4.0,0.0,0.0,-5.43,-0.1,-1.01,-0.14,-11.55,-7.32,39.73,3.0,1.0,1.0,0.0,50.0
1800,1,walk,walk,91,,91.0,20.0,1.0,0.0,1.0,-0.93,0.316,1.733,0.0,27.0,22.74,0.0,0.0,4.0,0.0,0.0,-5.29,-0.09,-1.02,-0.14,-11.01,-10.13,39.32,3.0,1.0,1.0,0.0,50.0
1800,1,walk,walk,92,,92.0,20.0,1.0,0.0,1.0,-1.76,0.346,2.145,0.0,27.0,22.74,0.0,0.0,4.0,0.0,0.0,-4.92,-0.09,-1.03,-0.14,-10.37,-13.0,38.68,3.0,1.0,1.0,0.0,50.0
1800,1,walk,walk,93,,93.0,20.0,1.0,0.0,1.0,-2.58,0.382,2.465,0.0,27.0,22.77,0.0,0.0,4.0,0.0,0.0,-4.35,-0.08,-1.04,-0.13,-9.57,-15.81,37.75,3.0,1.0,1.0,0.0,50.0
1880,1,walk,walk,94,,94.0,20.0,1.0,0.0,1.0,-3.38,0.419,2.72,0.0,27.0,22.74,0.0,0.0,4.0,0.0,0.0,-3.6,-0.07,-1.05,-0.13,-8.59,-18.67,36.44,3.0,1.0,1.0,0.0,50.0
1880,1,walk,walk,95,,95.0,20.0,0.0,0.0,1.0,-4.17,0.464,3.233,0.0,27.0,22.74,0.0,0.0,3.0,0.0,0.0,-2.71,-0.05,-1.06,-0.12,-7.41,-21.7,34.61,3.0,1.0,1.0,0.0,50.0
1940,1,walk,walk,96,,96.0,20.0,0.0,0.0,1.0,-4.95,0.521,4.202,0.0,27.0,22.77,0.0,0.0,3.0,0.0,0.0,-1.71,-0.03,-1.07,-0.11,-6.12,-24.88,32.04,3.0,1.0,1.0,0.0,50.0
1940,1,walk,walk,97,,97.0,20.0,0.0,0.0,1.0,-5.7,0.588,4.811,0.0,27.0,22.74,0.0,0.0,3.0,0.0,0.0,-0.64,-0.01,-1.07,-0.1,-4.86,-28.08,28.52,3.0,1.0,1.0,0.0,50.0
1940,1,walk,walk,98,,98.0,20.0,0.0,0.0,1.0,-6.43,0.662,5.06,0.0,27.0,22.74,0.0,0.0,3.0,0.0,0.0,0.4,0.01,-1.08,-0.09,-3.78,-31.06,23.92,3.0,1.0,1.0,0.0,50.0
1940,1,walk,walk,99,,99.0,20.0,1.0,0.0,1.0,-7.12,0.736,4.734,0.0,27.0,22.74,0.0,0.0,4.0,0.0,0.0,1.32,0.02,-1.08,-0.08,-2.94,-33.49,18.22,3.0,1.0,1.0,0.0,50.0
2000,1,walk,walk,100,,100.0,20.0,1.0,0.0,1.0,-7.78,0.803,4.163,0.0,27.0,22.74,0.0,0.0,4.0,0.0,0.0,2.0,0.04,-1.08,-0.08,-2.37,-35.07,11.5,3.0,1.0,1.0,0.0,50.0
2000,1,walk,walk,101,,101.0,20.0,1.0,0.0,1.0,-8.4,0.859,3.409,0.0,27.0,22.77,0.0,0.0,4.0,0.0,0.0,2.35,0.04,-1.08,-0.08,-2.04,-35.55,3.95,4.0,1.0,1.0,0.0,50.0
2000,1,walk,walk,102,,102.0,20.0,0.0,0.0,1.0,-8.97,0.904,2.937,0.0,27.0,22.74,0.0,0.0,3.0,0.0,0.0,2.27,0.04,-1.08,-0.08,-1.94,-34.84,-4.14,4.0,1.0,1.0,0.0,50.0
2000,1,walk,walk,103,,103.0,20.0,1.0,0.0,1.0,-9.47,0.942,2.193,0.0,27.0,22.74,0.0,0.0,4.0,0.0,0.0,1.74,0.03,-1.09,-0.08,-1.94,-33.17,-12.45,4.0,1.0,1.0,0.0,50.0
2060,1,walk,walk,104,,104.0,20.0,1.0,0.0,1.0,-9.91,0.966,0.977,0.0,27.0,22.74,0.0,0.0,4.0,0.0,0.0,0.8,0.02,-1.09,-0.09,-1.87,-30.91,-20.71,4.0,1.0,1.0,0.0,50.0
2060,1,walk,walk,105,,105.0,20.0,1.0,0.0,1.0,-10.27,0.972,0.007,0.0,27.0,22.74,0.0,0.0,4.0,0.0,0.0,-0.47,-0.01,-1.09,-0.1,-1.55,-28.28,-28.75,4.0,1.0,1.0,0.0,50.0
2060,1,walk,walk,106,,106.0,20.0,1.0,0.0,1.0,-10.54,0.97,-0.367,0.0,27.0,22.74,0.0,0.0,4.0,0.0,0.0,-1.93,-0.04,-1.1,-0.1,-0.93,-25.38,-36.49,4.0,1.0,1.0,0.0,50.0
2140,1,walk,walk,107,,107.0,20.0,1.0,0.0,1.0,-10.72,0.958,-1.271,0.0,27.0,22.74,0.0,0.0,3.0,0.0,0.0,-3.45,-0.07,-1.1,-0.11,-0.01,-22.14,-43.85,4.0,1.0,1.0,0.0,50.0
2140,1,walk,walk,108,,108.0,20.0,1.0,0.0,1.0,-10.8,0.93,-2.263,0.0,27.0,22.74,0.0,0.0,3.0,0.0,0.0,-4.94,-0.1,-1.1,-0.11,1.13,-18.53,-50.77,4.0,1.0,1.0,0.0,50.0
2140,1,walk,walk,109,,109.0,20.0,0.0,0.0,1.0,-10.79,0.888,-3.176,0.0,27.0,22.74,0.0,0.0,2.0,0.0,0.0,-6.34,-0.12,-1.1,-0.11,2.4,-14.47,-57.13,4.0,1.0,1.0,0.0,50.0
2140,1,walk,walk,110,,110.0,20.0,0.0,0.0,1.0,-10.67,0.834,-3.83,0.0,27.0,22.77,0.0,0.0,1.0,0.0,0.0,-7.6,-0.15,-1.1,-0.11,3.7,-9.78,-62.79,4.0,1.0,1.0,0.0,50.0
2200,1,walk,walk,111,,111.0,20.0,0.0,0.0,1.0,-10.44,0.771,-4.269,0.0,27.0,22.74,0.0,0.0,1.0,0.0,0.0,-8.72,-0.17,-1.09,-0.1,5.04,-4.38,-67.65,4.0,1.0,1.0,0.0,50.0
2200,1,walk,walk,112,,112.0,20.0,1.0,0.0,1.0,-10.12,0.707,-4.402,0.0,27.0,22.74,0.0,0.0,2.0,0.0,0.0,-9.73,-0.19,-1.08,-0.1,6.47,1.57,-71.63,4.0,1.0,1.0,0.0,50.0
2200,1,walk,walk,113,,113.0,20.0,1.0,0.0,1.0,-9.69,0.642,-4.311,0.0,27.0,22.74,0.0,0.0,2.0,0.0,0.0,-10.63,-0.2,-1.07,-0.1,8.07,7.73,-74.74,4.0,1.0,1.0,0.0,50.0
2260,1,walk,walk,114,,114.0,20.0,1.0,0.0,1.0,-9.16,0.582,-4.179,0.0,27.0,22.74,0.0,0.0,2.0,0.0,0.0,-11.37,-0.21,-1.06,-0.09,9.91,13.68,-77.05,4.0,1.0,1.0,0.0,50.0
2260,1,walk,walk,115,,115.0,20.0,1.0,0.0,1.0,-8.54,0.524,-3.657,0.0,27.0,22.77,0.0,0.0,2.0,0.0,0.0,-11.89,-0.22,-1.05,-0.09,12.0,19.19,-78.68,4.0,1.0,1.0,0.0,50.0
2260,1,walk,walk,116,,116.0,20.0,1.0,0.0,1.0,-7.83,0.473,-3.163,0.0,27.0,22.74,0.0,0.0,2.0,0.0,0.0,-12.15,-0.22,-1.04,-0.08,14.24,24.14,-79.74,4.0,1.0,1.0,0.0,50.0
2340,1,walk,walk,117,,117.0,20.0,0.0,0.0,1.0,-7.05,0.426,-3.226,0.0,27.0,22.74,0.0,0.0,1.0,0.0,0.0,-12.12,-0.22,-1.03,-0.08,16.45,28.48,-80.28,4.0,1.0,1.0,0.0,50.0
2340,1,walk,walk,118,,118.0,20.0,0.0,0.0,1.0,-6.19,0.377,-3.328,0.0,27.0,22.74,0.0,0.0,1.0,0.0,0.0,-11.8,-0.21,-1.02,-0.07,18.47,32.21,-80.31,4.0,1.0,1.0,0.0,50.0
2340,1,walk,walk,119,,119.0,20.0,0.0,0.0,1.0,-5.27,0.329,-3.155,0.0,27.0,22.74,0.0,0.0,1.0,0.0,0.0,-11.22,-0.2,-1.01,-0.07,20.15,35.33,-79.73,4.0,1.0,1.0,0.0,50.0
2400,1,walk,walk,120,,120.0,20.0,0.0,0.0,1.0,-4.29,0.282,-2.974,0.0,27.0,22.77,0.0,0.0,1.0,0.0,0.0,-10.45,-0.18,-1.0,-0.06,21.42,37.58,-78.37,4.0,1.0,1.0,0.0,50.0
2400,1,walk,walk,121,,121.0,20.0,1.0,0.0,1.0,-3.27,0.242,-2.477,0.0,27.0,22.74,0.0,0.0,2.0,0.0,0.0,-9.5,-0.17,-0.99,-0.05,22.22,38.59,-76.07,5.0,1.0,1.0,0.0,50.0
2400,1,walk,walk,122,,122.0,20.0,1.0,0.0,1.0,-2.21,0.215,-1.149,0.0,27.0,22.74,0.0,0.0,2.0,0.0,0.0,-8.35,-0.14,-0.98,-0.05,22.5,37.95,-72.75,5.0,1.0,1.0,0.0,50.0
2460,1,walk,walk,123,,123.0,20.0,1.0,0.0,1.0,-1.12,0.208,0.057,0.0,27.0,22.74,0.0,0.0,2.0,0.0,0.0,-6.92,-0.12,-0.97,-0.04,22.15,35.43,-68.45,5.0,1.0,1.0,0.0,50.0
2460,1,walk,walk,124,,124.0,20.0,1.0,0.0,1.0,-0.01,0.21,0.177,0.0,27.0,22.74,0.0,0.0,2.0,0.0,0.0,-5.2,-0.09,-0.96,-0.04,21.1,31.24,-63.33,5.0,1.0,1.0,0.0,50.0
2460,1,walk,walk,125,,125.0,20.0,1.0,0.0,1.0,1.11,0.213,0.367,0.0,27.0,22.74,0.0,0.0,2.0,0.0,0.0,-3.26,-0.05,-0.95,-0.03,19.29,26.08,-57.47,5.0,1.0,1.0,0.0,50.0
2520,1,walk,walk,126,,126.0,20.0,0.0,0.0,1.0,2.23,0.22,0.296,0.0,27.0,22.74,0.0,0.0,1.0,0.0,0.0,-1.23,-0.02,-0.93,-0.03,16.73,20.84,-50.95,5.0,1.0,1.0,0.0,50.0
2520,1,walk,walk,127,,127.0,20.0,0.0,0.0,1.0,3.35,0.218,-0.43,0.0,27.0,22.74,0.0,0.0,1.0,0.0,0.0,0.72,0.01,-0.92,-0.03,13.54,16.23,-43.86,5.0,1.0,1.0,0.0,50.0
2520,1,walk,walk,128,,128.0,20.0,1.0,0.0,1.0,4.44,0.207,-0.969,0.0,27.0,22.74,0.0,0.0,2.0,0.0,0.0,2.46,0.04,-0.92,-0.03,10.02,12.79,-36.46,5.0,1.0,1.0,0.0,50.0
2520,1,walk,walk,129,,129.0,20.0,1.0,0.0,1.0,5.5,0.197,-0.438,0.0,27.0,22.74,0.0,0.0,2.0,0.0,0.0,3.95,0.06,-0.92,-0.02,6.49,10.87,-28.96,5.0,1.0,1.0,0.0,50.0
2600,1,walk,walk,130,,130.0,20.0,1.0,0.0,1.0,6.53,0.196,0.057,0.0,27.0,22.74,0.0,0.0,2.0,0.0,0.0,5.23,0.08,-0.93,-0.01,3.19,10.3,-21.51,5.0,1.0,1.0,0.0,50.0
2600,1,walk,walk,131,,131.0,20.0,1.0,0.0,1.0,7.51,0.196,0.001,0.0,27.0,22.74,0.0,0.0,2.0,0.0,0.0,6.32,0.1,-0.94,0.0,0.24,10.77,-14.19,5.0,1.0,1.0,0.0,50.0
2660,1,walk,walk,132,,132.0,20.0,0.0,0.0,1.0,8.44,0.196,-0.032,0.0,27.0,22.74,0.0,0.0,1.0,0.0,0.0,7.22,0.12,-0.96,0.01,-2.43,11.89,-7.11,5.0,1.0,1.0,0.0,50.0
2660,1,walk,walk,133,,133.0,20.0,0.0,0.0,1.0,9.3,0.199,0.297,0.0,27.0,22.74,0.0,0.0,1.0,0.0,0.0,7.91,0.14,-0.98,0.02,-4.99,13.29,-0.39,5.0,1.0,1.0,0.0,50.0
2660,1,walk,walk,134,,134.0,20.0,0.0,0.0,1.0,10.08,0.205,0.492,0.0,27.0,22.74,0.0,0.0,1.0,0.0,0.0,8.3,0.14,-0.99,0.03,-7.51,14.55,5.87,5.0,1.0,1.0,0.0,50.0
2660,1,walk,walk,135,,135.0,20.0,1.0,0.0,1.0,10.79,0.208,0.013,0.0,27.0,22.77,0.0,0.0,2.0,0.0,0.0,8.38,0.15,-1.01,0.03,-9.95,15.29,11.56,5.0,1.0,1.0,0.0,50.0
2720,1,walk,walk,136,,136.0,20.0,1.0,0.0,1.0,11.41,0.208,-0.066,0.0,27.0,22.74,0.0,0.0,2.0,0.0,0.0,8.19,0.15,-1.02,0.03,-12.22,15.36,16.65,5.0,1.0,1.0,0.0,50.0
2720,1,walk,walk,137,,137.0,20.0,1.0,0.0,1.0,11.94,0.207,-0.048,0.0,27.0,22.77,0.0,0.0,2.0,0.0,0.0,7.84,0.14,-1.02,0.03,-14.25,14.94,21.23,5.0,1.0,1.0,0.0,50.0
2720,1,walk,walk,138,,138.0,20.0,1.0,0.0,1.0,12.38,0.207,-0.006,0.0,27.0,22.74,0.0,0.0,2.0,0.0,0.0,7.39,0.13,-1.03,0.02,-16.01,14.43,25.34,5.0,1.0,1.0,0.0,50.0
2720,1,walk,walk,139,,139.0,20.0,1.0,0.0,1.0,12.72,0.207,-0.022,0.0,27.0,22.77,0.0,0.0,2.0,0.0,0.0,6.87,0.12,-1.03,0.01,-17.48,14.11,28.95,5.0,1.0,1.0,0.0,50.0
2780,1,walk,walk,140,,140.0,20.0,1.0,0.0,1.0,12.97,0.207,-0.042,0.0,27.0,22.74,0.0,0.0,2.0,0.0,0.0,6.27,0.11,-1.03,0.0,-18.67,14.01,32.06,5.0,1.0,1.0,0.0,50.0
2780,1,walk,walk,141,,141.0,20.0,0.0,0.0,1.0,13.11,0.207,-0.013,0.0,27.0,22.74,0.0,0.0,1.0,0.0,0.0,5.61,0.1,-1.03,-0.02,-19.6,13.98,34.68,5.0,1.0,1.0,0.0,50.0
2780,1,walk,walk,142,,142.0,20.0,0.0,0.0,1.0,13.16,0.206,-0.048,0.0,27.0,22.74,0.0,0.0,1.0,0.0,0.0,4.9,0.09,-1.03,-0.03,-20.28,13.79,36.83,5.0,1.0,1.0,0.0,50.0
2860,1,walk,walk,143,,143.0,20.0,0.0,0.0,1.0,13.12,0.206,0.002,0.0,27.0,22.74,0.0,0.0,1.0,0.0,0.0,4.18,0.07,-1.03,-0.05,-20.76,13.33,38.54,5.0,1.0,1.0,0.0,50.0
2860,1,walk,walk,144,,144.0,20.0,0.0,0.0,1.0,12.99,0.206,-0.05,0.0,27.0,22.74,0.0,0.0,1.0,0.0,0.0,3.47,0.06,-1.02,-0.06,-21.05,12.55,39.86,5.0,1.0,1.0,0.0,50.0
2860,1,walk,walk,145,,145.0,20.0,1.0,0.0,1.0,12.76,0.207,0.014,0.0,27.0,22.74,0.0,0.0,2.0,0.0,0.0,2.81,0.05,-1.02,-0.07,-21.18,11.5,40.81,5.0,1.0,1.0,0.0,50.0
2900,1,walk,walk,146,,146.0,20.0,1.0,0.0,1.0,12.46,0.207,0.017,0.0,27.0,22.74,0.0,0.0,2.0,0.0,0.0,2.21,0.04,-1.02,-0.08,-21.16,10.27,41.47,5.0,1.0,1.0,0.0,50.0
2920,1,walk,walk,147,,147.0,20.0,1.0,0.0,1.0,12.08,0.207,0.011,0.0,27.0,22.74,0.0,0.0,1.0,0.0,0.0,1.66,0.03,-1.02,-0.09,-21.02,8.98,41.88,5.0,1.0,1.0,0.0,50.0
2920,1,walk,walk,148,,148.0,20.0,1.0,0.0,1.0,11.64,0.207,-0.079,0.0,27.0,22.74,0.0,0.0,1.0,0.0,0.0,1.15,0.02,-1.01,-0.1,-20.76,7.72,42.08,5.0,1.0,1.0,0.0,50.0
2920,1,walk,walk,149,,149.0,20.0,1.0,0.0,1.0,11.12,0.207,0.034,0.0,27.0,22.74,0.0,0.0,1.0,0.0,0.0,0.66,0.01,-1.01,-0.11,-20.4,6.59,42.13,5.0,1.0,1.0,0.0,50.0
2980,1,walk,walk,150,,150.0,20.0,1.0,0.0,1.0,10.55,0.207,-0.023,0.0,27.0,22.74,0.0,0.0,0.0,0.0,0.0,0.17,0.0,-1.01,-0.11,-19.97,5.58,42.07,5.0,1.0,1.0,0.0,50.0
2980,1,walk,walk,151,,151.0,20.0,0.0,0.0,1.0,9.93,0.207,-0.023,0.0,27.0,22.74,0.0,0.0,19.0,0.0,0.0,-0.32,-0.01,-1.01,-0.12,-19.47,4.65,41.93,6.0,1.0,1.0,0.0,50.0
3040,1,walk,walk,152,,152.0,20.0,0.0,0.0,1.0,9.27,0.207,-0.04,0.0,27.0,22.74,0.0,0.0,14.0,0.0,0.0,-0.81,-0.01,-1.0,-0.12,-18.94,3.75,41.74,6.0,1.0,1.0,0.0,50.0
3040,1,walk,walk,153,,153.0,20.0,1.0,0.0,1.0,8.57,0.207,-0.075,0.0,27.0,22.74,0.0,0.0,9.0,0.0,0.0,-1.28,-0.02,-1.0,-0.12,-18.39,2.83,41.54,6.0,1.0,1.0,0.0,50.0
3040,1,walk,walk,154,,154.0,20.0,1.0,0.0,1.0,7.84,0.207,0.026,0.0,27.0,22.74,0.0,0.0,9.0,0.0,0.0,-1.7,-0.03,-1.0,-0.12,-17.85,1.94,41.35,6.0,1.0,1.0,0.0,50.0
3040,1,walk,walk,155,,155.0,20.0,1.0,0.0,1.0,7.08,0.207,0.045,0.0,27.0,22.77,0.0,0.0,9.0,0.0,0.0,-2.06,-0.04,-1.0,-0.13,-17.33,1.06,41.19,6.0,1.0,1.0,0.0,50.0
3120,1,walk,walk,156,,156.0,20.0,0.0,0.0,1.0,6.3,0.208,0.076,0.0,27.0,22.74,0.0,0.0,8.0,0.0,0.0,-2.36,-0.04,-1.0,-0.13,-16.83,0.21,41.08,6.0,1.0,1.0,0.0,50.0
3120,1,walk,walk,157,,157.0,20.0,0.0,0.0,1.0,5.5,0.212,0.357,0.0,27.0,22.74,0.0,0.0,8.0,0.0,0.0,-2.59,-0.05,-1.0,-0.13,-16.37,-0.62,41.02,6.0,1.0,1.0,0.0,50.0
3120,1,walk,walk,158,,158.0,20.0,0.0,0.0,1.0,4.69,0.22,0.625,0.0,27.0,22.74,0.0,0.0,8.0,0.0,0.0,-2.74,-0.05,-1.0,-0.13,-15.95,-1.41,40.95,6.0,1.0,1.0,0.0,50.0
3180,1,walk,walk,159,,159.0,20.0,0.0,0.0,1.0,3.88,0.228,0.554,0.0,27.0,22.74,0.0,0.0,8.0,0.0,0.0,-2.87,-0.05,-1.0,-0.13,-15.59,-2.12,40.89,6.0,1.0,1.0,0.0,50.0
3180,1,walk,walk,160,,160.0,20.0,1.0,0.0,1.0,3.05,0.238,0.63,0.0,27.0,22.74,0.0,0.0,9.0,0.0,0.0,-3.01,-0.05,-1.0,-0.13,-15.25,-2.76,40.85,6.0,1.0,1.0,0.0,50.0
3180,1,walk,walk,161,,161.0,20.0,1.0,0.0,1.0,2.23,0.248,0.757,0.0,27.0,22.74,0.0,0.0,9.0,0.0,0.0,-3.2,-0.06,-1.0,-0.14,-14.92,-3.43,40.86,6.0,1.0,1.0,0.0,50.0
3240,1,walk,walk,162,,162.0,20.0,1.0,0.0,1.0,1.41,0.258,0.582,0.0,27.0,22.74,0.0,0.0,9.0,0.0,0.0,-3.48,-0.06,-1.0,-0.14,-14.6,-4.32,40.9,6.0,1.0,1.0,0.0,50.0
3240,1,walk,walk,163,,163.0,20.0,1.0,0.0,1.0,0.59,0.267,0.769,0.0,27.0,22.74,0.0,0.0,9.0,0.0,0.0,-3.79,-0.07,-1.0,-0.14,-14.28,-5.64,40.96,6.0,1.0,1.0,0.0,50.0
3240,1,walk,walk,164,,164.0,20.0,1.0,0.0,1.0,-0.23,0.283,1.0,0.0,27.0,22.74,0.0,0.0,9.0,0.0,0.0,-4.08,-0.07,-1.0,-0.14,-13.96,-7.44,41.0,6.0,1.0,1.0,0.0,50.0
3300,1,walk,walk,165,,165.0,20.0,1.0,0.0,1.0,-1.04,0.301,1.388,0.0,27.0,22.74,0.0,0.0,9.0,0.0,0.0,-4.26,-0.08,-1.01,-0.14,-13.58,-9.58,40.98,6.0,1.0,1.0,0.0,50.0
3320,1,walk,walk,166,,166.0,20.0,0.0,0.0,1.0,-1.84,0.323,1.636,0.0,27.0,22.74,0.0,0.0,7.0,0.0,0.0,-4.27,-0.08,-1.01,-0.14,-13.08,-11.9,40.85,6.0,1.0,1.0,0.0,50.0
3320,1,walk,walk,167,,167.0,20.0,0.0,0.0,1.0,-2.64,0.352,2.093,0.0,27.0,22.74,0.0,0.0,7.0,0.0,0.0,-4.05,-0.07,-1.02,-0.14,-12.42,-14.29,40.55,6.0,1.0,1.0,0.0,50.0
3320,1,walk,walk,168,,168.0,20.0,0.0,0.0,1.0,-3.42,0.387,2.407,0.0,27.0,22.74,0.0,0.0,7.0,0.0,0.0,-3.61,-0.07,-1.03,-0.14,-11.53,-16.84,40.03,6.0,1.0,1.0,0.0,50.0
3380,1,walk,walk,169,,169.0,20.0,0.0,0.0,1.0,-4.2,0.427,2.89,0.0,27.0,22.74,0.0,0.0,7.0,0.0,0.0,-2.93,-0.05,-1.05,-0.13,-10.33,-19.72,39.1,6.0,1.0,1.0,0.0,50.0
3380,1,walk,walk,170,,170.0,20.0,1.0,0.0,1.0,-4.97,0.474,3.527,0.0,27.0,22.74,0.0,0.0,7.0,0.0,0.0,-2.01,-0.04,-1.06,-0.12,-8.86,-22.92,37.49,7.0,1.0,1.0,0.0,50.0
3380,1,walk,walk,171,,171.0,20.0,1.0,0.0,1.0,-5.72,0.538,4.619,0.0,27.0,22.74,0.0,0.0,7.0,0.0,0.0,-0.91,-0.02,-1.07,-0.11,-7.24,-26.26,34.91,7.0,1.0,1.0,0.0,50.0
3440,1,walk,walk,172,,172.0,20.0,1.0,0.0,1.0,-6.45,0.614,5.352,0.0,27.0,22.74,0.0,0.0,7.0,0.0,0.0,0.28,0.01,-1.09,-0.1,-5.68,-29.48,31.08,7.0,1.0,1.0,0.0,50.0
3440,1,walk,walk,173,,173.0,20.0,1.0,0.0,1.0,-7.17,0.695,5.352,0.0,27.0,22.77,0.0,0.0,7.0,0.0,0.0,1.44,0.03,-1.09,-0.08,-4.29,-32.21,25.86,7.0,1.0,1.0,0.0,50.0
3440,1,walk,walk,174,,174.0,20.0,1.0,0.0,1.0,-7.85,0.772,4.914,0.0,27.0,22.74,0.0,0.0,6.0,0.0,0.0,2.41,0.05,-1.1,-0.07,-3.15,-34.09,19.3,7.0,1.0,1.0,0.0,50.0
3480,1,walk,walk,175,,175.0,20.0,1.0,0.0,1.0,-8.51,0.84,3.983,0.0,27.0,22.74,0.0,0.0,6.0,0.0,0.0,3.04,0.06,-1.1,-0.07,-2.28,-34.82,11.61,7.0,1.0,1.0,0.0,50.0
3480,1,walk,walk,176,,176.0,20.0,1.0,0.0,1.0,-9.12,0.891,3.109,0.0,27.0,22.74,0.0,0.0,6.0,0.0,0.0,3.22,0.06,-1.11,-0.07,-1.62,-34.27,3.17,7.0,1.0,1.0,0.0,50.0
3540,1,walk,walk,177,,177.0,20.0,0.0,0.0,1.0,-9.68,0.933,2.428,0.0,27.0,22.74,0.0,0.0,5.0,0.0,0.0,2.91,0.06,-1.11,-0.08,-1.14,-32.52,-5.61,7.0,1.0,1.0,0.0,50.0
3540,1,walk,walk,178,,178.0,20.0,1.0,0.0,1.0,-10.18,0.963,1.518,0.0,27.0,22.74,0.0,0.0,6.0,0.0,0.0,2.13,0.04,-1.11,-0.08,-0.66,-29.83,-14.41,7.0,1.0,1.0,0.0,50.0
3540,1,walk,walk,179,,179.0,20.0,1.0,0.0,1.0,-10.61,0.978,0.432,0.0,27.0,22.74,0.0,0.0,6.0,0.0,0.0,0.99,0.02,-1.12,-0.09,-0.06,-26.53,-22.99,7.0,1.0,1.0,0.0,50.0
3540,1,walk,walk,180,,180.0,20.0,1.0,0.0,1.0,-10.96,0.977,-0.041,0.0,27.0,22.74,0.0,0.0,6.0,0.0,0.0,-0.41,-0.01,-1.12,-0.1,0.75,-22.81,-31.15,7.0,1.0,1.0,0.0,50.0
3620,1,walk,walk,181,,181.0,20.0,0.0,0.0,1.0,-11.22,0.973,-0.523,0.0,27.0,22.74,0.0,0.0,5.0,0.0,0.0,-1.92,-0.04,-1.12,-0.11,1.79,-18.69,-38.83,7.0,1.0,1.0,0.0,50.0
3620,1,walk,walk,182,,182.0,20.0,0.0,0.0,1.0,-11.38,0.96,-1.208,0.0,27.0,22.77,0.0,0.0,4.0,0.0,0.0,-3.45,-0.07,-1.12,-0.12,3.0,-14.11,-46.02,7.0,1.0,1.0,0.0,50.0
3620,1,walk,walk,183,,183.0,20.0,0.0,0.0,1.0,-11.45,0.93,-2.394,0.0,27.0,22.74,0.0,0.0,4.0,0.0,0.0,-4.94,-0.1,-1.12,-0.13,4.3,-9.01,-52.67,7.0,1.0,1.0,0.0,50.0
3680,1,walk,walk,184,,184.0,20.0,0.0,0.0,1.0,-11.41,0.884,-3.531,0.0,27.0,22.74,0.0,0.0,4.0,0.0,0.0,-6.34,-0.12,-1.11,-0.14,5.58,-3.27,-58.71,7.0,1.0,1.0,0.0,50.0
3680,1,walk,walk,185,,185.0,20.0,1.0,0.0,1.0,-11.26,0.826,-4.029,0.0,27.0,22.74,0.0,0.0,5.0,0.0,0.0,-7.66,-0.15,-1.1,-0.14,6.81,3.26,-64.02,7.0,1.0,1.0,0.0,50.0
3680,1,walk,walk,186,,186.0,20.0,1.0,0.0,1.0,-11.01,0.765,-4.421,0.0,27.0,22.74,0.0,0.0,5.0,0.0,0.0,-8.91,-0.17,-1.09,-0.14,8.03,10.4,-68.5,7.0,1.0,1.0,0.0,50.0
3740,1,walk,walk,187,,187.0,20.0,1.0,0.0,1.0,-10.65,0.699,-4.461,0.0,27.0,22.74,0.0,0.0,5.0,0.0,0.0,-10.09,-0.19,-1.08,-0.14,9.34,17.76,-72.06,7.0,1.0,1.0,0.0,50.0
3740,1,walk,walk,188,,188.0,20.0,1.0,0.0,1.0,-10.18,0.634,-4.236,0.0,27.0,22.74,0.0,0.0,5.0,0.0,0.0,-11.2,-0.21,-1.07,-0.14,10.84,24.76,-74.73,7.0,1.0,1.0,0.0,50.0
3740,1,walk,walk,189,,189.0,20.0,1.0,0.0,1.0,-9.63,0.574,-3.707,0.0,27.0,22.74,0.0,0.0,5.0,0.0,0.0,-12.16,-0.23,-1.06,-0.13,12.58,30.91,-76.66,7.0,1.0,1.0,0.0,50.0
3740,1,walk,walk,190,,190.0,20.0,1.0,0.0,1.0,-8.97,0.524,-2.935,0.0,27.0,22.74,0.0,0.0,5.0,0.0,0.0,-12.9,-0.24,-1.04,-0.12,14.51,35.81,-77.99,7.0,1.0,1.0,0.0,50.0
3800,1,walk,walk,191,,191.0,20.0,0.0,0.0,1.0,-8.24,0.482,-2.811,0.0,27.0,22.74,0.0,0.0,4.0,0.0,0.0,-13.39,-0.25,-1.03,-0.12,16.42,39.19,-78.88,7.0,1.0,1.0,0.0,50.0
3800,1,walk,walk,192,,192.0,20.0,0.0,0.0,1.0,-7.43,0.44,-2.905,0.0,27.0,22.74,0.0,0.0,4.0,0.0,0.0,-13.61,-0.25,-1.02,-0.11,18.09,40.93,-79.36,7.0,1.0,1.0,0.0,50.0
3800,1,walk,walk,193,,193.0,20.0,0.0,0.0,1.0,-6.55,0.395,-3.047,0.0,27.0,22.74,0.0,0.0,4.0,0.0,0.0,-13.62,-0.24,-1.01,-0.1,19.32,40.91,-79.33,7.0,1.0,1.0,0.0,50.0
3880,1,walk,walk,194,,194.0,20.0,1.0,0.0,1.0,-5.61,0.347,-3.226,0.0,27.0,22.74,0.0,0.0,5.0,0.0,0.0,-13.51,-0.24,-1.0,-0.09,19.98,38.82,-78.61,7.0,1.0,1.0,0.0,50.0
3880,1,walk,walk,195,,195.0,20.0,1.0,0.0,1.0,-4.63,0.301,-3.288,0.0,27.0,22.74,0.0,0.0,5.0,0.0,0.0,-13.33,-0.23,-0.99,-0.09,19.99,34.22,-77.01,7.0,1.0,1.0,0.0,50.0
3880,1,walk,walk,196,,196.0,20.0,1.0,0.0,1.0,-3.6,0.253,-3.108,0.0,27.0,22.74,0.0,0.0,5.0,0.0,0.0,-13.09,-0.23,-0.98,-0.09,19.33,26.75,-74.38,7.0,1.0,1.0,0.0,50.0
3920,1,walk,walk,197,,197.0,20.0,1.0,0.0,1.0,-2.54,0.213,-2.367,0.0,27.0,22.74,0.0,0.0,5.0,0.0,0.0,-12.72,-0.22,-0.96,-0.09,18.01,16.42,-70.67,7.0,1.0,1.0,0.0,50.0
3920,1,walk,walk,198,,198.0,20.0,1.0,0.0,1.0,-1.46,0.186,-1.161,0.0,27.0,22.74,0.0,0.0,5.0,0.0,0.0,-12.07,-0.2,-0.95,-0.1,16.04,3.7,-65.98,8.0,1.0,1.0,0.0,50.0
3920,1,walk,walk,199,,199.0,20.0,0.0,0.0,1.0,-0.37,0.177,-0.279,0.0,27.0,22.74,0.0,0.0,4.0,0.0,0.0,-10.99,-0.18,-0.94,-0.1,13.5,-10.49,-60.45,8.0,1.0,1.0,0.0,50.0
3980,1,walk,walk,200,,200.0,20.0,0.0,0.0,1.0,0.72,0.176,-0.061,0.0,27.0,22.77,0.0,0.0,4.0,0.0,0.0,-9.39,-0.15,-0.93,-0.11,10.47,-24.9,-54.2,8.0,1.0,1.0,0.0,50.0
3980,1,walk,walk,201,,201.0,20.0,0.0,0.0,1.0,1.8,0.176,-0.046,0.0,27.0,22.74,0.0,0.0,4.0,0.0,0.0,-7.29,-0.12,-0.92,-0.11,7.14,-38.08,-47.28,8.0,1.0,1.0,0.0,50.0
3980,1,walk,walk,202,,202.0,20.0,1.0,0.0,1.0,2.86,0.167,-1.197,0.0,27.0,22.74,0.0,0.0,5.0,0.0,0.0,-4.84,-0.08,-0.92,-0.12,3.81,-48.76,-39.79,8.0,1.0,1.0,0.0,50.0
4060,1,walk,walk,203,,203.0,20.0,1.0,0.0,1.0,3.9,0.145,-1.629,0.0,27.0,22.74,0.0,0.0,5.0,0.0,0.0,-2.19,-0.04,-0.92,-0.11,0.95,-55.86,-31.93,8.0,1.0,1.0,0.0,50.0
4060,1,walk,walk,204,,204.0,20.0,0.0,0.0,1.0,4.89,0.132,-0.326,0.0,27.0,22.77,0.0,0.0,4.0,0.0,0.0,0.53,0.01,-0.93,-0.1,-1.13,-58.96,-23.91,8.0,1.0,1.0,0.0,50.0
4060,1,walk,walk,205,,205.0,20.0,0.0,0.0,1.0,5.83,0.132,-0.064,0.0,27.0,22.74,0.0,0.0,4.0,0.0,0.0,3.2,0.05,-0.95,-0.09,-2.39,-58.2,-15.98,8.0,1.0,1.0,0.0,50.0
4060,1,walk,walk,206,,206.0,20.0,0.0,0.0,1.0,6.72,0.134,0.233,0.0,27.0,22.74,0.0,0.0,4.0,0.0,0.0,5.69,0.1,-0.97,-0.07,-2.98,-54.16,-8.4,8.0,1.0,1.0,0.0,50.0
4120,1,walk,walk,207,,207.0,20.0,1.0,0.0,1.0,7.55,0.144,1.131,0.0,27.0,22.74,0.0,0.0,5.0,0.0,0.0,7.83,0.14,-0.99,-0.06,-3.19,-47.7,-1.46,8.0,1.0,1.0,0.0,50.0
4120,1,walk,walk,208,,208.0,20.0,1.0,0.0,1.0,8.31,0.162,1.472,0.0,27.0,22.74,0.0,0.0,5.0,0.0,0.0,9.47,0.17,-1.01,-0.05,-3.33,-39.95,4.62,8.0,1.0,1.0,0.0,50.0
4120,1,walk,walk,209,,209.0,20.0,1.0,0.0,1.0,8.99,0.179,0.703,0.0,27.0,22.74,0.0,0.0,5.0,0.0,0.0,10.48,0.19,-1.02,-0.05,-3.59,-32.03,9.72,8.0,1.0,1.0,0.0,50.0
4180,1,walk,walk,210,,210.0,20.0,1.0,0.0,1.0,9.59,0.185,0.175,0.0,27.0,22.74,0.0,0.0,5.0,0.0,0.0,10.86,0.2,-1.03,-0.05,-3.97,-24.91,13.89,8.0,1.0,1.0,0.0,50.0
4180,1,walk,walk,211,,211.0,20.0,1.0,0.0,1.0,10.11,0.187,0.162,0.0,27.0,22.74,0.0,0.0,5.0,0.0,0.0,10.71,0.2,-1.04,-0.05,-4.46,-19.17,17.29,8.0,1.0,1.0,0.0,50.0
4180,1,walk,walk,212,,212.0,20.0,0.0,0.0,1.0,10.55,0.19,0.249,0.0,27.0,22.74,0.0,0.0,4.0,0.0,0.0,10.18,0.19,-1.05,-0.06,-5.02,-14.87,20.11,8.0,1.0,1.0,0.0,50.0
4260,1,walk,walk,213,,213.0,20.0,0.0,0.0,1.0,10.91,0.194,0.191,0.0,27.0,22.74,0.0,0.0,4.0,0.0,0.0,9.39,0.17,-1.05,-0.07,-5.61,-11.74,22.44,8.0,1.0,1.0,0.0,50.0
4260,1,walk,walk,214,,214.0,20.0,0.0,0.0,1.0,11.18,0.197,0.198,0.0,27.0,22.74,0.0,0.0,4.0,0.0,0.0,8.4,0.16,-1.05,-0.08,-6.18,-9.55,24.34,8.0,1.0,1.0,0.0,50.0
4260,1,walk,walk,215,,215.0,20.0,1.0,0.0,1.0,11.37,0.197,0.002,0.0,27.0,22.74,0.0,0.0,5.0,0.0,0.0,7.25,0.13,-1.05,-0.09,-6.67,-8.26,25.85,8.0,1.0,1.0,0.0,50.0
4320,1,walk,walk,216,,216.0,20.0,1.0,0.0,1.0,11.48,0.197,0.042,0.0,27.0,22.77,0.0,0.0,4.0,0.0,0.0,5.98,0.11,-1.05,-0.11,-7.07,-7.97,27.02,8.0,1.0,1.0,0.0,50.0
4320,1,walk,walk,217,,217.0,20.0,1.0,0.0,1.0,11.51,0.197,-0.058,0.0,27.0,22.74,0.0,0.0,4.0,0.0,0.0,4.67,0.09,-1.05,-0.12,-7.36,-8.74,27.9,8.0,1.0,1.0,0.0,50.0
4320,1,walk,walk,218,,218.0,20.0,1.0,0.0,1.0,11.46,0.198,0.04,0.0,27.0,22.74,0.0,0.0,4.0,0.0,0.0,3.41,0.06,-1.04,-0.13,-7.56,-10.49,28.47,8.0,1.0,1.0,0.0,50.0
4380,1,walk,walk,219,,219.0,20.0,1.0,0.0,1.0,11.35,0.199,0.162,0.0,27.0,22.74,0.0,0.0,4.0,0.0,0.0,2.26,0.04,-1.04,-0.14,-7.67,-12.97,28.73,8.0,1.0,1.0,0.0,50.0
4380,1,walk,walk,220,,220.0,20.0,1.0,0.0,1.0,11.17,0.201,0.025,0.0,27.0,22.74,0.0,0.0,4.0,0.0,0.0,1.27,0.02,-1.04,-0.15,-7.68,-15.88,28.7,8.0,1.0,1.0,0.0,50.0
4380,1,walk,walk,221,,221.0,20.0,0.0,0.0,1.0,10.93,0.202,-0.022,0.0,27.0,22.74,0.0,0.0,3.0,0.0,0.0,0.46,0.01,-1.03,-0.15,-7.56,-18.93,28.42,8.0,1.0,1.0,0.0,50.0
4460,1,walk,walk,222,,222.0,20.0,0.0,0.0,1.0,10.63,0.205,0.218,0.0,27.0,22.74,0.0,0.0,3.0,0.0,0.0,-0.16,0.0,-1.03,-0.16,-7.33,-21.87,27.9,8.0,1.0,1.0,0.0,50.0
4460,1,walk,walk,223,,223.0,20.0,0.0,0.0,1.0,10.27,0.208,0.194,0.0,27.0,22.74,0.0,0.0,3.0,0.0,0.0,-0.59,-0.01,-1.03,-0.16,-6.99,-24.6,27.19,8.0,1.0,1.0,0.0,50.0
4460,1,walk,walk,224,,224.0,20.0,0.0,0.0,1.0,9.87,0.212,0.308,0.0,27.0,22.74,0.0,0.0,3.0,0.0,0.0,-0.85,-0.02,-1.02,-0.17,-6.56,-27.07,26.3,8.0,1.0,1.0,0.0,50.0
4460,1,walk,walk,225,,225.0,20.0,1.0,0.0,1.0,9.43,0.219,0.545,0.0,27.0,22.74,0.0,0.0,4.0,0.0,0.0,-0.97,-0.02,-1.02,-0.17,-6.05,-29.3,25.24,8.0,1.0,1.0,0.0,50.0
4520,1,walk,walk,226,,226.0,20.0,1.0,0.0,1.0,8.96,0.226,0.377,0.0,27.0,22.74,0.0,0.0,4.0,0.0,0.0,-0.95,-0.02,-1.02,-0.17,-5.46,-31.3,24.02,8.0,1.0,1.0,0.0,50.0
4520,1,walk,walk,227,,227.0,20.0,1.0,0.0,1.0,8.46,0.233,0.59,0.0,27.0,22.74,0.0,0.0,4.0,0.0,0.0,-0.85,-0.01,-1.01,-0.17,-4.82,-33.09,22.69,9.0,1.0,1.0,0.0,50.0
4520,1,walk,walk,228,,228.0,20.0,0.0,0.0,1.0,7.93,0.241,0.641,0.0,27.0,22.74,0.0,0.0,3.0,0.0,0.0,-0.67,-0.01,-1.01,-0.17,-4.13,-34.7,21.26,9.0,1.0,1.0,0.0,50.0
4580,1,walk,walk,229,,229.0,20.0,1.0,0.0,1.0,7.4,0.252,0.712,0.0,27.0,22.74,0.0,0.0,4.0,0.0,0.0,-0.45,-0.01,-1.01,-0.17,-3.38,-36.09,19.78,9.0,1.0,1.0,0.0,50.0
4580,1,walk,walk,230,,230.0,20.0,1.0,0.0,1.0,6.85,0.262,0.559,0.0,27.0,22.74,0.0,0.0,4.0,0.0,0.0,-0.21,0.0,-1.01,-0.17,-2.58,-37.24,18.25,9.0,1.0,1.0,0.0,50.0
4580,1,walk,walk,231,,231.0,20.0,1.0,0.0,1.0,6.3,0.273,1.01,0.0,27.0,22.74,0.0,0.0,4.0,0.0,0.0,0.02,0.0,-1.01,-0.17,-1.73,-38.18,16.7,9.0,1.0,1.0,0.0,50.0
4580,1,walk,walk,232,,232.0,20.0,1.0,0.0,1.0,5.75,0.286,0.762,0.0,27.0,22.74,0.0,0.0,4.0,0.0,0.0,0.19,0.0,-1.01,-0.16,-0.82,-38.98,15.16,9.0,1.0,1.0,0.0,50.0
4640,1,walk,walk,233,,233.0,20.0,1.0,0.0,1.0,5.21,0.297,0.91,0.0,27.0,22.74,0.0,0.0,4.0,0.0,0.0,0.26,0.0,-1.0,-0.16,0.16,-39.79,13.65,9.0,1.0,1.0,0.0,50.0
4640,1,walk,walk,234,,234.0,20.0,1.0,0.0,1.0,4.69,0.308,0.574,0.0,27.0,22.77,0.0,0.0,4.0,0.0,0.0,0.23,0.0,-1.0,-0.16,1.23,-40.78,12.23,9.0,1.0,1.0,0.0,50.0
4640,1,walk,walk,235,,235.0,20.0,1.0,0.0,1.0,4.18,0.318,0.818,0.0,27.0,22.74,0.0,0.0,3.0,0.0,0.0,0.12,0.0,-1.0,-0.16,2.39,-42.14,10.94,9.0,1.0,1.0,0.0,50.0
4720,1,walk,walk,236,,236.0,20.0,1.0,0.0,1.0,3.69,0.331,0.669,0.0,27.0,22.74,0.0,0.0,3.0,0.0,0.0,-0.02,0.0,-1.0,-0.16,3.67,-43.87,9.79,9.0,1.0,1.0,0.0,50.0
4720,1,walk,walk,237,,237.0,20.0,0.0,0.0,1.0,3.22,0.343,0.871,0.0,27.0,22.74,0.0,0.0,2.0,0.0,0.0,-0.16,0.0,-1.01,-0.16,5.07,-45.91,8.8,9.0,1.0,1.0,0.0,50.0
4720,1,walk,walk,238,,238.0,20.0,0.0,0.0,1.0,2.78,0.355,0.657,0.0,27.0,22.74,0.0,0.0,2.0,0.0,0.0,-0.25,0.0,-1.01,-0.16,6.61,-48.08,7.98,9.0,1.0,1.0,0.0,50.0
4720,1,walk,walk,239,,239.0,20.0,0.0,0.0,1.0,2.36,0.365,0.718,0.0,27.0,22.74,0.0,0.0,1.0,0.0,0.0,-0.29,-0.01,-1.01,-0.17,8.27,-50.24,7.36,9.0,1.0,1.0,0.0,50.0
4780,1,walk,walk,240,,240.0,20.0,0.0,0.0,1.0,1.98,0.376,0.672,0.0,27.0,22.74,0.0,0.0,1.0,0.0,0.0,-0.3,-0.01,-1.01,-0.17,10.01,-52.31,6.95,9.0,1.0,1.0,0.0,50.0
4780,1,walk,walk,241,,241.0,20.0,1.0,0.0,1.0,1.61,0.386,0.751,0.0,27.0,22.77,0.0,0.0,2.0,0.0,0.0,-0.31,-0.01,-1.01,-0.16,11.8,-54.26,6.75,9.0,1.0,1.0,0.0,50.0
4840,1,walk,walk,242,,242.0,20.0,1.0,0.0,1.0,1.28,0.398,0.848,0.0,27.0,22.74,0.0,0.0,2.0,0.0,0.0,-0.32,-0.01,-1.02,-0.16,13.6,-56.06,6.69,9.0,1.0,1.0,0.0,50.0
4840,1,walk,walk,243,,243.0,20.0,1.0,0.0,1.0,0.97,0.411,0.865,0.0,27.0,22.74,0.0,0.0,1.0,0.0,0.0,-0.37,-0.01,-1.02,-0.16,15.35,-57.66,6.72,9.0,1.0,1.0,0.0,50.0
4840,1,walk,walk,244,,244.0,20.0,1.0,0.0,1.0,0.68,0.423,0.831,0.0,27.0,22.77,0.0,0.0,1.0,0.0,0.0,-0.45,-0.01,-1.02,-0.16,17.0,-59.06,6.77,9.0,1.0,1.0,0.0,50.0
4840,1,walk,walk,245,,245.0,20.0,1.0,0.0,1.0,0.41,0.436,0.716,0.0,27.0,22.74,0.0,0.0,1.0,0.0,0.0,-0.62,-0.01,-1.02,-0.16,18.48,-60.34,6.83,9.0,1.0,1.0,0.0,50.0
4900,1,walk,walk,246,,246.0,20.0,1.0,0.0,1.0,0.17,0.445,0.405,0.0,27.0,22.74,0.0,0.0,0.0,0.0,0.0,-0.92,-0.02,-1.03,-0.15,19.72,-61.78,6.91,9.0,1.0,1.0,0.0,50.0
4900,1,walk,walk,247,,247.0,20.0,0.0,0.0,1.0,-0.06,0.445,0.405,0.0,27.0,22.74,0.0,0.0,19.0,0.0,0.0,-1.38,-0.02,-1.03,-0.15,20.64,-63.82,7.01,10.0,1.0,1.0,0.0,50.0
4900,1,walk,walk,248,,248.0,20.0,0.0,0.0,1.0,-0.27,0.456,0.64,0.0,27.0,22.77,0.0,0.0,14.0,0.0,0.0,-2.05,-0.04,-1.03,-0.14,21.16,-66.99,7.18,10.0,1.0,1.0,0.0,50.0
4960,1,walk,walk,249,,249.0,20.0,1.0,0.0,1.0,-0.46,0.458,-0.038,0.0,27.0,22.74,0.0,0.0,15.0,0.0,0.0,-2.91,-0.05,-1.03,-0.14,21.26,-71.56,7.44,10.0,1.0,1.0,0.0,50.0
4960,1,walk,walk,250,,250.0,20.0,1.0,0.0,1.0,-0.65,0.458,-0.006,0.0,27.0,22.74,0.0,0.0,15.0,0.0,0.0,-3.93,-0.07,-1.04,-0.14,20.94,-77.73,7.8,10.0,1.0,1.0,0.0,50.0
5040,1,walk,walk,251,,251.0,20.0,1.0,0.0,1.0,-0.82,0.458,0.007,0.0,27.0,22.74,0.0,0.0,15.0,0.0,0.0,-5.06,-0.09,-1.04,-0.14,20.23,-85.61,8.2,10.0,1.0,1.0,0.0,50.0
5040,1,walk,walk,252,,252.0,20.0,1.0,0.0,1.0,-0.99,0.458,-0.042,0.0,27.0,22.74,0.0,0.0,15.0,0.0,0.0,-6.23,-0.11,-1.03,-0.13,19.15,-95.18,8.57,10.0,1.0,1.0,0.0,50.0
5040,1,walk,walk,253,,253.0,20.0,0.0,0.0,1.0,-1.16,0.458,0.002,0.0,27.0,22.74,0.0,0.0,8.0,0.0,0.0,-7.39,-0.13,-1.03,-0.14,17.73,-106.26,8.8,10.0,1.0,1.0,0.0,50.0
5040,1,walk,walk,254,,254.0,20.0,1.0,0.0,1.0,-1.33,0.457,-0.006,0.0,27.0,22.77,0.0,0.0,9.0,0.0,0.0,-8.49,-0.15,-1.03,-0.14,15.98,-118.57,8.81,10.0,1.0,1.0,0.0,50.0
5100,1,walk,walk,255,,255.0,20.0,1.0,0.0,1.0,-1.5,0.456,0.023,0.0,27.0,22.74,0.0,0.0,9.0,0.0,0.0,-9.5,-0.17,-1.02,-0.14,13.93,-131.78,8.59,10.0,1.0,1.0,0.0,50.0
5100,1,walk,walk,256,,256.0,20.0,1.0,0.0,1.0,-1.68,0.456,-0.054,0.0,27.0,22.74,0.0,0.0,9.0,0.0,0.0,-10.4,-0.19,-1.01,-0.14,11.58,-145.53,8.16,10.0,1.0,1.0,0.0,50.0
5100,1,walk,walk,257,,257.0,20.0,1.0,0.0,1.0,-1.86,0.453,-0.171,0.0,27.0,22.77,0.0,0.0,8.0,0.0,0.0,-11.18,-0.2,-1.01,-0.15,8.96,-159.54,7.6,10.0,1.0,1.0,0.0,50.0
5160,1,walk,walk,258,,258.0,20.0,1.0,0.0,1.0,-2.06,0.453,-0.042,0.0,27.0,22.74,0.0,0.0,8.0,0.0,0.0,-11.81,-0.21,-1.0,-0.15,6.09,-173.57,7.0,10.0,1.0,1.0,0.0,50.0
5160,1,walk,walk,259,,259.0,20.0,1.0,0.0,1.0,-2.26,0.452,-0.007,0.0,27.0,22.74,0.0,0.0,8.0,0.0,0.0,-12.25,-0.21,-0.99,-0.16,3.0,-187.29,6.41,10.0,1.0,1.0,0.0,50.0
5160,1,walk,walk,260,,260.0,20.0,0.0,0.0,1.0,-2.47,0.451,-0.069,0.0,27.0,22.77,0.0,0.0,7.0,0.0,0.0,-12.47,-0.22,-0.98,-0.17,-0.29,-200.29,5.89,10.0,1.0,1.0,0.0,50.0
5220,1,walk,walk,261,,261.0,20.0,0.0,0.0,1.0,-2.69,0.45,-0.179,0.0,27.0,22.74,0.0,0.0,7.0,0.0,0.0,-12.45,-0.22,-0.98,-0.18,-3.7,-212.14,5.53,10.0,1.0,1.0,0.0,50.0
5220,1,walk,walk,262,,262.0,20.0,0.0,0.0,1.0,-2.91,0.445,-0.358,0.0,27.0,22.74,0.0,0.0,7.0,0.0,0.0,-12.19,-0.21,-0.97,-0.19,-7.14,-222.47,5.47,10.0,1.0,1.0,0.0,50.0
5220,1,walk,walk,263,,263.0,20.0,0.0,0.0,1.0,-3.15,0.435,-0.817,0.0,27.0,22.77,0.0,0.0,7.0,0.0,0.0,-11.74,-0.2,-0.97,-0.21,-10.49,-231.01,5.86,10.0,1.0,1.0,0.0,50.0
5220,1,walk,walk,264,,264.0,20.0,1.0,0.0,1.0,-3.38,0.424,-0.559,0.0,27.0,22.74,0.0,0.0,7.0,0.0,0.0,-11.12,-0.19,-0.97,-0.22,-13.63,-237.65,6.82,10.0,1.0,1.0,0.0,50.0
5300,1,walk,walk,265,,265.0,20.0,1.0,0.0,1.0,-3.63,0.416,-0.692,0.0,27.0,22.74,0.0,0.0,7.0,0.0,0.0,-10.36,-0.18,-0.97,-0.23,-16.47,-242.38,8.38,10.0,1.0,1.0,0.0,50.0
5300,1,walk,walk,266,,266.0,20.0,1.0,0.0,1.0,-3.87,0.405,-0.639,0.0,27.0,22.77,0.0,0.0,7.0,0.0,0.0,-9.49,-0.16,-0.98,-0.25,-18.97,-245.17,10.46,10.0,1.0,1.0,0.0,50.0
5300,1,walk,walk,267,,267.0,20.0,1.0,0.0,1.0,-4.12,0.4,-0.13,0.0,27.0,22.77,0.0,0.0,7.0,0.0,0.0,-8.51,-0.15,-0.98,-0.26,-21.11,-246.02,12.95,10.0,1.0,1.0,0.0,50.0
5360,1,walk,walk,268,,268.0,20.0,1.0,0.0,1.0,-4.37,0.399,-0.089,0.0,27.0,22.74,0.0,0.0,7.0,0.0,0.0,-7.47,-0.13,-0.98,-0.26,-22.91,-244.98,15.63,10.0,1.0,1.0,0.0,50.0
5360,1,walk,walk,269,,269.0,20.0,1.0,0.0,1.0,-4.63,0.398,-0.081,0.0,27.0,22.74,0.0,0.0,7.0,0.0,0.0,-6.41,-0.11,-0.99,-0.27,-24.41,-242.11,18.3,10.0,1.0,1.0,0.0,50.0
5360,1,walk,walk,270,,270.0,20.0,0.0,0.0,1.0,-4.89,0.397,-0.033,0.0,27.0,22.77,0.0,0.0,6.0,0.0,0.0,-5.37,-0.09,-0.99,-0.27,-25.66,-237.57,20.78,10.0,1.0,1.0,0.0,50.0
5360,1,walk,walk,271,,271.0,20.0,0.0,0.0,1.0,-5.15,0.397,0.007,0.0,27.0,22.74,0.0,0.0,6.0,0.0,0.0,-4.4,-0.08,-1.0,-0.27,-26.68,-231.57,22.94,10.0,1.0,1.0,0.0,50.0
5420,1,walk,walk,272,,272.0,20.0,0.0,0.0,1.0,-5.42,0.396,-0.152,0.0,27.0,22.74,0.0,0.0,6.0,0.0,0.0,-3.52,-0.06,-1.0,-0.27,-27.5,-224.33,24.72,10.0,1.0,1.0,0.0,50.0
5420,1,walk,walk,273,,273.0,20.0,1.0,0.0,1.0,-5.7,0.393,-0.395,0.0,27.0,22.74,0.0,0.0,7.0,0.0,0.0,-2.77,-0.05,-1.01,-0.27,-28.14,-216.1,26.08,10.0,1.0,1.0,0.0,50.0
5420,1,walk,walk,274,,274.0,20.0,1.0,0.0,1.0,-5.98,0.387,-0.413,0.0,27.0,22.74,0.0,0.0,7.0,0.0,0.0,-2.13,-0.04,-1.01,-0.27,-28.62,-207.07,27.08,10.0,1.0,1.0,0.0,50.0
5500,1,walk,walk,275,,275.0,20.0,1.0,0.0,1.0,-6.28,0.381,-0.477,0.0,27.0,22.77,0.0,0.0,7.0,0.0,0.0,-1.59,-0.03,-1.01,-0.26,-28.96,-197.35,27.7,10.0,1.0,1.0,0.0,50.0
5500,1,walk,walk,276,,276.0,20.0,1.0,0.0,1.0,-6.58,0.373,-0.524,0.0,27.0,22.77,0.0,0.0,7.0,0.0,0.0,-1.13,-0.02,-1.01,-0.26,-29.2,-187.03,27.99,11.0,1.0,1.0,0.0,50.0
5500,1,walk,walk,277,,277.0,20.0,1.0,0.0,1.0,-6.9,0.365,-0.536,0.0,27.0,22.74,0.0,0.0,7.0,0.0,0.0,-0.74,-0.01,-1.02,-0.25,-29.33,-176.14,27.92,11.0,1.0,1.0,0.0,50.0
5500,1,walk,walk,278,,278.0,20.0,1.0,0.0,1.0,-7.22,0.355,-0.892,0.0,27.0,22.77,0.0,0.0,7.0,0.0,0.0,-0.43,-0.01,-1.02,-0.24,-29.34,-164.71,27.51,11.0,1.0,1.0,0.0,50.0
5560,1,walk,walk,279,,279.0,20.0,1.0,0.0,1.0,-7.55,0.341,-0.959,0.0,27.0,22.77,0.0,0.0,7.0,0.0,0.0,-0.2,0.0,-1.02,-0.24,-29.2,-152.79,26.77,11.0,1.0,1.0,0.0,50.0
5560,1,walk,walk,280,,280.0,20.0,1.0,0.0,1.0,-7.88,0.321,-1.819,0.0,27.0,22.74,0.0,0.0,7.0,0.0,0.0,-0.14,0.0,-1.02,-0.23,-28.79,-140.61,25.71,11.0,1.0,1.0,0.0,50.0
5620,1,walk,walk,281,,281.0,20.0,1.0,0.0,1.0,-8.22,0.286,-2.543,0.0,27.0,22.74,0.0,0.0,7.0,0.0,0.0,-0.24,0.0,-1.02,-0.21,-27.95,-128.67,24.31,11.0,1.0,1.0,0.0,50.0
5620,1,walk,walk,282,,282.0,20.0,1.0,0.0,1.0,-8.55,0.255,-1.405,0.0,27.0,22.74,0.0,0.0,7.0,0.0,0.0,-0.4,-0.01,-1.02,-0.2,-26.64,-117.39,22.52,11.0,1.0,1.0,0.0,50.0
5620,1,walk,walk,283,,283.0,20.0,1.0,0.0,1.0,-8.89,0.247,-0.096,0.0,27.0,22.74,0.0,0.0,6.0,0.0,0.0,-0.42,-0.01,-1.03,-0.17,-24.92,-106.89,20.26,11.0,1.0,1.0,0.0,50.0
5620,1,walk,walk,284,,284.0,20.0,1.0,0.0,1.0,-9.22,0.247,0.028,0.0,27.0,22.74,0.0,0.0,6.0,0.0,0.0,-0.15,0.0,-1.03,-0.15,-22.93,-96.87,17.44,11.0,1.0,1.0,0.0,50.0
5680,1,walk,walk,285,,285.0,20.0,0.0,0.0,1.0,-9.54,0.247,-0.05,0.0,27.0,22.77,0.0,0.0,5.0,0.0,0.0,0.42,0.01,-1.04,-0.13,-20.79,-86.89,14.05,11.0,1.0,1.0,0.0,50.0
5680,1,walk,walk,286,,286.0,20.0,0.0,0.0,1.0,-9.84,0.247,-0.08,0.0,27.0,22.74,0.0,0.0,5.0,0.0,0.0,1.19,0.02,-1.05,-0.1,-18.59,-76.65,10.2,11.0,1.0,1.0,0.0,50.0
5680,1,walk,walk,287,,287.0,20.0,0.0,0.0,1.0,-10.13,0.248,0.022,0.0,27.0,22.74,0.0,0.0,5.0,0.0,0.0,1.98,0.04,-1.05,-0.08,-16.44,-66.09,6.08,11.0,1.0,1.0,0.0,50.0
5760,1,walk,walk,288,,288.0,20.0,0.0,0.0,1.0,-10.4,0.247,0.026,0.0,27.0,22.77,0.0,0.0,5.0,0.0,0.0,2.62,0.05,-1.06,-0.07,-14.39,-55.47,1.91,11.0,1.0,1.0,0.0,50.0
5760,1,walk,walk,289,,289.0,20.0,1.0,0.0,1.0,-10.63,0.247,-0.03,0.0,27.0,22.74,0.0,0.0,6.0,0.0,0.0,3.0,0.06,-1.06,-0.06,-12.49,-45.22,-2.13,11.0,1.0,1.0,0.0,50.0
5760,1,walk,walk,290,,290.0,20.0,1.0,0.0,1.0,-10.83,0.245,-0.295,0.0,27.0,22.74,0.0,0.0,6.0,0.0,0.0,3.07,0.06,-1.06,-0.05,-10.76,-35.81,-5.86,11.0,1.0,1.0,0.0,50.0
5820,1,walk,walk,291,,291.0,20.0,1.0,0.0,1.0,-10.99,0.242,-0.197,0.0,27.0,22.74,0.0,0.0,6.0,0.0,0.0,2.83,0.05,-1.06,-0.04,-9.21,-27.65,-9.16,11.0,1.0,1.0,0.0,50.0
5820,1,walk,walk,292,,292.0,20.0,1.0,0.0,1.0,-11.1,0.239,-0.19,0.0,27.0,22.74,0.0,0.0,6.0,0.0,0.0,2.39,0.04,-1.06,-0.04,-7.83,-20.96,-11.96,11.0,1.0,1.0,0.0,50.0
5820,1,walk,walk,293,,293.0,20.0,1.0,0.0,1.0,-11.16,0.237,-0.076,0.0,27.0,22.74,0.0,0.0,6.0,0.0,0.0,1.84,0.03,-1.06,-0.04,-6.62,-15.78,-14.25,11.0,1.0,1.0,0.0,50.0
5880,1,walk,walk,294,,294.0,20.0,1.0,0.0,1.0,-11.18,0.237,0.006,0.0,27.0,22.74,0.0,0.0,6.0,0.0,0.0,1.28,0.02,-1.06,-0.04,-5.56,-11.96,-16.04,11.0,1.0,1.0,0.0,50.0
5880,1,walk,walk,295,,295.0,20.0,0.0,0.0,1.0,-11.14,0.237,0.052,0.0,27.0,22.77,0.0,0.0,5.0,0.0,0.0,0.78,0.01,-1.05,-0.05,-4.63,-9.26,-17.39,12.0,1.0,1.0,0.0,50.0
5880,1,walk,walk,296,,296.0,20.0,0.0,0.0,1.0,-11.04,0.237,-0.015,0.0,27.0,22.74,0.0,0.0,4.0,0.0,0.0,0.37,0.01,-1.05,-0.05,-3.81,-7.38,-18.31,12.0,1.0,1.0,0.0,50.0
5940,1,walk,walk,297,,297.0,20.0,0.0,0.0,1.0,-10.9,0.237,-0.044,0.0,27.0,22.74,0.0,0.0,4.0,0.0,0.0,0.08,0.0,-1.05,-0.06,-3.06,-6.03,-18.84,12.0,1.0,1.0,0.0,50.0
5940,1,walk,walk,298,,298.0,20.0,1.0,0.0,1.0,-10.71,0.237,0.053,0.0,27.0,22.74,0.0,0.0,5.0,0.0,0.0,-0.13,0.0,-1.05,-0.06,-2.35,-4.96,-19.03,12.0,1.0,1.0,0.0,50.0
5940,1,walk,walk,299,,299.0,20.0,1.0,0.0,1.0,-10.47,0.237,0.003,0.0,27.0,22.74,0.0,0.0,5.0,0.0,0.0,-0.27,0.0,-1.04,-0.07,-1.67,-4.02,-18.92,12.0,1.0,1.0,0.0,50.0
5940,1,walk,walk,300,,300.0,20.0,1.0,0.0,1.0,-10.2,0.237,0.007,0.0,27.0,22.74,0.0,0.0,4.0,0.0,0.0,-0.38,-0.01,-1.04,-0.07,-1.01,-3.16,-18.54,12.0,1.0,1.0,0.0,50.0
6020,1,walk,walk,301,,301.0,20.0,1.0,0.0,1.0,-9.88,0.237,-0.036,0.0,27.0,22.74,0.0,0.0,4.0,0.0,0.0,-0.51,-0.01,-1.04,-0.08,-0.37,-2.41,-17.94,12.0,1.0,1.0,0.0,50.0
6080,1,walk,walk,302,,302.0,20.0,1.0,0.0,1.0,-9.54,0.237,-0.037,0.0,27.0,22.74,0.0,0.0,4.0,0.0,0.0,-0.65,-0.01,-1.04,-0.08,0.27,-1.82,-17.17,12.0,1.0,1.0,0.0,50.0
6080,1,walk,walk,303,,303.0,20.0,0.0,0.0,1.0,-9.17,0.237,0.034,0.0,27.0,22.74,0.0,0.0,3.0,0.0,0.0,-0.81,-0.01,-1.03,-0.08,0.91,-1.44,-16.27,12.0,1.0,1.0,0.0,50.0
6080,1,walk,walk,304,,304.0,20.0,1.0,0.0,1.0,-8.79,0.237,0.01,0.0,27.0,22.74,0.0,0.0,4.0,0.0,0.0,-0.99,-0.02,-1.03,-0.08,1.53,-1.31,-15.27,12.0,1.0,1.0,0.0,50.0
6080,1,walk,walk,305,,305.0,20.0,1.0,0.0,1.0,-8.38,0.237,-0.03,0.0,27.0,22.74,0.0,0.0,4.0,0.0,0.0,-1.17,-0.02,-1.03,-0.08,2.16,-1.46,-14.22,12.0,1.0,1.0,0.0,50.0
6080,1,walk,walk,306,,306.0,20.0,1.0,0.0,1.0,-7.97,0.237,-0.06,0.0,27.0,22.74,0.0,0.0,4.0,0.0,0.0,-1.33,-0.02,-1.03,-0.08,2.78,-1.86,-13.12,12.0,1.0,1.0,0.0,50.0
6140,1,walk,walk,307,,307.0,20.0,1.0,0.0,1.0,-7.56,0.237,0.038,0.0,27.0,22.74,0.0,0.0,4.0,0.0,0.0,-1.45,-0.03,-1.03,-0.08,3.42,-2.45,-11.99,12.0,1.0,1.0,0.0,50.0
6140,1,walk,walk,308,,308.0,20.0,1.0,0.0,1.0,-7.14,0.237,0.019,0.0,27.0,22.74,0.0,0.0,4.0,0.0,0.0,-1.52,-0.03,-1.02,-0.08,4.07,-3.21,-10.85,12.0,1.0,1.0,0.0,50.0
6140,1,walk,walk,309,,309.0,20.0,0.0,0.0,1.0,-6.73,0.237,0.001,0.0,27.0,22.74,0.0,0.0,3.0,0.0,0.0,-1.54,-0.03,-1.02,-0.08,4.75,-4.09,-9.68,12.0,1.0,1.0,0.0,50.0
6140,1,walk,walk,310,,310.0,20.0,0.0,0.0,1.0,-6.33,0.237,-0.032,0.0,27.0,22.74,0.0,0.0,3.0,0.0,0.0,-1.51,-0.03,-1.02,-0.08,5.47,-5.05,-8.51,12.0,1.0,1.0,0.0,50.0
6200,1,walk,walk,311,,311.0,20.0,0.0,0.0,1.0,-5.93,0.238,0.175,0.0,27.0,22.74,0.0,0.0,3.0,0.0,0.0,-1.43,-0.03,-1.02,-0.08,6.22,-6.01,-7.34,12.0,1.0,1.0,0.0,50.0
6200,1,walk,walk,312,,312.0,20.0,1.0,0.0,1.0,-5.56,0.239,0.241,0.0,27.0,22.74,0.0,0.0,4.0,0.0,0.0,-1.31,-0.02,-1.02,-0.08,7.02,-6.9,-6.19,12.0,1.0,1.0,0.0,50.0
6200,1,walk,walk,313,,313.0,20.0,1.0,0.0,1.0,-5.2,0.244,0.336,0.0,27.0,22.74,0.0,0.0,4.0,0.0,0.0,-1.14,-0.02,-1.02,-0.08,7.87,-7.66,-5.1,12.0,1.0,1.0,0.0,50.0
6280,1,walk,walk,314,,314.0,20.0,1.0,0.0,1.0,-4.85,0.249,0.277,0.0,27.0,22.74,0.0,0.0,4.0,0.0,0.0,-0.98,-0.02,-1.02,-0.08,8.76,-8.22,-4.08,12.0,1.0,1.0,0.0,50.0
6280,1,walk,walk,315,,315.0,20.0,1.0,0.0,1.0,-4.53,0.25,0.075,0.0,27.0,22.77,0.0,0.0,4.0,0.0,0.0,-0.85,-0.02,-1.02,-0.08,9.71,-8.56,-3.14,12.0,1.0,1.0,0.0,50.0
6280,1,walk,walk,316,,316.0,20.0,1.0,0.0,1.0,-4.23,0.252,0.173,0.0,27.0,22.74,0.0,0.0,4.0,0.0,0.0,-0.82,-0.01,-1.02,-0.08,10.71,-8.75,-2.26,12.0,1.0,1.0,0.0,50.0
6320,1,walk,walk,317,,317.0,20.0,1.0,0.0,1.0,-3.95,0.253,0.045,0.0,27.0,22.74,0.0,0.0,4.0,0.0,0.0,-0.91,-0.02,-1.02,-0.08,11.76,-8.9,-1.45,12.0,1.0,1.0,0.0,50.0
6320,1,walk,walk,318,,318.0,20.0,1.0,0.0,1.0,-3.69,0.255,0.092,0.0,27.0,22.74,0.0,0.0,4.0,0.0,0.0,-1.14,-0.02,-1.02,-0.08,12.83,-9.2,-0.71,12.0,1.0,1.0,0.0,50.0
6320,1,walk,walk,319,,319.0,20.0,0.0,0.0,1.0,-3.45,0.257,0.134,0.0,27.0,22.74,0.0,0.0,3.0,0.0,0.0,-1.49,-0.03,-1.02,-0.07,13.91,-9.81,-0.03,12.0,1.0,1.0,0.0,50.0
6400,1,walk,walk,320,,320.0,20.0,0.0,0.0,1.0,-3.24,0.257,0.069,0.0,27.0,22.74,0.0,0.0,3.0,0.0,0.0,-1.92,-0.03,-1.02,-0.07,14.98,-10.82,0.61,12.0,1.0,1.0,0.0,50.0
6400,1,walk,walk,321,,321.0,20.0,0.0,0.0,1.0,-3.05,0.257,0.138,0.0,27.0,22.74,0.0,0.0,3.0,0.0,0.0,-2.36,-0.04,-1.02,-0.07,16.01,-12.26,1.21,12.0,1.0,1.0,0.0,50.0
6400,1,walk,walk,322,,322.0,20.0,1.0,0.0,1.0,-2.87,0.259,0.237,0.0,27.0,22.77,0.0,0.0,4.0,0.0,0.0,-2.74,-0.05,-1.02,-0.06,16.99,-14.1,1.75,12.0,1.0,1.0,0.0,50.0
6460,1,walk,walk,323,,323.0,20.0,1.0,0.0,1.0,-2.72,0.263,0.311,0.0,27.0,22.74,0.0,0.0,4.0,0.0,0.0,-3.01,-0.05,-1.02,-0.05,17.9,-16.25,2.23,12.0,1.0,1.0,0.0,50.0
6460,1,walk,walk,324,,324.0,20.0,1.0,0.0,1.0,-2.6,0.272,0.941,0.0,27.0,22.74,0.0,0.0,4.0,0.0,0.0,-3.11,-0.06,-1.02,-0.04,18.72,-18.6,2.62,13.0,1.0,1.0,0.0,50.0
6460,1,walk,walk,325,,325.0,20.0,1.0,0.0,1.0,-2.49,0.286,0.939,0.0,27.0,22.74,0.0,0.0,4.0,0.0,0.0,-2.99,-0.05,-1.02,-0.03,19.45,-21.04,2.82,13.0,1.0,1.0,0.0,50.0
6460,1,walk,walk,326,,326.0,20.0,1.0,0.0,1.0,-2.4,0.303,1.286,0.0,27.0,22.74,0.0,0.0,4.0,0.0,0.0,-2.64,-0.05,-1.02,-0.01,20.05,-23.35,2.77,13.0,1.0,1.0,0.0,50.0
6520,1,walk,walk,327,,327.0,20.0,1.0,0.0,1.0,-2.33,0.324,1.629,0.0,27.0,22.74,0.0,0.0,4.0,0.0,0.0,-2.06,-0.04,-1.02,0.0,20.47,-25.29,2.4,13.0,1.0,1.0,0.0,50.0
6520,1,walk,walk,328,,328.0,20.0,1.0,0.0,1.0,-2.28,0.348,1.629,0.0,27.0,22.74,0.0,0.0,4.0,0.0,0.0,-1.29,-0.02,-1.02,0.02,20.67,-26.56,1.64,13.0,1.0,1.0,0.0,50.0
6520,1,walk,walk,329,,329.0,20.0,1.0,0.0,1.0,-2.24,0.371,1.403,0.0,27.0,22.74,0.0,0.0,4.0,0.0,0.0,-0.42,-0.01,-1.01,0.03,20.59,-26.84,0.49,13.0,1.0,1.0,0.0,50.0
6580,1,walk,walk,330,,330.0,20.0,1.0,0.0,1.0,-2.22,0.391,1.247,0.0,27.0,22.74,0.0,0.0,4.0,0.0,0.0,0.49,0.01,-1.01,0.05,20.2,-25.9,-0.99,13.0,1.0,1.0,0.0,50.0
6580,1,walk,walk,331,,331.0,20.0,1.0,0.0,1.0,-2.2,0.408,1.119,0.0,27.0,22.77,0.0,0.0,3.0,0.0,0.0,1.31,0.02,-1.01,0.06,19.42,-23.64,-2.69,13.0,1.0,1.0,0.0,50.0
6580,1,walk,walk,332,,332.0,20.0,1.0,0.0,1.0,-2.19,0.421,0.675,0.0,27.0,22.74,0.0,0.0,3.0,0.0,0.0,1.97,0.03,-1.01,0.07,18.22,-20.17,-4.44,13.0,1.0,1.0,0.0,50.0
6640,1,walk,walk,333,,333.0,20.0,0.0,0.0,1.0,-2.17,0.434,0.707,0.0,27.0,22.74,0.0,0.0,2.0,0.0,0.0,2.36,0.04,-1.01,0.08,16.59,-15.83,-6.1,13.0,1.0,1.0,0.0,50.0
6660,1,walk,walk,334,,334.0,20.0,0.0,0.0,1.0,-2.16,0.441,0.323,0.0,27.0,22.74,0.0,0.0,2.0,0.0,0.0,2.42,0.04,-1.01,0.09,14.51,-11.12,-7.46,13.0,1.0,1.0,0.0,50.0
6660,1,walk,walk,335,,335.0,20.0,0.0,0.0,1.0,-2.13,0.444,0.179,0.0,27.0,22.77,0.0,0.0,1.0,0.0,0.0,2.11,0.04,-1.01,0.09,11.95,-6.68,-8.41,13.0,1.0,1.0,0.0,50.0
6720,1,walk,walk,336,,336.0,20.0,0.0,0.0,1.0,-2.09,0.447,0.217,0.0,27.0,22.74,0.0,0.0,1.0,0.0,0.0,1.45,0.03,-1.01,0.09,8.93,-3.14,-8.9,13.0,1.0,1.0,0.0,50.0
6720,1,walk,walk,337,,337.0,20.0,1.0,0.0,1.0,-2.04,0.45,0.001,0.0,27.0,22.74,0.0,0.0,2.0,0.0,0.0,0.47,0.01,-1.0,0.09,5.5,-0.95,-8.94,13.0,1.0,1.0,0.0,50.0
6720,1,walk,walk,338,,338.0,20.0,1.0,0.0,1.0,-1.98,0.45,-0.103,0.0,27.0,22.74,0.0,0.0,2.0,0.0,0.0,-0.77,-0.01,-1.0,0.08,1.76,-0.33,-8.64,13.0,1.0,1.0,0.0,50.0
6780,1,walk,walk,339,,339.0,20.0,1.0,0.0,1.0,-1.9,0.448,-0.222,0.0,27.0,22.74,0.0,0.0,2.0,0.0,0.0,-2.2,-0.04,-0.99,0.08,-2.16,-1.25,-8.09,13.0,1.0,1.0,0.0,50.0
6780,1,walk,walk,340,,340.0,20.0,1.0,0.0,1.0,-1.8,0.437,-1.216,0.0,27.0,22.74,0.0,0.0,2.0,0.0,0.0,-3.74,-0.06,-0.98,0.06,-6.1,-3.43,-7.42,13.0,1.0,1.0,0.0,50.0
6780,1,walk,walk,341,,341.0,20.0,1.0,0.0,1.0,-1.7,0.411,-2.075,0.0,27.0,22.74,0.0,0.0,2.0,0.0,0.0,-5.33,-0.09,-0.98,0.05,-9.93,-6.46,-6.58,13.0,1.0,1.0,0.0,50.0
6840,1,walk,walk,342,,342.0,20.0,1.0,0.0,1.0,-1.59,0.375,-2.584,0.0,27.0,22.74,0.0,0.0,2.0,0.0,0.0,-6.83,-0.12,-0.97,0.04,-13.52,-9.8,-5.5,13.0,1.0,1.0,0.0,50.0
6840,1,walk,walk,343,,343.0,20.0,0.0,0.0,1.0,-1.47,0.344,-1.503,0.0,27.0,22.74,0.0,0.0,1.0,0.0,0.0,-8.04,-0.14,-0.97,0.03,-16.55,-12.96,-4.1,13.0,1.0,1.0,0.0,50.0
6840,1,walk,walk,344,,344.0,20.0,0.0,0.0,1.0,-1.36,0.33,-0.788,0.0,27.0,22.77,0.0,0.0,1.0,0.0,0.0,-8.73,-0.15,-0.97,0.03,-18.72,-15.23,-2.38,13.0,1.0,1.0,0.0,50.0
6840,1,walk,walk,345,,345.0,20.0,0.0,0.0,1.0,-1.25,0.314,-1.095,0.0,27.0,22.74,0.0,0.0,1.0,0.0,0.0,-8.77,-0.15,-0.98,0.04,-19.86,-15.64,-0.39,13.0,1.0,1.0,0.0,50.0
6920,1,walk,walk,346,,346.0,20.0,0.0,0.0,1.0,-1.16,0.299,-0.896,0.0,27.0,22.74,0.0,0.0,1.0,0.0,0.0,-8.23,-0.14,-0.99,0.05,-20.04,-13.47,1.83,13.0,1.0,1.0,0.0,50.0
6920,1,walk,walk,347,,347.0,20.0,1.0,0.0,1.0,-1.08,0.291,-0.322,0.0,27.0,22.77,0.0,0.0,2.0,0.0,0.0,-7.31,-0.13,-1.0,0.07,-19.49,-8.74,4.17,13.0,1.0,1.0,0.0,50.0
6920,1,walk,walk,348,,348.0,20.0,1.0,0.0,1.0,-1.02,0.283,-0.691,0.0,27.0,22.74,0.0,0.0,2.0,0.0,0.0,-6.3,-0.11,-1.01,0.09,-18.5,-2.31,6.5,13.0,1.0,1.0,0.0,50.0
6980,1,walk,walk,349,,349.0,20.0,1.0,0.0,1.0,-0.98,0.273,-0.46,0.0,27.0,22.74,0.0,0.0,1.0,0.0,0.0,-5.45,-0.1,-1.02,0.11,-17.38,4.52,8.67,13.0,1.0,1.0,0.0,50.0
6980,1,walk,walk,350,,350.0,20.0,1.0,0.0,1.0,-0.96,0.27,-0.105,0.0,27.0,22.77,0.0,0.0,1.0,0.0,0.0,-4.89,-0.09,-1.03,0.12,-16.3,10.36,10.54,13.0,1.0,1.0,0.0,50.0
7040,1,walk,walk,351,,351.0,20.0,1.0,0.0,1.0,-0.97,0.265,-0.414,0.0,27.0,22.77,0.0,0.0,1.0,0.0,0.0,-4.65,-0.08,-1.03,0.13,-15.29,14.17,11.95,13.0,1.0,1.0,0.0,50.0
7040,1,walk,walk,352,,352.0,20.0,0.0,0.0,1.0,-1.0,0.254,-0.824,0.0,27.0,22.74,0.0,0.0,0.0,0.0,0.0,-4.63,-0.08,-1.03,0.13,-14.28,15.55,12.89,14.0,1.0,1.0,0.0,50.0
7040,1,walk,walk,353,,353.0,20.0,0.0,0.0,1.0,-1.06,0.245,-0.432,0.0,27.0,22.74,0.0,0.0,0.0,0.0,0.0,-4.67,-0.08,-1.03,0.12,-13.23,14.78,13.46,14.0,1.0,1.0,0.0,50.0
7040,1,walk,walk,354,,354.0,20.0,1.0,0.0,1.0,-1.15,0.242,-0.221,0.0,27.0,22.77,0.0,0.0,1.0,0.0,0.0,-4.61,-0.08,-1.02,0.11,-12.17,12.6,13.73,14.0,1.0,1.0,0.0,50.0
7040,1,walk,walk,355,,355.0,20.0,1.0,0.0,1.0,-1.26,0.241,0.066,0.0,27.0,22.74,0.0,0.0,1.0,0.0,0.0,-4.36,-0.08,-1.02,0.1,-11.14,10.05,13.76,14.0,1.0,1.0,0.0,50.0
7100,1,walk,walk,356,,356.0,20.0,0.0,0.0,1.0,-1.4,0.241,0.091,0.0,27.0,22.74,0.0,0.0,0.0,0.0,0.0,-3.95,-0.07,-1.02,0.09,-10.2,8.02,13.57,14.0,1.0,1.0,0.0,50.0
7100,1,walk,walk,357,,357.0,20.0,0.0,0.0,1.0,-1.55,0.241,-0.026,0.0,27.0,22.74,0.0,0.0,0.0,0.0,0.0,-3.46,-0.06,-1.02,0.08,-9.38,7.0,13.19,14.0,1.0,1.0,0.0,50.0
7100,1,walk,walk,358,,358.0,20.0,1.0,0.0,1.0,-1.73,0.241,-0.011,0.0,27.0,22.74,0.0,0.0,1.0,0.0,0.0,-3.04,-0.05,-1.01,0.07,-8.66,6.99,12.66,14.0,1.0,1.0,0.0,50.0
7160,1,walk,walk,359,,359.0,20.0,1.0,0.0,1.0,-1.92,0.241,-0.032,0.0,27.0,22.74,0.0,0.0,1.0,0.0,0.0,-2.77,-0.05,-1.01,0.06,-8.04,7.61,12.02,14.0,1.0,1.0,0.0,50.0
7160,1,walk,walk,360,,360.0,20.0,1.0,0.0,1.0,-2.12,0.241,-0.009,0.0,27.0,22.77,0.0,0.0,1.0,0.0,0.0,-2.71,-0.05,-1.01,0.05,-7.49,8.4,11.3,14.0,1.0,1.0,0.0,50.0
7160,1,walk,walk,361,,361.0,20.0,1.0,0.0,1.0,-2.34,0.241,-0.037,0.0,27.0,22.74,0.0,0.0,1.0,0.0,0.0,-2.84,-0.05,-1.01,0.04,-7.0,8.99,10.51,14.0,1.0,1.0,0.0,50.0
7240,1,walk,walk,362,,362.0,20.0,1.0,0.0,1.0,-2.56,0.241,0.037,0.0,27.0,22.74,0.0,0.0,0.0,0.0,0.0,-3.11,-0.05,-1.01,0.03,-6.58,9.17,9.67,14.0,1.0,1.0,0.0,50.0
7240,1,walk,walk,363,,363.0,20.0,0.0,0.0,1.0,-2.78,0.241,0.037,0.0,27.0,22.77,0.0,0.0,19.0,0.0,0.0,-3.45,-0.06,-1.01,0.02,-6.23,8.94,8.81,14.0,1.0,1.0,0.0,50.0
7240,1,walk,walk,364,,364.0,20.0,0.0,0.0,1.0,-3.0,0.241,-0.003,0.0,27.0,22.74,0.0,0.0,14.0,0.0,0.0,-3.8,-0.07,-1.01,0.02,-5.95,8.43,7.96,14.0,1.0,1.0,0.0,50.0
7240,1,walk,walk,365,,365.0,20.0,0.0,0.0,1.0,-3.22,0.241,0.058,0.0,27.0,22.74,0.0,0.0,14.0,0.0,0.0,-4.12,-0.07,-1.01,0.01,-5.73,7.81,7.13,14.0,1.0,1.0,0.0,50.0
7300,1,walk,walk,366,,366.0,20.0,1.0,0.0,1.0,-3.43,0.241,-0.075,0.0,27.0,22.74,0.0,0.0,15.0,0.0,0.0,-4.39,-0.08,-1.01,0.01,-5.56,7.28,6.35,14.0,1.0,1.0,0.0,50.0
7300,1,walk,walk,367,,367.0,20.0,1.0,0.0,1.0,-3.64,0.241,-0.006,0.0,27.0,22.77,0.0,0.0,15.0,0.0,0.0,-4.61,-0.08,-1.01,0.0,-5.41,6.93,5.62,14.0,1.0,1.0,0.0,50.0
7300,1,walk,walk,368,,368.0,20.0,1.0,0.0,1.0,-3.84,0.241,0.025,0.0,27.0,22.74,0.0,0.0,15.0,0.0,0.0,-4.82,-0.08,-1.01,0.0,-5.29,6.79,4.96,14.0,1.0,1.0,0.0,50.0
7380,1,walk,walk,369,,369.0,20.0,1.0,0.0,1.0,-4.04,0.241,0.087,0.0,27.0,22.74,0.0,0.0,15.0,0.0,0.0,-5.02,-0.09,-1.01,-0.01,-5.17,6.81,4.36,14.0,1.0,1.0,0.0,50.0
7380,1,walk,walk,370,,370.0,20.0,1.0,0.0,1.0,-4.22,0.241,0.112,0.0,27.0,22.77,0.0,0.0,15.0,0.0,0.0,-5.23,-0.09,-1.01,-0.01,-5.06,6.91,3.82,14.0,1.0,1.0,0.0,50.0
7380,1,walk,walk,371,,371.0,20.0,1.0,0.0,1.0,-4.39,0.241,0.06,0.0,27.0,22.74,0.0,0.0,14.0,0.0,0.0,-5.45,-0.1,-1.01,-0.01,-4.96,7.02,3.33,14.0,1.0,1.0,0.0,50.0
7440,1,walk,walk,372,,372.0,20.0,0.0,0.0,1.0,-4.56,0.241,-0.044,0.0,27.0,22.77,0.0,0.0,13.0,0.0,0.0,-5.68,-0.1,-1.01,-0.02,-4.86,7.07,2.9,14.0,1.0,1.0,0.0,50.0
7440,1,walk,walk,373,,373.0,20.0,0.0,0.0,1.0,-4.71,0.241,0.042,0.0,27.0,22.74,0.0,0.0,12.0,0.0,0.0,-5.9,-0.1,-1.01,-0.02,-4.77,7.06,2.54,15.0,1.0,1.0,0.0,50.0
7440,1,walk,walk,374,,374.0,20.0,0.0,0.0,1.0,-4.85,0.242,-0.019,0.0,27.0,22.74,0.0,0.0,12.0,0.0,0.0,-6.09,-0.11,-1.01,-0.02,-4.68,6.99,2.22,15.0,1.0,1.0,0.0,50.0
7500,1,walk,walk,375,,375.0,20.0,1.0,0.0,1.0,-4.98,0.242,0.062,0.0,27.0,22.74,0.0,0.0,13.0,0.0,0.0,-6.22,-0.11,-1.0,-0.03,-4.59,6.86,1.94,15.0,1.0,1.0,0.0,50.0
7500,1,walk,walk,376,,376.0,20.0,1.0,0.0,1.0,-5.1,0.245,0.238,0.0,27.0,22.74,0.0,0.0,13.0,0.0,0.0,-6.27,-0.11,-1.0,-0.03,-4.51,6.72,1.66,15.0,1.0,1.0,0.0,50.0
7500,1,walk,walk,377,,377.0,20.0,1.0,0.0,1.0,-5.21,0.249,0.207,0.0,27.0,22.74,0.0,0.0,13.0,0.0,0.0,-6.23,-0.11,-1.0,-0.03,-4.43,6.62,1.37,15.0,1.0,1.0,0.0,50.0
7560,1,walk,walk,378,,378.0,20.0,1.0,0.0,1.0,-5.32,0.253,0.316,0.0,27.0,22.74,0.0,0.0,13.0,0.0,0.0,-6.09,-0.11,-1.0,-0.03,-4.35,6.61,1.05,15.0,1.0,1.0,0.0,50.0
7560,1,walk,walk,379,,379.0,20.0,0.0,0.0,1.0,-5.41,0.26,0.416,0.0,27.0,22.74,0.0,0.0,9.0,0.0,0.0,-5.88,-0.1,-1.0,-0.03,-4.27,6.7,0.67,15.0,1.0,1.0,0.0,50.0
7560,1,walk,walk,380,,380.0,20.0,1.0,0.0,1.0,-5.5,0.267,0.694,0.0,27.0,22.74,0.0,0.0,9.0,0.0,0.0,-5.6,-0.1,-1.0,-0.03,-4.18,6.81,0.21,15.0,1.0,1.0,0.0,50.0
7620,1,walk,walk,381,,381.0,20.0,1.0,0.0,1.0,-5.57,0.279,0.702,0.0,27.0,22.74,0.0,0.0,9.0,0.0,0.0,-5.27,-0.09,-1.0,-0.03,-4.09,6.85,-0.35,15.0,1.0,1.0,0.0,50.0
7620,1,walk,walk,382,,382.0,20.0,1.0,0.0,1.0,-5.64,0.289,0.837,0.0,27.0,22.74,0.0,0.0,8.0,0.0,0.0,-4.86,-0.08,-1.0,-0.04,-3.99,6.65,-1.03,15.0,1.0,1.0,0.0,50.0
7620,1,walk,walk,383,,383.0,20.0,1.0,0.0,1.0,-5.7,0.308,1.283,0.0,27.0,22.74,0.0,0.0,8.0,0.0,0.0,-4.31,-0.08,-1.0,-0.04,-3.87,6.05,-1.87,15.0,1.0,1.0,0.0,50.0
7680,1,walk,walk,384,,384.0,20.0,1.0,0.0,1.0,-5.75,0.332,1.856,0.0,27.0,22.74,0.0,0.0,8.0,0.0,0.0,-3.53,-0.06,-0.99,-0.03,-3.71,4.88,-2.98,15.0,1.0,1.0,0.0,50.0
7680,1,walk,walk,385,,385.0,20.0,0.0,0.0,1.0,-5.79,0.369,2.839,0.0,27.0,22.74,0.0,0.0,7.0,0.0,0.0,-2.42,-0.04,-0.99,-0.03,-3.47,3.13,-4.47,15.0,1.0,1.0,0.0,50.0
7680,1,walk,walk,386,,386.0,20.0,0.0,0.0,1.0,-5.82,0.42,3.807,0.0,27.0,22.74,0.0,0.0,7.0,0.0,0.0,-0.93,-0.02,-0.98,-0.02,-3.23,1.05,-6.52,15.0,1.0,1.0,0.0,50.0
7680,1,walk,walk,387,,387.0,20.0,0.0,0.0,1.0,-5.83,0.482,4.346,0.0,27.0,22.74,0.0,0.0,7.0,0.0,0.0,0.85,0.01,-0.97,-0.01,-3.07,-1.09,-9.2,15.0,1.0,1.0,0.0,50.0
7760,1,walk,walk,388,,388.0,20.0,0.0,0.0,1.0,-5.83,0.548,4.476,0.0,27.0,22.74,0.0,0.0,7.0,0.0,0.0,2.78,0.05,-0.96,0.0,-3.06,-3.17,-12.48,15.0,1.0,1.0,0.0,50.0
7760,1,walk,walk,389,,389.0,20.0,1.0,0.0,1.0,-5.8,0.611,4.369,0.0,27.0,22.74,0.0,0.0,8.0,0.0,0.0,4.66,0.08,-0.95,0.01,-3.22,-5.18,-16.24,15.0,1.0,1.0,0.0,50.0
7760,1,walk,walk,390,,390.0,20.0,1.0,0.0,1.0,-5.75,0.675,4.273,0.0,27.0,22.74,0.0,0.0,8.0,0.0,0.0,6.26,0.1,-0.93,0.02,-3.55,-7.09,-20.37,15.0,1.0,1.0,0.0,50.0
7820,1,walk,walk,391,,391.0,20.0,1.0,0.0,1.0,-5.66,0.738,4.049,0.0,27.0,22.74,0.0,0.0,8.0,0.0,0.0,7.34,0.12,-0.92,0.03,-4.0,-8.85,-24.6,15.0,1.0,1.0,0.0,50.0
7820,1,walk,walk,392,,392.0,20.0,1.0,0.0,1.0,-5.54,0.788,2.725,0.0,27.0,22.74,0.0,0.0,8.0,0.0,0.0,7.72,0.12,-0.91,0.04,-4.5,-10.51,-28.55,15.0,1.0,1.0,0.0,50.0
7820,1,walk,walk,393,,393.0,20.0,1.0,0.0,1.0,-5.37,0.819,1.699,0.0,27.0,22.74,0.0,0.0,8.0,0.0,0.0,7.29,0.12,-0.9,0.04,-5.0,-12.13,-31.9,15.0,1.0,1.0,0.0,50.0
7860,1,walk,walk,394,,394.0,20.0,0.0,0.0,1.0,-5.15,0.835,0.549,0.0,27.0,22.74,0.0,0.0,7.0,0.0,0.0,6.02,0.1,-0.91,0.03,-5.42,-13.79,-34.36,15.0,1.0,1.0,0.0,50.0
7880,1,walk,walk,395,,395.0,20.0,0.0,0.0,1.0,-4.88,0.836,-0.115,0.0,27.0,22.74,0.0,0.0,7.0,0.0,0.0,4.0,0.07,-0.93,0.02,-5.72,-15.4,-35.71,15.0,1.0,1.0,0.0,50.0
7880,1,walk,walk,396,,396.0,20.0,0.0,0.0,1.0,-4.56,0.829,-1.008,0.0,27.0,22.74,0.0,0.0,7.0,0.0,0.0,1.39,0.02,-0.97,0.0,-5.88,-16.86,-35.82,15.0,1.0,1.0,0.0,50.0
7940,1,walk,walk,397,,397.0,20.0,0.0,0.0,1.0,-4.19,0.797,-3.093,0.0,27.0,22.74,0.0,0.0,7.0,0.0,0.0,-1.59,-0.03,-1.02,-0.02,-5.95,-17.95,-34.57,15.0,1.0,1.0,0.0,50.0
7940,1,walk,walk,398,,398.0,20.0,1.0,0.0,1.0,-3.77,0.73,-5.482,0.0,27.0,22.77,0.0,0.0,7.0,0.0,0.0,-4.58,-0.09,-1.1,-0.06,-5.92,-18.48,-31.83,15.0,1.0,1.0,0.0,50.0
7980,1,walk,walk,399,,399.0,20.0,1.0,0.0,1.0,-3.31,0.633,-6.775,0.0,27.0,22.74,0.0,0.0,7.0,0.0,0.0,-7.17,-0.15,-1.18,-0.1,-5.64,-18.38,-27.43,15.0,1.0,1.0,0.0,50.0
7980,1,walk,walk,400,,400.0,20.0,1.0,0.0,1.0,-2.83,0.532,-6.578,0.0,27.0,22.77,0.0,0.0,7.0,0.0,0.0,-8.97,-0.2,-1.28,-0.14,-4.9,-17.7,-21.35,16.0,1.0,1.0,0.0,50.0
7980,1,walk,walk,401,,401.0,20.0,1.0,0.0,1.0,-2.33,0.442,-5.552,0.0,27.0,22.74,0.0,0.0,7.0,0.0,0.0,-9.87,-0.24,-1.38,-0.17,-3.58,-16.41,-13.94,16.0,1.0,1.0,0.0,50.0
8040,1,walk,walk,402,,402.0,20.0,1.0,0.0,1.0,-1.82,0.372,-4.106,0.0,27.0,22.77,0.0,0.0,7.0,0.0,0.0,-9.98,-0.26,-1.47,-0.19,-1.79,-14.5,-5.9,16.0,1.0,1.0,0.0,50.0
8040,1,walk,walk,403,,403.0,20.0,0.0,0.0,1.0,-1.32,0.326,-2.447,0.0,27.0,22.77,0.0,0.0,6.0,0.0,0.0,-9.47,-0.26,-1.53,-0.19,0.26,-12.31,1.91,16.0,1.0,1.0,0.0,50.0
8040,1,walk,walk,404,,404.0,20.0,0.0,0.0,1.0,-0.84,0.301,-0.972,0.0,27.0,22.74,0.0,0.0,6.0,0.0,0.0,-8.5,-0.23,-1.56,-0.18,2.32,-10.72,8.71,16.0,1.0,1.0,0.0,50.0
8100,1,walk,walk,405,,405.0,20.0,1.0,0.0,1.0,-0.39,0.301,0.589,0.0,27.0,22.74,0.0,0.0,7.0,0.0,0.0,-7.14,-0.2,-1.56,-0.16,4.18,-10.48,13.88,16.0,1.0,1.0,0.0,50.0
8100,1,walk,walk,406,,406.0,20.0,1.0,0.0,1.0,0.01,0.315,1.29,0.0,27.0,22.74,0.0,0.0,7.0,0.0,0.0,-5.41,-0.14,-1.52,-0.14,5.69,-11.65,17.15,16.0,1.0,1.0,0.0,50.0
8100,1,walk,walk,407,,407.0,20.0,1.0,0.0,1.0,0.36,0.336,1.564,0.0,27.0,22.74,0.0,0.0,7.0,0.0,0.0,-3.38,-0.09,-1.45,-0.12,6.81,-13.74,18.48,16.0,1.0,1.0,0.0,50.0
8100,1,walk,walk,408,,408.0,20.0,1.0,0.0,1.0,0.65,0.362,1.785,0.0,27.0,22.74,0.0,0.0,7.0,0.0,0.0,-1.1,-0.03,-1.36,-0.1,7.54,-15.88,18.02,16.0,1.0,1.0,0.0,50.0
8180,1,walk,walk,409,,409.0,20.0,0.0,0.0,1.0,0.88,0.386,1.307,0.0,27.0,22.74,0.0,0.0,6.0,0.0,0.0,1.31,0.03,-1.26,-0.09,7.91,-17.23,16.09,16.0,1.0,1.0,0.0,50.0
8180,1,walk,walk,410,,410.0,20.0,0.0,0.0,1.0,1.05,0.399,0.409,0.0,27.0,22.74,0.0,0.0,6.0,0.0,0.0,3.69,0.07,-1.15,-0.07,8.05,-17.06,13.14,16.0,1.0,1.0,0.0,50.0
8180,1,walk,walk,411,,411.0,20.0,0.0,0.0,1.0,1.16,0.4,-0.038,0.0,27.0,22.74,0.0,0.0,6.0,0.0,0.0,5.9,0.11,-1.03,-0.06,8.09,-14.92,9.67,16.0,1.0,1.0,0.0,50.0
8240,1,walk,walk,412,,412.0,20.0,1.0,0.0,1.0,1.21,0.395,-0.51,0.0,27.0,22.74,0.0,0.0,7.0,0.0,0.0,7.81,0.13,-0.92,-0.05,8.16,-10.78,6.12,16.0,1.0,1.0,0.0,50.0
8240,1,walk,walk,413,,413.0,20.0,1.0,0.0,1.0,1.22,0.383,-0.794,0.0,27.0,22.77,0.0,0.0,7.0,0.0,0.0,9.32,0.13,-0.81,-0.05,8.34,-4.99,2.85,16.0,1.0,1.0,0.0,50.0
8240,1,walk,walk,414,,414.0,20.0,1.0,0.0,1.0,1.2,0.376,0.005,0.0,27.0,22.74,0.0,0.0,7.0,0.0,0.0,10.35,0.13,-0.71,-0.04,8.6,1.59,0.08,16.0,1.0,1.0,0.0,50.0
8300,1,walk,walk,415,,415.0,20.0,1.0,0.0,1.0,1.15,0.377,0.045,0.0,27.0,22.74,0.0,0.0,7.0,0.0,0.0,10.74,0.12,-0.62,-0.03,8.8,7.86,-2.04,16.0,1.0,1.0,0.0,50.0
8300,1,walk,walk,416,,416.0,20.0,1.0,0.0,1.0,1.08,0.379,0.481,0.0,27.0,22.74,0.0,0.0,7.0,0.0,0.0,10.31,0.1,-0.53,-0.02,8.85,12.65,-3.51,16.0,1.0,1.0,0.0,50.0
8300,1,walk,walk,417,,417.0,20.0,1.0,0.0,1.0,1.01,0.417,4.606,0.0,27.0,22.74,0.0,0.0,7.0,0.0,0.0,9.08,0.07,-0.45,-0.01,8.18,14.24,-4.19,16.0,1.0,1.0,0.0,50.0
8300,1,walk,walk,418,,418.0,20.0,1.0,0.0,1.0,0.94,0.482,3.339,0.0,27.0,22.74,0.0,0.0,7.0,0.0,0.0,8.2,0.06,-0.4,-0.01,6.56,11.56,-4.32,16.0,1.0,1.0,0.0,50.0
8380,1,walk,walk,419,,419.0,20.0,0.0,0.0,1.0,0.87,0.541,5.751,0.0,27.0,22.77,0.0,0.0,6.0,0.0,0.0,10.47,0.07,-0.39,-0.01,4.53,5.49,-4.93,16.0,1.0,1.0,0.0,50.0
8380,1,walk,walk,420,,420.0,20.0,0.0,0.0,1.0,0.81,0.66,9.427,0.0,27.0,22.77,0.0,0.0,6.0,0.0,0.0,15.77,0.12,-0.43,-0.02,2.26,-0.08,-6.91,17.0,1.0,1.0,0.0,50.0
8380,1,walk,walk,421,,421.0,20.0,0.0,0.0,1.0,0.77,0.822,11.304,0.0,27.0,22.74,0.0,0.0,6.0,0.0,0.0,20.38,0.19,-0.5,-0.03,-0.42,-2.56,-10.73,17.0,1.0,1.0,0.0,50.0
8380,1,walk,walk,422,,422.0,20.0,0.0,0.0,1.0,0.75,0.944,3.407,0.0,27.0,22.74,0.0,0.0,6.0,0.0,0.0,21.68,0.24,-0.6,-0.06,-4.03,0.02,-16.17,17.0,1.0,1.0,0.0,50.0
8440,1,walk,walk,423,,423.0,20.0,1.0,0.0,1.0,0.75,0.932,-2.466,0.0,27.0,22.74,0.0,0.0,7.0,0.0,0.0,19.63,0.25,-0.7,-0.09,-8.56,6.4,-21.86,17.0,1.0,1.0,0.0,50.0
8440,1,walk,walk,424,,424.0,20.0,1.0,0.0,1.0,0.77,0.878,-4.179,0.0,27.0,22.74,0.0,0.0,7.0,0.0,0.0,15.2,0.22,-0.83,-0.12,-12.87,13.1,-26.04,17.0,1.0,1.0,0.0,50.0
8440,1,walk,walk,425,,425.0,20.0,1.0,0.0,1.0,0.83,0.804,-5.432,0.0,27.0,22.74,0.0,0.0,7.0,0.0,0.0,9.79,0.17,-0.96,-0.16,-15.7,17.19,-27.46,17.0,1.0,1.0,0.0,50.0
8500,1,walk,walk,426,,426.0,20.0,1.0,0.0,1.0,0.92,0.719,-5.416,0.0,27.0,22.74,0.0,0.0,7.0,0.0,0.0,4.61,0.09,-1.1,-0.19,-16.79,17.86,-25.86,17.0,1.0,1.0,0.0,50.0
8500,1,walk,walk,427,,427.0,20.0,1.0,0.0,1.0,1.06,0.656,-3.544,0.0,27.0,22.74,0.0,0.0,7.0,0.0,0.0,0.35,0.01,-1.22,-0.22,-16.38,15.7,-21.78,17.0,1.0,1.0,0.0,50.0
8500,1,walk,walk,428,,428.0,20.0,1.0,0.0,1.0,1.23,0.616,-2.188,0.0,27.0,22.74,0.0,0.0,7.0,0.0,0.0,-2.84,-0.07,-1.32,-0.24,-14.94,12.02,-16.13,17.0,1.0,1.0,0.0,50.0
8580,1,walk,walk,429,,429.0,20.0,0.0,0.0,1.0,1.43,0.59,-1.64,0.0,27.0,22.74,0.0,0.0,6.0,0.0,0.0,-5.07,-0.12,-1.39,-0.26,-12.95,8.04,-9.82,17.0,1.0,1.0,0.0,50.0
8580,1,walk,walk,430,,430.0,20.0,1.0,0.0,1.0,1.66,0.563,-2.04,0.0,27.0,22.74,0.0,0.0,7.0,0.0,0.0,-6.51,-0.16,-1.43,-0.28,-10.75,4.62,-3.48,17.0,1.0,1.0,0.0,50.0
8580,1,walk,walk,431,,431.0,20.0,1.0,0.0,1.0,1.91,0.53,-2.177,0.0,27.0,22.74,0.0,0.0,7.0,0.0,0.0,-7.33,-0.19,-1.45,-0.28,-8.53,2.16,2.49,17.0,1.0,1.0,0.0,50.0
8640,1,walk,walk,432,,432.0,20.0,1.0,0.0,1.0,2.16,0.499,-1.886,0.0,27.0,22.74,0.0,0.0,6.0,0.0,0.0,-7.65,-0.19,-1.43,-0.28,-6.46,0.66,7.89,17.0,1.0,1.0,0.0,50.0
8640,1,walk,walk,433,,433.0,20.0,1.0,0.0,1.0,2.41,0.474,-1.235,0.0,27.0,22.74,0.0,0.0,6.0,0.0,0.0,-7.53,-0.19,-1.4,-0.27,-4.63,0.0,12.59,17.0,1.0,1.0,0.0,50.0
8640,1,walk,walk,434,,434.0,20.0,0.0,0.0,1.0,2.65,0.459,-0.993,0.0,27.0,22.74,0.0,0.0,5.0,0.0,0.0,-7.03,-0.17,-1.36,-0.25,-3.09,0.02,16.48,17.0,1.0,1.0,0.0,50.0
8700,1,walk,walk,435,,435.0,20.0,0.0,0.0,1.0,2.86,0.451,-0.134,0.0,27.0,22.74,0.0,0.0,4.0,0.0,0.0,-6.15,-0.14,-1.3,-0.23,-1.86,0.65,19.46,17.0,1.0,1.0,0.0,50.0
8700,1,walk,walk,436,,436.0,20.0,0.0,0.0,1.0,3.04,0.451,0.013,0.0,27.0,22.74,0.0,0.0,4.0,0.0,0.0,-4.91,-0.11,-1.25,-0.2,-0.94,1.93,21.47,17.0,1.0,1.0,0.0,50.0
8700,1,walk,walk,437,,437.0,20.0,0.0,0.0,1.0,3.18,0.453,0.115,0.0,27.0,22.74,0.0,0.0,4.0,0.0,0.0,-3.41,-0.07,-1.19,-0.17,-0.37,3.84,22.49,17.0,1.0,1.0,0.0,50.0
8700,1,walk,walk,438,,438.0,20.0,1.0,0.0,1.0,3.26,0.455,0.065,0.0,27.0,22.74,0.0,0.0,5.0,0.0,0.0,-1.81,-0.04,-1.15,-0.14,-0.1,6.28,22.62,17.0,1.0,1.0,0.0,50.0
8760,1,walk,walk,439,,439.0,20.0,1.0,0.0,1.0,3.3,0.456,0.006,0.0,27.0,22.74,0.0,0.0,5.0,0.0,0.0,-0.37,-0.01,-1.11,-0.12,-0.06,9.03,22.0,17.0,1.0,1.0,0.0,50.0
8760,1,walk,walk,440,,440.0,20.0,1.0,0.0,1.0,3.29,0.456,-0.026,0.0,27.0,22.74,0.0,0.0,5.0,0.0,0.0,0.65,0.01,-1.08,-0.1,-0.14,11.75,20.82,17.0,1.0,1.0,0.0,50.0
8780,1,walk,walk,441,,441.0,20.0,1.0,0.0,1.0,3.23,0.452,-0.416,0.0,27.0,22.74,0.0,0.0,5.0,0.0,0.0,1.09,0.02,-1.07,-0.08,-0.27,14.07,19.3,17.0,1.0,1.0,0.0,50.0
8840,1,walk,walk,442,,442.0,20.0,1.0,0.0,1.0,3.13,0.44,-1.376,0.0,27.0,22.74,0.0,0.0,5.0,0.0,0.0,0.92,0.02,-1.05,-0.07,-0.37,15.63,17.69,17.0,1.0,1.0,0.0,50.0
8840,1,walk,walk,443,,443.0,20.0,0.0,0.0,1.0,2.98,0.416,-1.659,0.0,27.0,22.74,0.0,0.0,4.0,0.0,0.0,0.22,0.0,-1.05,-0.06,-0.39,16.15,16.26,17.0,1.0,1.0,0.0,50.0
8840,1,walk,walk,444,,444.0,20.0,0.0,0.0,1.0,2.79,0.392,-1.572,0.0,27.0,22.74,0.0,0.0,4.0,0.0,0.0,-0.79,-0.01,-1.04,-0.06,-0.34,15.56,15.19,17.0,1.0,1.0,0.0,50.0
8900,1,walk,walk,445,,445.0,20.0,0.0,0.0,1.0,2.58,0.372,-1.215,0.0,27.0,22.74,0.0,0.0,4.0,0.0,0.0,-1.9,-0.03,-1.04,-0.05,-0.27,14.04,14.49,17.0,1.0,1.0,0.0,50.0
8900,1,walk,walk,446,,446.0,20.0,1.0,0.0,1.0,2.33,0.358,-0.669,0.0,27.0,22.74,0.0,0.0,5.0,0.0,0.0,-2.89,-0.05,-1.03,-0.04,-0.21,11.95,14.07,17.0,1.0,1.0,0.0,50.0
8960,1,walk,walk,447,,447.0,20.0,1.0,0.0,1.0,2.07,0.348,-0.531,0.0,27.0,22.74,0.0,0.0,5.0,0.0,0.0,-3.64,-0.07,-1.03,-0.04,-0.19,9.67,13.78,17.0,1.0,1.0,0.0,50.0
8960,1,walk,walk,448,,448.0,20.0,1.0,0.0,1.0,1.79,0.345,-0.138,0.0,27.0,22.74,0.0,0.0,5.0,0.0,0.0,-4.09,-0.07,-1.03,-0.03,-0.21,7.5,13.48,18.0,1.0,1.0,0.0,50.0
8960,1,walk,walk,449,,449.0,20.0,1.0,0.0,1.0,1.5,0.344,-0.13,0.0,27.0,22.74,0.0,0.0,5.0,0.0,0.0,-4.26,-0.08,-1.02,-0.03,-0.26,5.63,13.04,18.0,1.0,1.0,0.0,50.0
8960,1,walk,walk,450,,450.0,20.0,1.0,0.0,1.0,1.21,0.342,-0.195,0.0,27.0,22.77,0.0,0.0,5.0,0.0,0.0,-4.19,-0.07,-1.02,-0.03,-0.34,4.12,12.4,18.0,1.0,1.0,0.0,50.0
8960,1,walk,walk,451,,451.0,20.0,1.0,0.0,1.0,0.91,0.339,-0.088,0.0,27.0,22.74,0.0,0.0,5.0,0.0,0.0,-3.98,-0.07,-1.01,-0.02,-0.45,2.97,11.58,18.0,1.0,1.0,0.0,50.0
9040,1,walk,walk,452,,452.0,20.0,0.0,0.0,1.0,0.6,0.337,-0.099,0.0,27.0,22.74,0.0,0.0,4.0,0.0,0.0,-3.68,-0.06,-1.01,-0.02,-0.58,2.12,10.6,18.0,1.0,1.0,0.0,50.0
9040,1,walk,walk,453,,453.0,20.0,0.0,0.0,1.0,0.3,0.336,-0.107,0.0,27.0,22.77,0.0,0.0,4.0,0.0,0.0,-3.38,-0.06,-1.01,-0.02,-0.72,1.51,9.52,18.0,1.0,1.0,0.0,50.0
9040,1,walk,walk,454,,454.0,20.0,0.0,0.0,1.0,-0.01,0.334,-0.155,0.0,27.0,22.74,0.0,0.0,4.0,0.0,0.0,-3.12,-0.05,-1.0,-0.02,-0.86,1.1,8.39,18.0,1.0,1.0,0.0,50.0
9040,1,walk,walk,455,,455.0,20.0,1.0,0.0,1.0,-0.3,0.332,-0.126,0.0,27.0,22.74,0.0,0.0,5.0,0.0,0.0,-2.92,-0.05,-1.0,-0.02,-1.01,0.86,7.29,18.0,1.0,1.0,0.0,50.0
9100,1,walk,walk,456,,456.0,20.0,1.0,0.0,1.0,-0.59,0.327,-0.32,0.0,27.0,22.74,0.0,0.0,5.0,0.0,0.0,-2.79,-0.05,-1.0,-0.02,-1.15,0.77,6.26,18.0,1.0,1.0,0.0,50.0
9100,1,walk,walk,457,,457.0,20.0,0.0,0.0,1.0,-0.87,0.325,-0.14,0.0,27.0,22.74,0.0,0.0,4.0,0.0,0.0,-2.74,-0.05,-1.0,-0.02,-1.3,0.78,5.35,18.0,1.0,1.0,0.0,50.0
9100,1,walk,walk,458,,458.0,20.0,0.0,0.0,1.0,-1.14,0.324,-0.062,0.0,27.0,22.74,0.0,0.0,4.0,0.0,0.0,-2.75,-0.05,-1.0,-0.02,-1.43,0.88,4.55,18.0,1.0,1.0,0.0,50.0
9160,1,walk,walk,459,,459.0,20.0,0.0,0.0,1.0,-1.4,0.323,0.001,0.0,27.0,22.77,0.0,0.0,4.0,0.0,0.0,-2.79,-0.05,-1.0,-0.02,-1.55,1.05,3.84,18.0,1.0,1.0,0.0,50.0
9160,1,walk,walk,460,,460.0,20.0,0.0,0.0,1.0,-1.64,0.323,-0.044,0.0,27.0,22.74,0.0,0.0,4.0,0.0,0.0,-2.85,-0.05,-1.0,-0.02,-1.66,1.25,3.19,18.0,1.0,1.0,0.0,50.0
9160,1,walk,walk,461,,461.0,20.0,1.0,0.0,1.0,-1.86,0.323,0.041,0.0,27.0,22.74,0.0,0.0,5.0,0.0,0.0,-2.93,-0.05,-1.0,-0.02,-1.76,1.44,2.61,18.0,1.0,1.0,0.0,50.0
9240,1,walk,walk,462,,462.0,20.0,1.0,0.0,1.0,-2.07,0.323,0.046,0.0,27.0,22.74,0.0,0.0,5.0,0.0,0.0,-3.03,-0.05,-1.0,-0.02,-1.85,1.58,2.06,18.0,1.0,1.0,0.0,50.0
9240,1,walk,walk,463,,463.0,20.0,1.0,0.0,1.0,-2.26,0.323,0.011,0.0,27.0,22.74,0.0,0.0,5.0,0.0,0.0,-3.16,-0.06,-1.0,-0.02,-1.93,1.64,1.57,18.0,1.0,1.0,0.0,50.0
9240,1,walk,walk,464,,464.0,20.0,1.0,0.0,1.0,-2.43,0.323,-0.056,0.0,27.0,22.74,0.0,0.0,5.0,0.0,0.0,-3.3,-0.06,-1.0,-0.02,-1.99,1.62,1.12,18.0,1.0,1.0,0.0,50.0
9300,1,walk,walk,465,,465.0,20.0,1.0,0.0,1.0,-2.59,0.323,-0.025,0.0,27.0,22.74,0.0,0.0,5.0,0.0,0.0,-3.46,-0.06,-1.0,-0.03,-2.04,1.53,0.72,18.0,1.0,1.0,0.0,50.0
9300,1,walk,walk,466,,466.0,20.0,0.0,0.0,1.0,-2.73,0.322,-0.045,0.0,27.0,22.74,0.0,0.0,4.0,0.0,0.0,-3.61,-0.06,-1.01,-0.03,-2.07,1.43,0.38,18.0,1.0,1.0,0.0,50.0
9300,1,walk,walk,467,,467.0,20.0,0.0,0.0,1.0,-2.86,0.322,-0.015,0.0,27.0,22.74,0.0,0.0,4.0,0.0,0.0,-3.76,-0.07,-1.01,-0.03,-2.09,1.35,0.1,18.0,1.0,1.0,0.0,50.0
9360,1,walk,walk,468,,468.0,20.0,0.0,0.0,1.0,-2.97,0.321,-0.045,0.0,27.0,22.74,0.0,0.0,4.0,0.0,0.0,-3.89,-0.07,-1.01,-0.03,-2.09,1.3,-0.12,18.0,1.0,1.0,0.0,50.0
9380,1,walk,walk,469,,469.0,20.0,1.0,0.0,1.0,-3.07,0.321,-0.007,0.0,27.0,22.74,0.0,0.0,5.0,0.0,0.0,-4.01,-0.07,-1.01,-0.03,-2.09,1.29,-0.29,18.0,1.0,1.0,0.0,50.0
9380,1,walk,walk,470,,470.0,20.0,1.0,0.0,1.0,-3.16,0.321,-0.028,0.0,27.0,22.74,0.0,0.0,4.0,0.0,0.0,-4.11,-0.07,-1.01,-0.03,-2.08,1.32,-0.41,18.0,1.0,1.0,0.0,50.0
9380,1,walk,walk,471,,471.0,20.0,1.0,0.0,1.0,-3.23,0.321,-0.023,0.0,27.0,22.74,0.0,0.0,4.0,0.0,0.0,-4.19,-0.07,-1.01,-0.03,-2.06,1.37,-0.5,18.0,1.0,1.0,0.0,50.0
9440,1,walk,walk,472,,472.0,20.0,1.0,0.0,1.0,-3.3,0.321,-0.01,0.0,27.0,22.74,0.0,0.0,4.0,0.0,0.0,-4.27,-0.08,-1.01,-0.03,-2.03,1.42,-0.55,18.0,1.0,1.0,0.0,50.0
9440,1,walk,walk,473,,473.0,20.0,1.0,0.0,1.0,-3.35,0.321,-0.113,0.0,27.0,22.74,0.0,0.0,4.0,0.0,0.0,-4.34,-0.08,-1.01,-0.03,-2.0,1.47,-0.57,18.0,1.0,1.0,0.0,50.0
9440,1,walk,walk,474,,474.0,20.0,1.0,0.0,1.0,-3.4,0.32,-0.046,0.0,27.0,22.77,0.0,0.0,4.0,0.0,0.0,-4.39,-0.08,-1.01,-0.04,-1.97,1.52,-0.57,18.0,1.0,1.0,0.0,50.0
9500,1,walk,walk,475,,475.0,20.0,0.0,0.0,1.0,-3.44,0.32,-0.025,0.0,27.0,22.74,0.0,0.0,3.0,0.0,0.0,-4.43,-0.08,-1.01,-0.04,-1.93,1.59,-0.54,18.0,1.0,1.0,0.0,50.0
9500,1,walk,walk,476,,476.0,20.0,0.0,0.0,1.0,-3.47,0.32,-0.044,0.0,27.0,22.74,0.0,0.0,3.0,0.0,0.0,-4.46,-0.08,-1.01,-0.04,-1.89,1.66,-0.5,18.0,1.0,1.0,0.0,50.0
9500,1,walk,walk,477,,477.0,20.0,0.0,0.0,1.0,-3.5,0.32,-0.048,0.0,27.0,22.77,0.0,0.0,3.0,0.0,0.0,-4.47,-0.08,-1.01,-0.04,-1.85,1.77,-0.46,18.0,1.0,1.0,0.0,50.0
9560,1,walk,walk,478,,478.0,20.0,1.0,0.0,1.0,-3.52,0.32,0.057,0.0,27.0,22.74,0.0,0.0,4.0,0.0,0.0,-4.48,-0.08,-1.01,-0.04,-1.82,1.9,-0.41,18.0,1.0,1.0,0.0,50.0
9560,1,walk,walk,479,,479.0,20.0,1.0,0.0,1.0,-3.54,0.32,0.042,0.0,27.0,22.74,0.0,0.0,4.0,0.0,0.0,-4.5,-0.08,-1.01,-0.04,-1.79,2.04,-0.36,19.0,1.0,1.0,0.0,50.0
9560,1,walk,walk,480,,480.0,20.0,0.0,0.0,1.0,-3.56,0.32,0.018,0.0,27.0,22.74,0.0,0.0,3.0,0.0,0.0,-4.51,-0.08,-1.01,-0.04,-1.76,2.18,-0.33,19.0,1.0,1.0,0.0,50.0
9640,1,walk,walk,481,,481.0,20.0,0.0,0.0,1.0,-3.58,0.32,0.021,0.0,27.0,22.74,0.0,0.0,3.0,0.0,0.0,-4.53,-0.08,-1.01,-0.04,-1.74,2.29,-0.3,19.0,1.0,1.0,0.0,50.0
9640,1,walk,walk,482,,482.0,20.0,1.0,0.0,1.0,-3.59,0.32,0.034,0.0,27.0,22.74,0.0,0.0,4.0,0.0,0.0,-4.56,-0.08,-1.01,-0.04,-1.72,2.38,-0.28,19.0,1.0,1.0,0.0,50.0
9640,1,walk,walk,483,,483.0,20.0,1.0,0.0,1.0,-3.6,0.32,0.026,0.0,27.0,22.74,0.0,0.0,4.0,0.0,0.0,-4.6,-0.08,-1.01,-0.04,-1.72,2.46,-0.27,19.0,1.0,1.0,0.0,50.0
9640,1,walk,walk,484,,484.0,20.0,1.0,0.0,1.0,-3.61,0.32,-0.069,0.0,27.0,22.74,0.0,0.0,4.0,0.0,0.0,-4.64,-0.08,-1.01,-0.04,-1.72,2.51,-0.25,19.0,1.0,1.0,0.0,50.0
9700,1,walk,walk,485,,485.0,20.0,1.0,0.0,1.0,-3.62,0.32,-0.034,0.0,27.0,22.74,0.0,0.0,4.0,0.0,0.0,-4.68,-0.08,-1.01,-0.04,-1.74,2.54,-0.24,19.0,1.0,1.0,0.0,50.0
9700,1,walk,walk,486,,486.0,20.0,1.0,0.0,1.0,-3.63,0.32,-0.007,0.0,27.0,22.74,0.0,0.0,4.0,0.0,0.0,-4.72,-0.08,-1.01,-0.04,-1.76,2.56,-0.23,19.0,1.0,1.0,0.0,50.0
9700,1,walk,walk,487,,487.0,20.0,1.0,0.0,1.0,-3.65,0.32,-0.003,0.0,27.0,22.74,0.0,0.0,3.0,0.0,0.0,-4.75,-0.08,-1.01,-0.04,-1.8,2.57,-0.21,19.0,1.0,1.0,0.0,50.0
9700,1,walk,walk,488,,488.0,20.0,0.0,0.0,1.0,-3.66,0.321,-0.017,0.0,27.0,22.77,0.0,0.0,2.0,0.0,0.0,-4.77,-0.08,-1.01,-0.04,-1.84,2.58,-0.19,19.0,1.0,1.0,0.0,50.0
9760,1,walk,walk,489,,489.0,20.0,0.0,0.0,1.0,-3.67,0.32,-0.014,0.0,27.0,22.74,0.0,0.0,2.0,0.0,0.0,-4.78,-0.08,-1.01,-0.04,-1.9,2.61,-0.17,19.0,1.0,1.0,0.0,50.0
9760,1,walk,walk,490,,490.0,20.0,0.0,0.0,1.0,-3.68,0.32,0.018,0.0,27.0,22.74,0.0,0.0,1.0,0.0,0.0,-4.79,-0.08,-1.01,-0.04,-1.96,2.65,-0.15,19.0,1.0,1.0,0.0,50.0
9760,1,walk,walk,491,,491.0,20.0,1.0,0.0,1.0,-3.69,0.32,0.033,0.0,27.0,22.74,0.0,0.0,2.0,0.0,0.0,-4.8,-0.08,-1.01,-0.04,-2.04,2.69,-0.13,19.0,1.0,1.0,0.0,50.0
9840,1,walk,walk,492,,492.0,20.0,1.0,0.0,1.0,-3.7,0.321,0.038,0.0,27.0,22.74,0.0,0.0,2.0,0.0,0.0,-4.81,-0.08,-1.01,-0.04,-2.13,2.74,-0.11,19.0,1.0,1.0,0.0,50.0
9840,1,walk,walk,493,,493.0,20.0,1.0,0.0,1.0,-3.71,0.32,-0.017,0.0,27.0,22.74,0.0,0.0,1.0,0.0,0.0,-4.82,-0.09,-1.01,-0.04,-2.23,2.79,-0.09,19.0,1.0,1.0,0.0,50.0
9840,1,walk,walk,494,,494.0,20.0,1.0,0.0,1.0,-3.73,0.32,-0.033,0.0,27.0,22.74,0.0,0.0,1.0,0.0,0.0,-4.84,-0.09,-1.01,-0.04,-2.33,2.84,-0.07,19.0,1.0,1.0,0.0,50.0
9900,1,walk,walk,495,,495.0,20.0,1.0,0.0,1.0,-3.74,0.32,0.005,0.0,27.0,22.74,0.0,0.0,1.0,0.0,0.0,-4.86,-0.09,-1.01,-0.04,-2.44,2.9,-0.06,19.0,1.0,1.0,0.0,50.0
9900,1,walk,walk,496,,496.0,20.0,0.0,0.0,1.0,-3.75,0.32,-0.022,0.0,27.0,22.74,0.0,0.0,0.0,0.0,0.0,-4.88,-0.09,-1.01,-0.04,-2.56,2.97,-0.05,19.0,1.0,1.0,0.0,50.0
9900,1,walk,walk,497,,497.0,20.0,0.0,0.0,1.0,-3.77,0.32,-0.052,0.0,27.0,22.74,0.0,0.0,0.0,0.0,0.0,-4.9,-0.09,-1.01,-0.04,-2.69,3.07,-0.05,19.0,1.0,1.0,0.0,50.0
9960,1,walk,walk,498,,498.0,20.0,0.0,0.0,1.0,-3.78,0.32,0.015,0.0,27.0,22.74,0.0,0.0,0.0,0.0,0.0,-4.92,-0.09,-1.01,-0.04,-2.82,3.17,-0.07,19.0,1.0,1.0,0.0,50.0
9960,1,walk,walk,499,,499.0,20.0,1.0,0.0,1.0,-3.8,0.32,0.021,0.0,27.0,22.74,0.0,0.0,1.0,0.0,0.0,-4.94,-0.09,-1.01,-0.04,-2.96,3.28,-0.09,20.0,1.0,1.0,0.0,50.0
9960,1,walk,walk,500,,500.0,20.0,1.0,0.0,1.0,-3.81,0.32,-0.036,0.0,27.0,22.77,0.0,0.0,1.0,0.0,0.0,-4.95,-0.09,-1.01,-0.04,-3.13,3.39,-0.13,20.0,1.0,1.0,0.0,50.0
9960,1,walk,walk,501,,501.0,20.0,1.0,0.0,1.0,-3.83,0.321,0.122,0.0,27.0,22.74,0.0,0.0,1.0,0.0,0.0,-4.96,-0.09,-1.01,-0.04,-3.31,3.49,-0.18,20.0,1.0,1.0,0.0,50.0
10040,1,walk,walk,502,,502.0,20.0,1.0,0.0,1.0,-3.85,0.321,0.038,0.0,27.0,22.74,0.0,0.0,1.0,0.0,0.0,-4.97,-0.09,-1.01,-0.04,-3.51,3.58,-0.24,20.0,1.0,1.0,0.0,50.0
10040,1,walk,walk,503,,503.0,20.0,0.0,0.0,1.0,-3.86,0.321,0.013,0.0,27.0,22.77,0.0,0.0,0.0,0.0,0.0,-4.98,-0.09,-1.01,-0.04,-3.73,3.64,-0.31,20.0,1.0,1.0,0.0,50.0
10040,1,walk,walk,504,,504.0,20.0,0.0,0.0,1.0,-3.88,0.321,-0.003,0.0,27.0,22.74,0.0,0.0,0.0,0.0,0.0,-4.97,-0.09,-1.01,-0.04,-3.96,3.7,-0.38,20.0,1.0,1.0,0.0,50.0
10100,1,walk,walk,505,,505.0,20.0,1.0,0.0,1.0,-3.89,0.321,-0.029,0.0,27.0,22.77,0.0,0.0,1.0,0.0,0.0,-4.95,-0.09,-1.01,-0.04,-4.22,3.82,-0.47,20.0,1.0,1.0,0.0,50.0
10100,1,walk,walk,506,,506.0,20.0,1.0,0.0,1.0,-3.91,0.321,0.026,0.0,27.0,22.74,0.0,0.0,0.0,0.0,0.0,-4.92,-0.09,-1.01,-0.04,-4.49,4.01,-0.56,20.0,1.0,1.0,0.0,50.0
10100,1,walk,walk,507,,507.0,20.0,0.0,0.0,1.0,-3.93,0.321,0.026,0.0,27.0,22.74,0.0,0.0,19.0,0.0,0.0,-4.88,-0.09,-1.01,-0.04,-4.78,4.29,-0.66,20.0,1.0,1.0,0.0,50.0
10160,1,walk,walk,508,,508.0,20.0,0.0,0.0,1.0,-3.94,0.321,0.092,0.0,27.0,22.74,0.0,0.0,14.0,0.0,0.0,-4.85,-0.09,-1.01,-0.04,-5.07,4.68,-0.78,20.0,1.0,1.0,0.0,50.0
10160,1,walk,walk,509,,509.0,20.0,1.0,0.0,1.0,-3.96,0.321,0.037,0.0,27.0,22.77,0.0,0.0,15.0,0.0,0.0,-4.83,-0.08,-1.01,-0.05,-5.38,5.13,-0.89,20.0,1.0,1.0,0.0,50.0
10160,1,walk,walk,510,,510.0,20.0,1.0,0.0,1.0,-3.97,0.321,0.001,0.0,27.0,22.74,0.0,0.0,15.0,0.0,0.0,-4.81,-0.08,-1.01,-0.05,-5.7,5.62,-1.0,20.0,1.0,1.0,0.0,50.0
10160,1,walk,walk,511,,511.0,20.0,1.0,0.0,1.0,-3.98,0.321,-0.038,0.0,27.0,22.77,0.0,0.0,15.0,0.0,0.0,-4.81,-0.08,-1.0,-0.05,-6.01,6.12,-1.11,20.0,1.0,1.0,0.0,50.0
10240,1,walk,walk,512,,512.0,20.0,1.0,0.0,1.0,-3.99,0.321,-0.042,0.0,27.0,22.74,0.0,0.0,15.0,0.0,0.0,-4.8,-0.08,-1.0,-0.05,-6.33,6.62,-1.22,20.0,1.0,1.0,0.0,50.0
10240,1,walk,walk,513,,513.0,20.0,1.0,0.0,1.0,-4.0,0.321,-0.025,0.0,27.0,22.74,0.0,0.0,15.0,0.0,0.0,-4.79,-0.08,-1.0,-0.05,-6.63,7.15,-1.34,20.0,1.0,1.0,0.0,50.0
10240,1,walk,walk,514,,514.0,20.0,1.0,0.0,1.0,-4.01,0.321,-0.058,0.0,27.0,22.74,0.0,0.0,14.0,0.0,0.0,-4.78,-0.08,-1.0,-0.05,-6.93,7.71,-1.46,20.0,1.0,1.0,0.0,50.0
10300,1,walk,walk,515,,515.0,20.0,0.0,0.0,1.0,-4.02,0.321,0.06,0.0,27.0,22.74,0.0,0.0,13.0,0.0,0.0,-4.77,-0.08,-1.0,-0.05,-7.2,8.34,-1.58,20.0,1.0,1.0,0.0,50.0
10300,1,walk,walk,516,,516.0,20.0,0.0,0.0,1.0,-4.02,0.321,0.054,0.0,27.0,22.74,0.0,0.0,13.0,0.0,0.0,-4.74,-0.08,-1.0,-0.06,-7.46,9.06,-1.69,20.0,1.0,1.0,0.0,50.0
10300,1,walk,walk,517,,517.0,20.0,0.0,0.0,1.0,-4.02,0.321,-0.044,0.0,27.0,22.74,0.0,0.0,13.0,0.0,0.0,-4.72,-0.08,-1.0,-0.06,-7.69,9.89,-1.79,20.0,1.0,1.0,0.0,50.0
10300,1,walk,walk,518,,518.0,20.0,0.0,0.0,1.0,-4.02,0.321,-0.085,0.0,27.0,22.77,0.0,0.0,13.0,0.0,0.0,-4.7,-0.08,-1.0,-0.06,-7.91,10.77,-1.85,20.0,1.0,1.0,0.0,50.0
10360,1,walk,walk,519,,519.0,20.0,1.0,0.0,1.0,-4.02,0.319,-0.077,0.0,27.0,22.74,0.0,0.0,14.0,0.0,0.0,-4.69,-0.08,-1.0,-0.06,-8.1,11.61,-1.86,20.0,1.0,1.0,0.0,50.0
10380,1,walk,walk,520,,520.0,20.0,1.0,0.0,1.0,-4.02,0.317,-0.175,0.0,27.0,22.74,0.0,0.0,14.0,0.0,0.0,-4.68,-0.08,-1.0,-0.07,-8.26,12.32,-1.81,20.0,1.0,1.0,0.0,50.0
10380,1,walk,walk,521,,521.0,20.0,1.0,0.0,1.0,-4.01,0.313,-0.323,0.0,27.0,22.74,0.0,0.0,14.0,0.0,0.0,-4.65,-0.08,-1.0,-0.07,-8.41,12.84,-1.68,20.0,1.0,1.0,0.0,50.0
10440,1,walk,walk,522,,522.0,20.0,1.0,0.0,1.0,-4.01,0.31,-0.182,0.0,27.0,22.74,0.0,0.0,14.0,0.0,0.0,-4.57,-0.08,-1.0,-0.08,-8.53,13.18,-1.5,20.0,1.0,1.0,0.0,50.0
10440,1,walk,walk,523,,523.0,20.0,1.0,0.0,1.0,-4.0,0.308,-0.115,0.0,27.0,22.74,0.0,0.0,14.0,0.0,0.0,-4.44,-0.08,-1.0,-0.08,-8.64,13.4,-1.29,20.0,1.0,1.0,0.0,50.0
10440,1,walk,walk,524,,524.0,20.0,0.0,0.0,1.0,-3.99,0.308,-0.036,0.0,27.0,22.74,0.0,0.0,13.0,0.0,0.0,-4.26,-0.07,-1.0,-0.09,-8.73,13.56,-1.08,20.0,1.0,1.0,0.0,50.0
10500,1,walk,walk,525,,525.0,20.0,0.0,0.0,1.0,-3.98,0.308,-0.019,0.0,27.0,22.74,0.0,0.0,13.0,0.0,0.0,-4.05,-0.07,-1.01,-0.09,-8.78,13.66,-0.85,20.0,1.0,1.0,0.0,50.0
10500,1,walk,walk,526,,526.0,20.0,0.0,0.0,1.0,-3.96,0.307,0.056,0.0,27.0,22.74,0.0,0.0,13.0,0.0,0.0,-3.87,-0.07,-1.01,-0.1,-8.8,13.65,-0.61,20.0,1.0,1.0,0.0,50.0
10500,1,walk,walk,527,,527.0,20.0,0.0,0.0,1.0,-3.95,0.307,-0.042,0.0,27.0,22.74,0.0,0.0,13.0,0.0,0.0,-3.73,-0.07,-1.01,-0.11,-8.78,13.42,-0.34,20.0,1.0,1.0,0.0,50.0
10500,1,walk,walk,528,,528.0,20.0,1.0,0.0,1.0,-3.94,0.303,-0.335,0.0,27.0,22.74,0.0,0.0,14.0,0.0,0.0,-3.68,-0.06,-1.01,-0.11,-8.71,12.84,-0.01,20.0,1.0,1.0,0.0,50.0
10560,1,walk,walk,529,,529.0,20.0,1.0,0.0,1.0,-3.92,0.301,-0.131,0.0,27.0,22.74,0.0,0.0,14.0,0.0,0.0,-3.69,-0.07,-1.01,-0.12,-8.6,11.79,0.36,20.0,1.0,1.0,0.0,50.0
10580,1,walk,walk,530,,530.0,20.0,1.0,0.0,1.0,-3.91,0.3,-0.111,0.0,27.0,22.77,0.0,0.0,14.0,0.0,0.0,-3.73,-0.07,-1.01,-0.12,-8.43,10.24,0.77,21.0,1.0,1.0,0.0,50.0
10580,1,walk,walk,531,,531.0,20.0,0.0,0.0,1.0,-3.9,0.3,0.111,0.0,27.0,22.74,0.0,0.0,8.0,0.0,0.0,-3.77,-0.07,-1.01,-0.13,-8.22,8.27,1.2,21.0,1.0,1.0,0.0,50.0
10640,1,walk,walk,532,,532.0,20.0,0.0,0.0,1.0,-3.89,0.3,-0.01,0.0,27.0,22.74,0.0,0.0,8.0,0.0,0.0,-3.79,-0.07,-1.02,-0.13,-7.97,6.01,1.64,21.0,1.0,1.0,0.0,50.0
10640,1,walk,walk,533,,533.0,20.0,0.0,0.0,1.0,-3.88,0.299,-0.127,0.0,27.0,22.74,0.0,0.0,8.0,0.0,0.0,-3.78,-0.07,-1.02,-0.14,-7.7,3.58,2.1,21.0,1.0,1.0,0.0,50.0
10640,1,walk,walk,534,,534.0,20.0,1.0,0.0,1.0,-3.87,0.298,-0.101,0.0,27.0,22.74,0.0,0.0,9.0,0.0,0.0,-3.74,-0.07,-1.02,-0.14,-7.4,1.11,2.61,21.0,1.0,1.0,0.0,50.0
10680,1,walk,walk,535,,535.0,20.0,1.0,0.0,1.0,-3.87,0.297,0.015,0.0,27.0,22.74,0.0,0.0,9.0,0.0,0.0,-3.65,-0.06,-1.02,-0.14,-7.09,-1.31,3.16,21.0,1.0,1.0,0.0,50.0
10700,1,walk,walk,536,,536.0,20.0,1.0,0.0,1.0,-3.87,0.296,0.018,0.0,27.0,22.74,0.0,0.0,9.0,0.0,0.0,-3.53,-0.06,-1.01,-0.15,-6.78,-3.53,3.76,21.0,1.0,1.0,0.0,50.0
10760,1,walk,walk,537,,537.0,20.0,1.0,0.0,1.0,-3.88,0.296,-0.062,0.0,27.0,22.74,0.0,0.0,8.0,0.0,0.0,-3.38,-0.06,-1.01,-0.15,-6.48,-5.46,4.38,21.0,1.0,1.0,0.0,50.0
10760,1,walk,walk,538,,538.0,20.0,1.0,0.0,1.0,-3.89,0.295,-0.163,0.0,27.0,22.74,0.0,0.0,8.0,0.0,0.0,-3.23,-0.06,-1.01,-0.15,-6.19,-7.03,5.03,21.0,1.0,1.0,0.0,50.0
10760,1,walk,walk,539,,539.0,20.0,1.0,0.0,1.0,-3.9,0.293,-0.025,0.0,27.0,22.74,0.0,0.0,8.0,0.0,0.0,-3.08,-0.05,-1.01,-0.15,-5.92,-8.22,5.72,21.0,1.0,1.0,0.0,50.0
10760,1,walk,walk,540,,540.0,20.0,0.0,0.0,1.0,-3.92,0.293,-0.005,0.0,27.0,22.74,0.0,0.0,7.0,0.0,0.0,-2.94,-0.05,-1.01,-0.15,-5.67,-9.07,6.44,21.0,1.0,1.0,0.0,50.0
10820,1,walk,walk,541,,541.0,20.0,0.0,0.0,1.0,-3.95,0.293,-0.072,0.0,27.0,22.74,0.0,0.0,7.0,0.0,0.0,-2.79,-0.05,-1.01,-0.16,-5.43,-9.58,7.16,21.0,1.0,1.0,0.0,50.0
10820,1,walk,walk,542,,542.0,20.0,0.0,0.0,1.0,-3.98,0.293,-0.032,0.0,27.0,22.74,0.0,0.0,7.0,0.0,0.0,-2.65,-0.05,-1.01,-0.16,-5.23,-9.72,7.86,21.0,1.0,1.0,0.0,50.0
10820,1,walk,walk,543,,543.0,20.0,0.0,0.0,1.0,-4.02,0.293,-0.088,0.0,27.0,22.74,0.0,0.0,7.0,0.0,0.0,-2.5,-0.04,-1.0,-0.16,-5.07,-9.45,8.53,21.0,1.0,1.0,0.0,50.0
10820,1,walk,walk,544,,544.0,20.0,1.0,0.0,1.0,-4.07,0.293,0.026,0.0,27.0,22.74,0.0,0.0,8.0,0.0,0.0,-2.36,-0.04,-1.0,-0.16,-4.95,-8.79,9.18,21.0,1.0,1.0,0.0,50.0
10900,1,walk,walk,545,,545.0,20.0,1.0,0.0,1.0,-4.13,0.293,-0.009,0.0,27.0,22.74,0.0,0.0,8.0,0.0,0.0,-2.26,-0.04,-1.0,-0.16,-4.86,-7.75,9.8,21.0,1.0,1.0,0.0,50.0
10900,1,walk,walk,546,,546.0,20.0,1.0,0.0,1.0,-4.19,0.294,0.081,0.0,27.0,22.74,0.0,0.0,8.0,0.0,0.0,-2.22,-0.04,-1.0,-0.16,-4.8,-6.46,10.43,21.0,1.0,1.0,0.0,50.0
10900,1,walk,walk,547,,547.0,20.0,1.0,0.0,1.0,-4.26,0.294,0.065,0.0,27.0,22.74,0.0,0.0,8.0,0.0,0.0,-2.25,-0.04,-1.0,-0.16,-4.77,-5.06,11.09,21.0,1.0,1.0,0.0,50.0
10960,1,walk,walk,548,,548.0,20.0,1.0,0.0,1.0,-4.34,0.295,0.194,0.0,27.0,22.74,0.0,0.0,8.0,0.0,0.0,-2.38,-0.04,-1.0,-0.16,-4.76,-3.74,11.81,21.0,1.0,1.0,0.0,50.0
10960,1,walk,walk,549,,549.0,20.0,0.0,0.0,1.0,-4.43,0.297,0.058,0.0,27.0,22.74,0.0,0.0,7.0,0.0,0.0,-2.62,-0.05,-1.0,-0.16,-4.76,-2.65,12.57,22.0,1.0,1.0,0.0,50.0
10960,1,walk,walk,550,,550.0,20.0,0.0,0.0,1.0,-4.52,0.298,0.057,0.0,27.0,22.74,0.0,0.0,7.0,0.0,0.0,-2.94,-0.05,-1.0,-0.16,-4.76,-1.94,13.39,22.0,1.0,1.0,0.0,50.0
10960,1,walk,walk,551,,551.0,20.0,0.0,0.0,1.0,-4.63,0.298,0.042,0.0,27.0,22.74,0.0,0.0,7.0,0.0,0.0,-3.33,-0.06,-1.0,-0.16,-4.75,-1.7,14.27,22.0,1.0,1.0,0.0,50.0
11020,1,walk,walk,552,,552.0,20.0,0.0,0.0,1.0,-4.74,0.299,0.132,0.0,27.0,22.74,0.0,0.0,7.0,0.0,0.0,-3.75,-0.07,-1.0,-0.15,-4.74,-1.91,15.2,22.0,1.0,1.0,0.0,50.0
11020,1,walk,walk,553,,553.0,20.0,1.0,0.0,1.0,-4.86,0.301,0.081,0.0,27.0,22.74,0.0,0.0,7.0,0.0,0.0,-4.2,-0.07,-1.0,-0.15,-4.71,-2.52,16.17,22.0,1.0,1.0,0.0,50.0
11020,1,walk,walk,554,,554.0,20.0,1.0,0.0,1.0,-5.0,0.302,0.101,0.0,27.0,22.74,0.0,0.0,7.0,0.0,0.0,-4.65,-0.08,-1.0,-0.15,-4.65,-3.46,17.17,22.0,1.0,1.0,0.0,50.0
11100,1,walk,walk,555,,555.0,20.0,1.0,0.0,1.0,-5.14,0.302,0.057,0.0,27.0,22.74,0.0,0.0,7.0,0.0,0.0,-5.1,-0.09,-1.0,-0.15,-4.58,-4.68,18.2,22.0,1.0,1.0,0.0,50.0
11100,1,walk,walk,556,,556.0,20.0,0.0,0.0,1.0,-5.3,0.304,0.178,0.0,27.0,22.74,0.0,0.0,6.0,0.0,0.0,-5.56,-0.1,-1.0,-0.15,-4.48,-6.19,19.27,22.0,1.0,1.0,0.0,50.0
11100,1,walk,walk,557,,557.0,20.0,0.0,0.0,1.0,-5.48,0.306,0.148,0.0,27.0,22.74,0.0,0.0,6.0,0.0,0.0,-5.99,-0.11,-1.01,-0.15,-4.38,-7.98,20.37,22.0,1.0,1.0,0.0,50.0
11160,1,walk,walk,558,,558.0,20.0,0.0,0.0,1.0,-5.67,0.31,0.363,0.0,27.0,22.74,0.0,0.0,6.0,0.0,0.0,-6.38,-0.11,-1.01,-0.15,-4.27,-10.04,21.46,22.0,1.0,1.0,0.0,50.0
11160,1,walk,walk,559,,559.0,20.0,1.0,0.0,1.0,-5.87,0.317,0.504,0.0,27.0,22.74,0.0,0.0,7.0,0.0,0.0,-6.66,-0.12,-1.01,-0.16,-4.16,-12.28,22.52,22.0,1.0,1.0,0.0,50.0
11160,1,walk,walk,560,,560.0,20.0,1.0,0.0,1.0,-6.09,0.327,0.628,0.0,27.0,22.74,0.0,0.0,7.0,0.0,0.0,-6.8,-0.12,-1.01,-0.16,-4.0,-14.54,23.48,22.0,1.0,1.0,0.0,50.0
11220,1,walk,walk,561,,561.0,20.0,1.0,0.0,1.0,-6.33,0.338,0.962,0.0,27.0,22.74,0.0,0.0,7.0,0.0,0.0,-6.75,-0.12,-1.02,-0.16,-3.78,-16.69,24.32,22.0,1.0,1.0,0.0,50.0
11220,1,walk,walk,562,,562.0,20.0,1.0,0.0,1.0,-6.59,0.356,1.342,0.0,27.0,22.74,0.0,0.0,7.0,0.0,0.0,-6.52,-0.12,-1.02,-0.15,-3.46,-18.57,24.96,22.0,1.0,1.0,0.0,50.0
11220,1,walk,walk,563,,563.0,20.0,1.0,0.0,1.0,-6.86,0.377,1.56,0.0,27.0,22.74,0.0,0.0,7.0,0.0,0.0,-6.1,-0.11,-1.03,-0.15,-2.99,-20.13,25.34,22.0,1.0,1.0,0.0,50.0
11220,1,walk,walk,564,,564.0,20.0,1.0,0.0,1.0,-7.15,0.401,1.753,0.0,27.0,22.74,0.0,0.0,7.0,0.0,0.0,-5.54,-0.1,-1.04,-0.14,-2.35,-21.42,25.42,22.0,1.0,1.0,0.0,50.0
11300,1,walk,walk,565,,565.0,20.0,0.0,0.0,1.0,-7.46,0.43,1.958,0.0,27.0,22.74,0.0,0.0,6.0,0.0,0.0,-4.87,-0.09,-1.05,-0.14,-1.55,-22.53,25.17,22.0,1.0,1.0,0.0,50.0
11300,1,walk,walk,566,,566.0,20.0,0.0,0.0,1.0,-7.78,0.464,2.406,0.0,27.0,22.74,0.0,0.0,6.0,0.0,0.0,-4.1,-0.08,-1.06,-0.13,-0.59,-23.64,24.51,22.0,1.0,1.0,0.0,50.0
11360,1,walk,walk,567,,567.0,20.0,0.0,0.0,1.0,-8.11,0.504,2.911,0.0,27.0,22.74,0.0,0.0,6.0,0.0,0.0,-3.24,-0.06,-1.06,-0.11,0.51,-24.85,23.35,22.0,1.0,1.0,0.0,50.0
11360,1,walk,walk,568,,568.0,20.0,1.0,0.0,1.0,-8.45,0.555,3.691,0.0,27.0,22.74,0.0,0.0,7.0,0.0,0.0,-2.3,-0.04,-1.07,-0.1,1.66,-26.16,21.52,22.0,1.0,1.0,0.0,50.0
11360,1,walk,walk,569,,569.0,20.0,1.0,0.0,1.0,-8.8,0.616,4.328,0.0,27.0,22.74,0.0,0.0,7.0,0.0,0.0,-1.32,-0.02,-1.07,-0.08,2.75,-27.43,18.84,22.0,1.0,1.0,0.0,50.0
11360,1,walk,walk,570,,570.0,20.0,1.0,0.0,1.0,-9.14,0.682,4.351,0.0,27.0,22.74,0.0,0.0,7.0,0.0,0.0,-0.36,-0.01,-1.07,-0.07,3.65,-28.44,15.21,22.0,1.0,1.0,0.0,50.0
11360,1,walk,walk,571,,571.0,20.0,1.0,0.0,1.0,-9.47,0.746,4.337,0.0,27.0,22.74,0.0,0.0,7.0,0.0,0.0,0.44,0.01,-1.06,-0.06,4.26,-28.97,10.64,22.0,1.0,1.0,0.0,50.0
11440,1,walk,walk,572,,572.0,20.0,1.0,0.0,1.0,-9.8,0.807,3.883,0.0,27.0,22.74,0.0,0.0,7.0,0.0,0.0,0.98,0.02,-1.06,-0.06,4.56,-28.85,5.25,22.0,1.0,1.0,0.0,50.0
11440,1,walk,walk,573,,573.0,20.0,1.0,0.0,1.0,-10.1,0.86,3.248,0.0,27.0,22.74,0.0,0.0,6.0,0.0,0.0,1.15,0.02,-1.06,-0.06,4.64,-27.97,-0.77,22.0,1.0,1.0,0.0,50.0
11440,1,walk,walk,574,,574.0,20.0,1.0,0.0,1.0,-10.37,0.906,2.604,0.0,27.0,22.74,0.0,0.0,6.0,0.0,0.0,0.88,0.02,-1.06,-0.06,4.58,-26.36,-7.14,22.0,1.0,1.0,0.0,50.0
11500,1,walk,walk,575,,575.0,20.0,0.0,0.0,1.0,-10.61,0.937,1.611,0.0,27.0,22.74,0.0,0.0,5.0,0.0,0.0,0.2,0.0,-1.07,-0.07,4.55,-24.23,-13.63,22.0,1.0,1.0,0.0,50.0
11500,1,walk,walk,576,,576.0,20.0,0.0,0.0,1.0,-10.8,0.952,0.451,0.0,27.0,22.74,0.0,0.0,5.0,0.0,0.0,-0.85,-0.02,-1.07,-0.08,4.67,-21.81,-20.06,22.0,1.0,1.0,0.0,50.0
11500,1,walk,walk,577,,577.0,20.0,0.0,0.0,1.0,-10.94,0.952,-0.023,0.0,27.0,22.74,0.0,0.0,4.0,0.0,0.0,-2.15,-0.04,-1.08,-0.09,5.02,-19.18,-26.32,22.0,1.0,1.0,0.0,50.0
11500,1,walk,walk,578,,578.0,20.0,0.0,0.0,1.0,-11.02,0.949,-0.269,0.0,27.0,22.74,0.0,0.0,4.0,0.0,0.0,-3.57,-0.07,-1.08,-0.1,5.61,-16.37,-32.37,22.0,1.0,1.0,0.0,50.0
11560,1,walk,walk,579,,579.0,20.0,0.0,0.0,1.0,-11.03,0.938,-0.998,0.0,27.0,22.74,0.0,0.0,4.0,0.0,0.0,-5.01,-0.09,-1.08,-0.1,6.39,-13.35,-38.19,22.0,1.0,1.0,0.0,50.0
11560,1,walk,walk,580,,580.0,20.0,1.0,0.0,1.0,-10.98,0.912,-2.269,0.0,27.0,22.74,0.0,0.0,5.0,0.0,0.0,-6.35,-0.12,-1.08,-0.11,7.28,-9.93,-43.71,23.0,1.0,1.0,0.0,50.0
11560,1,walk,walk,581,,581.0,20.0,0.0,0.0,1.0,-10.85,0.871,-2.958,0.0,27.0,22.77,0.0,0.0,4.0,0.0,0.0,-7.54,-0.14,-1.08,-0.11,8.2,-5.93,-48.81,23.0,1.0,1.0,0.0,50.0
11640,1,walk,walk,582,,582.0,20.0,0.0,0.0,1.0,-10.65,0.826,-3.147,0.0,27.0,22.74,0.0,0.0,4.0,0.0,0.0,-8.55,-0.16,-1.07,-0.11,9.15,-1.35,-53.34,23.0,1.0,1.0,0.0,50.0
11640,1,walk,walk,583,,583.0,20.0,0.0,0.0,1.0,-10.37,0.778,-3.166,0.0,27.0,22.74,0.0,0.0,4.0,0.0,0.0,-9.39,-0.18,-1.06,-0.1,10.15,3.56,-57.2,23.0,1.0,1.0,0.0,50.0
11640,1,walk,walk,584,,584.0,20.0,0.0,0.0,1.0,-10.02,0.729,-3.352,0.0,27.0,22.74,0.0,0.0,4.0,0.0,0.0,-10.06,-0.19,-1.06,-0.1,11.26,8.5,-60.38,23.0,1.0,1.0,0.0,50.0
11700,1,walk,walk,585,,585.0,20.0,1.0,0.0,1.0,-9.59,0.68,-3.248,0.0,27.0,22.74,0.0,0.0,5.0,0.0,0.0,-10.57,-0.2,-1.05,-0.09,12.5,13.24,-62.91,23.0,1.0,1.0,0.0,50.0
11700,1,walk,walk,586,,586.0,20.0,1.0,0.0,1.0,-9.09,0.632,-3.045,0.0,27.0,22.74,0.0,0.0,4.0,0.0,0.0,-10.9,-0.2,-1.04,-0.08,13.85,17.64,-64.86,23.0,1.0,1.0,0.0,50.0
11700,1,walk,walk,587,,587.0,20.0,1.0,0.0,1.0,-8.52,0.586,-3.043,0.0,27.0,22.74,0.0,0.0,4.0,0.0,0.0,-11.04,-0.2,-1.03,-0.08,15.26,21.61,-66.29,23.0,1.0,1.0,0.0,50.0
11700,1,walk,walk,588,,588.0,20.0,1.0,0.0,1.0,-7.89,0.541,-3.069,0.0,27.0,22.74,0.0,0.0,4.0,0.0,0.0,-10.97,-0.2,-1.03,-0.07,16.67,25.14,-67.28,23.0,1.0,1.0,0.0,50.0
11780,1,walk,walk,589,,589.0,20.0,1.0,0.0,1.0,-7.19,0.495,-3.145,0.0,27.0,22.74,0.0,0.0,4.0,0.0,0.0,-10.71,-0.19,-1.02,-0.06,18.02,28.24,-67.84,23.0,1.0,1.0,0.0,50.0
11780,1,walk,walk,590,,590.0,20.0,1.0,0.0,1.0,-6.44,0.448,-3.237,0.0,27.0,22.74,0.0,0.0,4.0,0.0,0.0,-10.26,-0.18,-1.01,-0.05,19.25,30.92,-67.89,23.0,1.0,1.0,0.0,50.0
11840,1,walk,walk,591,,591.0,20.0,0.0,0.0,1.0,-5.65,0.4,-3.131,0.0,27.0,22.74,0.0,0.0,3.0,0.0,0.0,-9.64,-0.17,-1.01,-0.05,20.3,33.07,-67.37,23.0,1.0,1.0,0.0,50.0
11840,1,walk,walk,592,,592.0,20.0,0.0,0.0,1.0,-4.8,0.355,-2.853,0.0,27.0,22.74,0.0,0.0,3.0,0.0,0.0,-8.87,-0.16,-1.0,-0.04,21.14,34.47,-66.18,23.0,1.0,1.0,0.0,50.0
11840,1,walk,walk,593,,593.0,20.0,0.0,0.0,1.0,-3.93,0.316,-2.369,0.0,27.0,22.74,0.0,0.0,3.0,0.0,0.0,-7.97,-0.14,-0.99,-0.03,21.68,34.78,-64.27,23.0,1.0,1.0,0.0,50.0
11840,1,walk,walk,594,,594.0,20.0,1.0,0.0,1.0,-3.02,0.284,-1.993,0.0,27.0,22.74,0.0,0.0,4.0,0.0,0.0,-6.96,-0.12,-0.99,-0.02,21.78,33.66,-61.64,23.0,1.0,1.0,0.0,50.0
11920,1,walk,walk,595,,595.0,20.0,1.0,0.0,1.0,-2.08,0.259,-1.412,0.0,27.0,22.74,0.0,0.0,4.0,0.0,0.0,-5.81,-0.1,-0.98,-0.02,21.31,30.94,-58.28,23.0,1.0,1.0,0.0,50.0
11920,1,walk,walk,596,,596.0,20.0,1.0,0.0,1.0,-1.13,0.244,-0.536,0.0,27.0,22.74,0.0,0.0,4.0,0.0,0.0,-4.46,-0.08,-0.97,-0.01,20.14,26.75,-54.26,23.0,1.0,1.0,0.0,50.0
11920,1,walk,walk,597,,597.0,20.0,1.0,0.0,1.0,-0.17,0.243,0.003,0.0,27.0,22.74,0.0,0.0,4.0,0.0,0.0,-2.87,-0.05,-0.95,0.0,18.22,21.68,-49.69,23.0,1.0,1.0,0.0,50.0
11920,1,walk,walk,598,,598.0,20.0,1.0,0.0,1.0,0.79,0.244,0.117,0.0,27.0,22.74,0.0,0.0,4.0,0.0,0.0,-1.09,-0.02,-0.94,0.0,15.57,16.56,-44.63,23.0,1.0,1.0,0.0,50.0
11920,1,walk,walk,599,,599.0,20.0,1.0,0.0,1.0,1.74,0.246,0.185,0.0,27.0,22.74,0.0,0.0,3.0,0.0,0.0,0.79,0.01,-0.93,0.0,12.32,12.18,-39.11,23.0,1.0,1.0,0.0,50.0
11960,1,walk,walk,600,,600.0,20.0,1.0,0.0,1.0,2.69,0.247,0.097,0.0,27.0,22.74,0.0,0.0,3.0,0.0,0.0,2.64,0.04,-0.92,0.0,8.71,9.15,-33.17,23.0,1.0,1.0,0.0,50.0
11980,1,walk,walk,601,,601.0,20.0,0.0,0.0,1.0,3.61,0.242,-0.672,0.0,27.0,22.74,0.0,0.0,2.0,0.0,0.0,4.35,0.07,-0.91,0.0,5.06,7.97,-26.94,24.0,1.0,1.0,0.0,50.0
12040,1,walk,walk,602,,602.0,20.0,0.0,0.0,1.0,4.5,0.229,-0.833,0.0,27.0,22.74,0.0,0.0,2.0,0.0,0.0,5.83,0.09,-0.91,0.01,1.64,8.83,-20.54,24.0,1.0,1.0,0.0,50.0
12040,1,walk,walk,603,,603.0,20.0,0.0,0.0,1.0,5.36,0.222,-0.232,0.0,27.0,22.74,0.0,0.0,1.0,0.0,0.0,7.09,0.11,-0.92,0.01,-1.47,11.44,-14.09,24.0,1.0,1.0,0.0,50.0
12040,1,walk,walk,604,,604.0,20.0,0.0,0.0,1.0,6.17,0.222,0.061,0.0,27.0,22.74,0.0,0.0,1.0,0.0,0.0,8.09,0.13,-0.93,0.02,-4.3,15.32,-7.73,24.0,1.0,1.0,0.0,50.0
12100,1,walk,walk,605,,605.0,20.0,1.0,0.0,1.0,6.94,0.224,0.281,0.0,27.0,22.74,0.0,0.0,2.0,0.0,0.0,8.81,0.15,-0.95,0.03,-6.94,19.95,-1.59,24.0,1.0,1.0,0.0,50.0
12100,1,walk,walk,606,,606.0,20.0,1.0,0.0,1.0,7.64,0.231,0.522,0.0,27.0,22.77,0.0,0.0,2.0,0.0,0.0,9.19,0.16,-0.96,0.04,-9.5,24.44,4.19,24.0,1.0,1.0,0.0,50.0
12100,1,walk,walk,607,,607.0,20.0,0.0,0.0,1.0,8.29,0.234,0.022,0.0,27.0,22.74,0.0,0.0,1.0,0.0,0.0,9.15,0.16,-0.98,0.05,-12.01,28.03,9.47,24.0,1.0,1.0,0.0,50.0
12100,1,walk,walk,608,,608.0,20.0,0.0,0.0,1.0,8.86,0.234,-0.023,0.0,27.0,22.74,0.0,0.0,1.0,0.0,0.0,8.71,0.15,-0.99,0.06,-14.47,30.16,14.19,24.0,1.0,1.0,0.0,50.0
12180,1,walk,walk,609,,609.0,20.0,0.0,0.0,1.0,9.36,0.233,-0.216,0.0,27.0,22.74,0.0,0.0,1.0,0.0,0.0,8.0,0.14,-1.0,0.06,-16.82,30.54,18.34,24.0,1.0,1.0,0.0,50.0
12180,1,walk,walk,610,,610.0,20.0,1.0,0.0,1.0,9.79,0.229,-0.366,0.0,27.0,22.74,0.0,0.0,2.0,0.0,0.0,7.15,0.13,-1.01,0.06,-18.98,29.3,22.01,24.0,1.0,1.0,0.0,50.0
12180,1,walk,walk,611,,611.0,20.0,1.0,0.0,1.0,10.13,0.223,-0.361,0.0,27.0,22.77,0.0,0.0,2.0,0.0,0.0,6.32,0.11,-1.02,0.05,-20.86,27.07,25.3,24.0,1.0,1.0,0.0,50.0
12240,1,walk,walk,612,,612.0,20.0,1.0,0.0,1.0,10.39,0.221,0.041,0.0,27.0,22.74,0.0,0.0,2.0,0.0,0.0,5.59,0.1,-1.02,0.04,-22.4,24.61,28.29,24.0,1.0,1.0,0.0,50.0
12240,1,walk,walk,613,,613.0,20.0,1.0,0.0,1.0,10.57,0.221,-0.006,0.0,27.0,22.74,0.0,0.0,2.0,0.0,0.0,4.97,0.09,-1.02,0.03,-23.59,22.53,30.99,24.0,1.0,1.0,0.0,50.0
12240,1,walk,walk,614,,614.0,20.0,1.0,0.0,1.0,10.66,0.221,0.018,0.0,27.0,22.74,0.0,0.0,2.0,0.0,0.0,4.43,0.08,-1.02,0.02,-24.46,21.04,33.35,24.0,1.0,1.0,0.0,50.0
12320,1,walk,walk,615,,615.0,20.0,1.0,0.0,1.0,10.66,0.22,-0.05,0.0,27.0,22.74,0.0,0.0,2.0,0.0,0.0,3.9,0.07,-1.02,0.01,-25.05,20.02,35.33,24.0,1.0,1.0,0.0,50.0
12320,1,walk,walk,616,,616.0,20.0,0.0,0.0,1.0,10.59,0.22,-0.062,0.0,27.0,22.74,0.0,0.0,1.0,0.0,0.0,3.37,0.06,-1.02,-0.01,-25.43,19.23,36.93,24.0,1.0,1.0,0.0,50.0
12320,1,walk,walk,617,,617.0,20.0,0.0,0.0,1.0,10.43,0.219,-0.041,0.0,27.0,22.74,0.0,0.0,1.0,0.0,0.0,2.83,0.05,-1.02,-0.02,-25.6,18.43,38.16,24.0,1.0,1.0,0.0,50.0
12320,1,walk,walk,618,,618.0,20.0,0.0,0.0,1.0,10.2,0.219,-0.034,0.0,27.0,22.74,0.0,0.0,1.0,0.0,0.0,2.28,0.04,-1.01,-0.04,-25.6,17.52,39.05,24.0,1.0,1.0,0.0,50.0
12380,1,walk,walk,619,,619.0,20.0,0.0,0.0,1.0,9.89,0.219,-0.021,0.0,27.0,22.74,0.0,0.0,1.0,0.0,0.0,1.74,0.03,-1.01,-0.05,-25.44,16.49,39.64,24.0,1.0,1.0,0.0,50.0
12380,1,walk,walk,620,,620.0,20.0,1.0,0.0,1.0,9.52,0.219,0.028,0.0,27.0,22.74,0.0,0.0,2.0,0.0,0.0,1.23,0.02,-1.01,-0.07,-25.14,15.39,39.97,25.0,1.0,1.0,0.0,50.0
12380,1,walk,walk,621,,621.0,20.0,1.0,0.0,1.0,9.09,0.22,-0.007,0.0,27.0,22.74,0.0,0.0,2.0,0.0,0.0,0.72,0.01,-1.01,-0.08,-24.73,14.28,40.1,25.0,1.0,1.0,0.0,50.0
12380,1,walk,walk,622,,622.0,20.0,1.0,0.0,1.0,8.6,0.219,0.054,0.0,27.0,22.74,0.0,0.0,1.0,0.0,0.0,0.21,0.0,-1.01,-0.09,-24.23,13.22,40.06,25.0,1.0,1.0,0.0,50.0
12460,1,walk,walk,623,,623.0,20.0,1.0,0.0,1.0,8.06,0.22,0.05,0.0,27.0,22.74,0.0,0.0,1.0,0.0,0.0,-0.33,-0.01,-1.01,-0.1,-23.65,12.22,39.88,25.0,1.0,1.0,0.0,50.0
12460,1,walk,walk,624,,624.0,20.0,1.0,0.0,1.0,7.48,0.22,0.068,0.0,27.0,22.74,0.0,0.0,1.0,0.0,0.0,-0.89,-0.02,-1.01,-0.11,-23.03,11.23,39.59,25.0,1.0,1.0,0.0,50.0
12460,1,walk,walk,625,,625.0,20.0,0.0,0.0,1.0,6.86,0.22,0.092,0.0,27.0,22.77,0.0,0.0,0.0,0.0,0.0,-1.49,-0.03,-1.01,-0.12,-22.39,10.2,39.23,25.0,1.0,1.0,0.0,50.0
12520,1,walk,walk,626,,626.0,20.0,0.0,0.0,1.0,6.2,0.22,-0.01,0.0,27.0,22.74,0.0,0.0,0.0,0.0,0.0,-2.09,-0.04,-1.01,-0.12,-21.76,9.08,38.8,25.0,1.0,1.0,0.0,50.0
12520,1,walk,walk,627,,627.0,20.0,1.0,0.0,1.0,5.52,0.22,0.034,0.0,27.0,22.74,0.0,0.0,1.0,0.0,0.0,-2.7,-0.05,-1.0,-0.13,-21.14,7.83,38.33,25.0,1.0,1.0,0.0,50.0
12520,1,walk,walk,628,,628.0,20.0,1.0,0.0,1.0,4.82,0.22,-0.006,0.0,27.0,22.74,0.0,0.0,1.0,0.0,0.0,-3.29,-0.06,-1.0,-0.13,-20.55,6.46,37.86,25.0,1.0,1.0,0.0,50.0
12520,1,walk,walk,629,,629.0,20.0,1.0,0.0,1.0,4.1,0.22,0.006,0.0,27.0,22.74,0.0,0.0,1.0,0.0,0.0,-3.85,-0.07,-1.0,-0.13,-20.0,4.98,37.41,25.0,1.0,1.0,0.0,50.0
12600,1,walk,walk,630,,630.0,20.0,1.0,0.0,1.0,3.36,0.222,0.049,0.0,27.0,22.77,0.0,0.0,1.0,0.0,0.0,-4.35,-0.08,-1.0,-0.14,-19.48,3.43,37.01,25.0,1.0,1.0,0.0,50.0
12600,1,walk,walk,631,,631.0,20.0,1.0,0.0,1.0,2.62,0.223,0.019,0.0,27.0,22.74,0.0,0.0,1.0,0.0,0.0,-4.77,-0.08,-1.0,-0.14,-19.0,1.85,36.68,25.0,1.0,1.0,0.0,50.0
12600,1,walk,walk,632,,632.0,20.0,1.0,0.0,1.0,1.86,0.226,0.273,0.0,27.0,22.74,0.0,0.0,1.0,0.0,0.0,-5.11,-0.09,-1.0,-0.14,-18.56,0.27,36.45,25.0,1.0,1.0,0.0,50.0
12660,1,walk,walk,633,,633.0,20.0,1.0,0.0,1.0,1.11,0.233,0.622,0.0,27.0,22.74,0.0,0.0,1.0,0.0,0.0,-5.37,-0.09,-0.99,-0.14,-18.16,-1.3,36.3,25.0,1.0,1.0,0.0,50.0
12660,1,walk,walk,634,,634.0,20.0,1.0,0.0,1.0,0.35,0.241,0.575,0.0,27.0,22.74,0.0,0.0,1.0,0.0,0.0,-5.55,-0.1,-1.0,-0.14,-17.82,-2.8,36.21,25.0,1.0,1.0,0.0,50.0
12660,1,walk,walk,635,,635.0,20.0,0.0,0.0,1.0,-0.4,0.25,0.676,0.0,27.0,22.74,0.0,0.0,0.0,0.0,0.0,-5.68,-0.1,-1.0,-0.14,-17.51,-4.23,36.15,25.0,1.0,1.0,0.0,50.0
12720,1,walk,walk,636,,636.0,20.0,0.0,0.0,1.0,-1.15,0.26,0.656,0.0,27.0,22.74,0.0,0.0,0.0,0.0,0.0,-5.81,-0.1,-1.0,-0.15,-17.23,-5.61,36.12,25.0,1.0,1.0,0.0,50.0
12740,1,walk,walk,637,,637.0,20.0,1.0,0.0,1.0,-1.9,0.27,0.97,0.0,27.0,22.74,0.0,0.0,1.0,0.0,0.0,-5.93,-0.1,-1.0,-0.15,-16.95,-7.03,36.16,25.0,1.0,1.0,0.0,50.0
12740,1,walk,walk,638,,638.0,20.0,1.0,0.0,1.0,-2.64,0.285,0.896,0.0,27.0,22.74,0.0,0.0,1.0,0.0,0.0,-6.04,-0.11,-1.0,-0.15,-16.65,-8.63,36.21,25.0,1.0,1.0,0.0,50.0
12800,1,walk,walk,639,,639.0,20.0,1.0,0.0,1.0,-3.37,0.302,1.325,0.0,27.0,22.74,0.0,0.0,1.0,0.0,0.0,-6.09,-0.11,-1.01,-0.15,-16.35,-10.56,36.24,25.0,1.0,1.0,0.0,50.0
12800,1,walk,walk,640,,640.0,20.0,1.0,0.0,1.0,-4.1,0.322,1.44,0.0,27.0,22.74,0.0,0.0,1.0,0.0,0.0,-6.04,-0.11,-1.01,-0.15,-16.02,-12.87,36.21,25.0,1.0,1.0,0.0,50.0
12800,1,walk,walk,641,,641.0,20.0,0.0,0.0,1.0,-4.81,0.344,1.741,0.0,27.0,22.74,0.0,0.0,0.0,0.0,0.0,-5.82,-0.1,-1.02,-0.15,-15.62,-15.48,36.12,25.0,1.0,1.0,0.0,50.0
12800,1,walk,walk,642,,642.0,20.0,0.0,0.0,1.0,-5.52,0.373,2.121,0.0,27.0,22.74,0.0,0.0,0.0,0.0,0.0,-5.41,-0.1,-1.02,-0.14,-15.08,-18.27,35.93,25.0,1.0,1.0,0.0,50.0
12880,1,walk,walk,643,,643.0,20.0,1.0,0.0,1.0,-6.22,0.409,2.666,0.0,27.0,22.74,0.0,0.0,1.0,0.0,0.0,-4.8,-0.09,-1.03,-0.14,-14.35,-21.19,35.58,25.0,1.0,1.0,0.0,50.0
12880,1,walk,walk,644,,644.0,20.0,1.0,0.0,1.0,-6.9,0.453,3.187,0.0,27.0,22.74,0.0,0.0,1.0,0.0,0.0,-3.97,-0.07,-1.05,-0.13,-13.33,-24.33,34.92,25.0,1.0,1.0,0.0,50.0
12880,1,walk,walk,645,,645.0,20.0,1.0,0.0,1.0,-7.57,0.506,3.95,0.0,27.0,22.74,0.0,0.0,1.0,0.0,0.0,-2.96,-0.05,-1.06,-0.12,-11.99,-27.76,33.73,25.0,1.0,1.0,0.0,50.0
12880,1,walk,walk,646,,646.0,20.0,1.0,0.0,1.0,-8.23,0.572,4.718,0.0,27.0,22.74,0.0,0.0,1.0,0.0,0.0,-1.83,-0.03,-1.07,-0.11,-10.41,-31.34,31.69,25.0,1.0,1.0,0.0,50.0
12940,1,walk,walk,647,,647.0,20.0,1.0,0.0,1.0,-8.87,0.648,5.301,0.0,27.0,22.74,0.0,0.0,1.0,0.0,0.0,-0.65,-0.01,-1.08,-0.1,-8.77,-34.87,28.53,25.0,1.0,1.0,0.0,50.0
12940,1,walk,walk,648,,648.0,20.0,1.0,0.0,1.0,-9.49,0.728,5.228,0.0,27.0,22.74,0.0,0.0,0.0,0.0,0.0,0.47,0.01,-1.09,-0.09,-7.22,-37.98,24.08,25.0,1.0,1.0,0.0,50.0
12940,1,walk,walk,649,,649.0,20.0,0.0,0.0,1.0,-10.09,0.728,5.228,0.0,27.0,22.74,0.0,0.0,19.0,0.0,0.0,1.4,0.03,-1.09,-0.08,-5.85,-40.21,18.29,25.0,1.0,1.0,0.0,50.0
12940,1,walk,walk,650,,650.0,20.0,0.0,0.0,1.0,-10.65,0.82,4.389,0.0,27.0,22.74,0.0,0.0,14.0,0.0,0.0,2.01,0.04,-1.1,-0.07,-4.72,-41.16,11.28,25.0,1.0,1.0,0.0,50.0
13000,1,walk,walk,651,,651.0,20.0,0.0,0.0,1.0,-11.18,0.878,3.442,0.0,27.0,22.74,0.0,0.0,14.0,0.0,0.0,2.19,0.04,-1.1,-0.07,-3.8,-40.6,3.37,25.0,1.0,1.0,0.0,50.0
13000,1,walk,walk,652,,652.0,20.0,1.0,0.0,1.0,-11.65,0.925,2.927,0.0,27.0,22.77,0.0,0.0,15.0,0.0,0.0,1.88,0.04,-1.11,-0.08,-3.04,-38.66,-5.03,26.0,1.0,1.0,0.0,50.0
13000,1,walk,walk,653,,653.0,20.0,1.0,0.0,1.0,-12.08,0.962,2.05,0.0,27.0,22.74,0.0,0.0,15.0,0.0,0.0,1.09,0.02,-1.11,-0.09,-2.3,-35.74,-13.6,26.0,1.0,1.0,0.0,50.0
13080,1,walk,walk,654,,654.0,20.0,1.0,0.0,1.0,-12.43,0.983,0.774,0.0,27.0,22.74,0.0,0.0,15.0,0.0,0.0,-0.1,0.0,-1.12,-0.1,-1.42,-32.27,-22.1,26.0,1.0,1.0,0.0,50.0
13080,1,walk,walk,655,,655.0,20.0,1.0,0.0,1.0,-12.72,0.988,-0.088,0.0,27.0,22.74,0.0,0.0,15.0,0.0,0.0,-1.56,-0.03,-1.12,-0.11,-0.29,-28.53,-30.36,26.0,1.0,1.0,0.0,50.0
13080,1,walk,walk,656,,656.0,20.0,0.0,0.0,1.0,-12.92,0.984,-0.44,0.0,27.0,22.74,0.0,0.0,8.0,0.0,0.0,-3.12,-0.06,-1.13,-0.12,1.1,-24.61,-38.32,26.0,1.0,1.0,0.0,50.0
13140,1,walk,walk,657,,657.0,20.0,0.0,0.0,1.0,-13.04,0.971,-1.327,0.0,27.0,22.74,0.0,0.0,8.0,0.0,0.0,-4.68,-0.09,-1.13,-0.12,2.7,-20.45,-45.92,26.0,1.0,1.0,0.0,50.0
13140,1,walk,walk,658,,658.0,20.0,1.0,0.0,1.0,-13.06,0.946,-2.005,0.0,27.0,22.74,0.0,0.0,9.0,0.0,0.0,-6.14,-0.12,-1.12,-0.12,4.39,-15.92,-53.08,26.0,1.0,1.0,0.0,50.0
13140,1,walk,walk,659,,659.0,20.0,1.0,0.0,1.0,-12.98,0.908,-3.006,0.0,27.0,22.74,0.0,0.0,9.0,0.0,0.0,-7.48,-0.15,-1.12,-0.13,6.05,-10.75,-59.7,26.0,1.0,1.0,0.0,50.0
13220,1,walk,walk,660,,660.0,20.0,1.0,0.0,1.0,-12.8,0.857,-3.658,0.0,27.0,22.74,0.0,0.0,9.0,0.0,0.0,-8.68,-0.17,-1.11,-0.12,7.67,-4.85,-65.66,26.0,1.0,1.0,0.0,50.0
13220,1,walk,walk,661,,661.0,20.0,1.0,0.0,1.0,-12.52,0.8,-3.832,0.0,27.0,22.74,0.0,0.0,8.0,0.0,0.0,-9.76,-0.19,-1.1,-0.12,9.3,1.55,-70.82,26.0,1.0,1.0,0.0,50.0
13220,1,walk,walk,662,,662.0,20.0,1.0,0.0,1.0,-12.13,0.737,-4.118,0.0,27.0,22.74,0.0,0.0,8.0,0.0,0.0,-10.75,-0.21,-1.08,-0.12,11.05,7.98,-75.11,26.0,1.0,1.0,0.0,50.0
13220,1,walk,walk,663,,663.0,20.0,0.0,0.0,1.0,-11.65,0.674,-4.204,0.0,27.0,22.74,0.0,0.0,7.0,0.0,0.0,-11.64,-0.22,-1.07,-0.11,13.0,13.99,-78.49,26.0,1.0,1.0,0.0,50.0
13280,1,walk,walk,664,,664.0,20.0,0.0,0.0,1.0,-11.06,0.61,-4.277,0.0,27.0,22.74,0.0,0.0,7.0,0.0,0.0,-12.41,-0.23,-1.06,-0.11,15.14,19.29,-80.98,26.0,1.0,1.0,0.0,50.0
13280,1,walk,walk,665,,665.0,20.0,0.0,0.0,1.0,-10.38,0.548,-3.965,0.0,27.0,22.74,0.0,0.0,7.0,0.0,0.0,-13.01,-0.24,-1.05,-0.1,17.41,23.68,-82.61,26.0,1.0,1.0,0.0,50.0
13280,1,walk,walk,666,,666.0,20.0,0.0,0.0,1.0,-9.62,0.492,-3.684,0.0,27.0,22.74,0.0,0.0,7.0,0.0,0.0,-13.38,-0.25,-1.04,-0.1,19.66,27.17,-83.45,26.0,1.0,1.0,0.0,50.0
13280,1,walk,walk,667,,667.0,20.0,1.0,0.0,1.0,-8.77,0.437,-3.779,0.0,27.0,22.74,0.0,0.0,7.0,0.0,0.0,-13.49,-0.25,-1.02,-0.09,21.77,29.88,-83.52,26.0,1.0,1.0,0.0,50.0
13360,1,walk,walk,668,,668.0,20.0,1.0,0.0,1.0,-7.85,0.379,-3.746,0.0,27.0,22.74,0.0,0.0,7.0,0.0,0.0,-13.3,-0.24,-1.01,-0.08,23.59,31.91,-82.78,26.0,1.0,1.0,0.0,50.0
13360,1,walk,walk,669,,669.0,20.0,1.0,0.0,1.0,-6.87,0.326,-3.411,0.0,27.0,22.74,0.0,0.0,7.0,0.0,0.0,-12.82,-0.23,-1.0,-0.08,25.01,33.16,-81.17,26.0,1.0,1.0,0.0,50.0
13360,1,walk,walk,670,,670.0,20.0,1.0,0.0,1.0,-5.83,0.278,-3.03,0.0,27.0,22.74,0.0,0.0,6.0,0.0,0.0,-12.06,-0.21,-0.99,-0.07,25.92,33.3,-78.6,26.0,1.0,1.0,0.0,50.0
13360,1,walk,walk,671,,671.0,20.0,1.0,0.0,1.0,-4.74,0.236,-2.275,0.0,27.0,22.74,0.0,0.0,6.0,0.0,0.0,-11.01,-0.19,-0.98,-0.06,26.22,31.88,-75.02,26.0,1.0,1.0,0.0,50.0
13440,1,walk,walk,672,,672.0,20.0,0.0,0.0,1.0,-3.62,0.214,-0.821,0.0,27.0,22.74,0.0,0.0,5.0,0.0,0.0,-9.63,-0.16,-0.97,-0.05,25.74,28.57,-70.47,26.0,1.0,1.0,0.0,50.0
13440,1,walk,walk,673,,673.0,20.0,0.0,0.0,1.0,-2.48,0.211,0.171,0.0,27.0,22.74,0.0,0.0,5.0,0.0,0.0,-7.87,-0.13,-0.95,-0.05,24.39,23.63,-65.04,27.0,1.0,1.0,0.0,50.0
13440,1,walk,walk,674,,674.0,20.0,0.0,0.0,1.0,-1.32,0.211,0.054,0.0,27.0,22.77,0.0,0.0,5.0,0.0,0.0,-5.77,-0.09,-0.94,-0.04,22.15,17.93,-58.76,27.0,1.0,1.0,0.0,50.0
13500,1,walk,walk,675,,675.0,20.0,0.0,0.0,1.0,-0.16,0.214,0.245,0.0,27.0,22.74,0.0,0.0,5.0,0.0,0.0,-3.44,-0.06,-0.92,-0.04,19.12,12.57,-51.66,27.0,1.0,1.0,0.0,50.0
13500,1,walk,walk,676,,676.0,20.0,1.0,0.0,1.0,0.99,0.216,-0.101,0.0,27.0,22.74,0.0,0.0,6.0,0.0,0.0,-1.1,-0.02,-0.91,-0.04,15.42,8.36,-43.86,27.0,1.0,1.0,0.0,50.0
13500,1,walk,walk,677,,677.0,20.0,1.0,0.0,1.0,2.12,0.211,-0.848,0.0,27.0,22.74,0.0,0.0,6.0,0.0,0.0,1.06,0.02,-0.9,-0.04,11.24,5.75,-35.55,27.0,1.0,1.0,0.0,50.0
13560,1,walk,walk,678,,678.0,20.0,1.0,0.0,1.0,3.22,0.193,-1.372,0.0,27.0,22.74,0.0,0.0,6.0,0.0,0.0,2.94,0.05,-0.89,-0.03,6.9,4.87,-27.1,27.0,1.0,1.0,0.0,50.0
13580,1,walk,walk,679,,679.0,20.0,1.0,0.0,1.0,4.29,0.18,-0.446,0.0,27.0,22.74,0.0,0.0,6.0,0.0,0.0,4.6,0.07,-0.9,-0.03,2.73,5.6,-18.81,27.0,1.0,1.0,0.0,50.0
13580,1,walk,walk,680,,680.0,20.0,1.0,0.0,1.0,5.3,0.179,-0.048,0.0,27.0,22.74,0.0,0.0,6.0,0.0,0.0,6.07,0.1,-0.91,-0.02,-1.05,7.5,-10.88,27.0,1.0,1.0,0.0,50.0
13580,1,walk,walk,681,,681.0,20.0,1.0,0.0,1.0,6.25,0.179,0.011,0.0,27.0,22.74,0.0,0.0,6.0,0.0,0.0,7.33,0.12,-0.93,0.0,-4.34,10.18,-3.39,27.0,1.0,1.0,0.0,50.0
13640,1,walk,walk,682,,682.0,20.0,1.0,0.0,1.0,7.13,0.183,0.346,0.0,27.0,22.74,0.0,0.0,6.0,0.0,0.0,8.3,0.14,-0.95,0.01,-7.24,13.28,3.6,27.0,1.0,1.0,0.0,50.0
13640,1,walk,walk,683,,683.0,20.0,1.0,0.0,1.0,7.94,0.194,0.922,0.0,27.0,22.74,0.0,0.0,6.0,0.0,0.0,8.88,0.15,-0.97,0.02,-9.94,16.38,9.96,27.0,1.0,1.0,0.0,50.0
13640,1,walk,walk,684,,684.0,20.0,1.0,0.0,1.0,8.66,0.201,0.156,0.0,27.0,22.74,0.0,0.0,6.0,0.0,0.0,9.0,0.16,-0.99,0.03,-12.56,18.94,15.57,27.0,1.0,1.0,0.0,50.0
13640,1,walk,walk,685,,685.0,20.0,1.0,0.0,1.0,9.29,0.201,-0.076,0.0,27.0,22.74,0.0,0.0,6.0,0.0,0.0,8.69,0.15,-1.01,0.03,-15.03,20.48,20.43,27.0,1.0,1.0,0.0,50.0
13720,1,walk,walk,686,,686.0,20.0,0.0,0.0,1.0,9.82,0.2,-0.101,0.0,27.0,22.74,0.0,0.0,5.0,0.0,0.0,8.07,0.14,-1.02,0.03,-17.24,20.81,24.66,27.0,1.0,1.0,0.0,50.0
13720,1,walk,walk,687,,687.0,20.0,0.0,0.0,1.0,10.26,0.199,-0.085,0.0,27.0,22.74,0.0,0.0,5.0,0.0,0.0,7.3,0.13,-1.03,0.02,-19.11,20.24,28.42,27.0,1.0,1.0,0.0,50.0
13720,1,walk,walk,688,,688.0,20.0,0.0,0.0,1.0,10.6,0.199,-0.038,0.0,27.0,22.74,0.0,0.0,5.0,0.0,0.0,6.47,0.12,-1.03,0.01,-20.63,19.23,31.76,27.0,1.0,1.0,0.0,50.0
13720,1,walk,walk,689,,689.0,20.0,1.0,0.0,1.0,10.83,0.199,0.058,0.0,27.0,22.74,0.0,0.0,6.0,0.0,0.0,5.59,0.1,-1.04,0.0,-21.81,18.14,34.67,27.0,1.0,1.0,0.0,50.0
13800,1,walk,walk,690,,690.0,20.0,1.0,0.0,1.0,10.97,0.198,-0.056,0.0,27.0,22.74,0.0,0.0,6.0,0.0,0.0,4.68,0.09,-1.04,-0.02,-22.67,16.99,37.15,27.0,1.0,1.0,0.0,50.0
13800,1,walk,walk,691,,691.0,20.0,1.0,0.0,1.0,11.01,0.196,-0.23,0.0,27.0,22.74,0.0,0.0,6.0,0.0,0.0,3.73,0.07,-1.04,-0.03,-23.26,15.61,39.2,27.0,1.0,1.0,0.0,50.0
13800,1,walk,walk,692,,692.0,20.0,1.0,0.0,1.0,10.96,0.195,-0.142,0.0,27.0,22.74,0.0,0.0,6.0,0.0,0.0,2.77,0.05,-1.04,-0.05,-23.6,13.79,40.85,27.0,1.0,1.0,0.0,50.0
13840,1,walk,walk,693,,693.0,20.0,1.0,0.0,1.0,10.81,0.193,-0.107,0.0,27.0,22.74,0.0,0.0,6.0,0.0,0.0,1.87,0.03,-1.04,-0.06,-23.72,11.42,42.1,27.0,1.0,1.0,0.0,50.0
13860,1,walk,walk,694,,694.0,20.0,0.0,0.0,1.0,10.57,0.192,-0.048,0.0,27.0,22.74,0.0,0.0,5.0,0.0,0.0,1.06,0.02,-1.03,-0.08,-23.67,8.56,42.97,27.0,1.0,1.0,0.0,50.0
13860,1,walk,walk,695,,695.0,20.0,0.0,0.0,1.0,10.25,0.192,-0.028,0.0,27.0,22.74,0.0,0.0,5.0,0.0,0.0,0.41,0.01,-1.03,-0.09,-23.47,5.38,43.48,27.0,1.0,1.0,0.0,50.0
13920,1,walk,walk,696,,696.0,20.0,0.0,0.0,1.0,9.86,0.193,-0.032,0.0,27.0,22.74,0.0,0.0,5.0,0.0,0.0,-0.07,0.0,-1.03,-0.1,-23.15,2.18,43.69,27.0,1.0,1.0,0.0,50.0
13920,1,walk,walk,697,,697.0,20.0,0.0,0.0,1.0,9.39,0.193,0.06,0.0,27.0,22.74,0.0,0.0,5.0,0.0,0.0,-0.37,-0.01,-1.02,-0.11,-22.72,-0.72,43.63,27.0,1.0,1.0,0.0,50.0
13920,1,walk,walk,698,,698.0,20.0,0.0,0.0,1.0,8.86,0.193,0.066,0.0,27.0,22.74,0.0,0.0,5.0,0.0,0.0,-0.55,-0.01,-1.02,-0.12,-22.22,-3.06,43.37,27.0,1.0,1.0,0.0,50.0
14000,1,walk,walk,699,,699.0,20.0,1.0,0.0,1.0,8.27,0.193,-0.001,0.0,27.0,22.74,0.0,0.0,6.0,0.0,0.0,-0.65,-0.01,-1.02,-0.12,-21.64,-4.72,42.98,27.0,1.0,1.0,0.0,50.0
14000,1,walk,walk,700,,700.0,20.0,1.0,0.0,1.0,7.63,0.194,0.032,0.0,27.0,22.74,0.0,0.0,6.0,0.0,0.0,-0.77,-0.01,-1.01,-0.13,-21.01,-5.73,42.53,27.0,1.0,1.0,0.0,50.0
14000,1,walk,walk,701,,701.0,20.0,1.0,0.0,1.0,6.95,0.194,-0.001,0.0,27.0,22.74,0.0,0.0,6.0,0.0,0.0,-0.93,-0.02,-1.01,-0.13,-20.35,-6.28,42.08,27.0,1.0,1.0,0.0,50.0
14000,1,walk,walk,702,,702.0,20.0,1.0,0.0,1.0,6.23,0.194,0.048,0.0,27.0,22.74,0.0,0.0,6.0,0.0,0.0,-1.17,-0.02,-1.0,-0.13,-19.7,-6.6,41.65,27.0,1.0,1.0,0.0,50.0
14060,1,walk,walk,703,,703.0,20.0,1.0,0.0,1.0,5.48,0.195,0.054,0.0,27.0,22.74,0.0,0.0,6.0,0.0,0.0,-1.47,-0.03,-1.0,-0.13,-19.07,-6.85,41.29,27.0,1.0,1.0,0.0,50.0
14060,1,walk,walk,704,,704.0,20.0,1.0,0.0,1.0,4.72,0.196,0.037,0.0,27.0,22.74,0.0,0.0,6.0,0.0,0.0,-1.78,-0.03,-1.0,-0.13,-18.49,-7.13,40.98,28.0,1.0,1.0,0.0,50.0
14060,1,walk,walk,705,,705.0,20.0,0.0,0.0,1.0,3.93,0.198,0.073,0.0,27.0,22.74,0.0,0.0,5.0,0.0,0.0,-2.08,-0.04,-1.0,-0.13,-17.96,-7.42,40.74,28.0,1.0,1.0,0.0,50.0
14060,1,walk,walk,706,,706.0,20.0,0.0,0.0,1.0,3.14,0.201,0.42,0.0,27.0,22.74,0.0,0.0,4.0,0.0,0.0,-2.33,-0.04,-1.0,-0.13,-17.49,-7.65,40.56,28.0,1.0,1.0,0.0,50.0
14140,1,walk,walk,707,,707.0,20.0,1.0,0.0,1.0,2.33,0.21,0.559,0.0,27.0,22.74,0.0,0.0,5.0,0.0,0.0,-2.53,-0.04,-0.99,-0.14,-17.08,-7.78,40.39,28.0,1.0,1.0,0.0,50.0
14140,1,walk,walk,708,,708.0,20.0,1.0,0.0,1.0,1.53,0.22,0.626,0.0,27.0,22.77,0.0,0.0,5.0,0.0,0.0,-2.71,-0.05,-0.99,-0.14,-16.74,-7.8,40.22,28.0,1.0,1.0,0.0,50.0
14140,1,walk,walk,709,,709.0,20.0,1.0,0.0,1.0,0.72,0.228,0.44,0.0,27.0,22.74,0.0,0.0,5.0,0.0,0.0,-2.89,-0.05,-0.99,-0.14,-16.45,-7.75,40.03,28.0,1.0,1.0,0.0,50.0
14140,1,walk,walk,710,,710.0,20.0,0.0,0.0,1.0,-0.08,0.237,0.632,0.0,27.0,22.74,0.0,0.0,4.0,0.0,0.0,-3.14,-0.05,-0.99,-0.14,-16.2,-7.77,39.86,28.0,1.0,1.0,0.0,50.0
14200,1,walk,walk,711,,711.0,20.0,0.0,0.0,1.0,-0.87,0.249,0.972,0.0,27.0,22.74,0.0,0.0,4.0,0.0,0.0,-3.44,-0.06,-0.99,-0.14,-15.98,-8.07,39.7,28.0,1.0,1.0,0.0,50.0
14200,1,walk,walk,712,,712.0,20.0,0.0,0.0,1.0,-1.66,0.262,0.865,0.0,27.0,22.74,0.0,0.0,4.0,0.0,0.0,-3.79,-0.07,-0.99,-0.15,-15.8,-8.86,39.53,28.0,1.0,1.0,0.0,50.0
14200,1,walk,walk,713,,713.0,20.0,0.0,0.0,1.0,-2.44,0.278,1.212,0.0,27.0,22.74,0.0,0.0,4.0,0.0,0.0,-4.12,-0.07,-0.99,-0.15,-15.64,-10.24,39.32,28.0,1.0,1.0,0.0,50.0
14280,1,walk,walk,714,,714.0,20.0,1.0,0.0,1.0,-3.21,0.296,1.413,0.0,27.0,22.74,0.0,0.0,5.0,0.0,0.0,-4.38,-0.08,-1.0,-0.15,-15.46,-12.17,39.07,28.0,1.0,1.0,0.0,50.0
14280,1,walk,walk,715,,715.0,20.0,1.0,0.0,1.0,-3.97,0.316,1.518,0.0,27.0,22.74,0.0,0.0,5.0,0.0,0.0,-4.5,-0.08,-1.0,-0.15,-15.19,-14.42,38.77,28.0,1.0,1.0,0.0,50.0
14280,1,walk,walk,716,,716.0,20.0,1.0,0.0,1.0,-4.72,0.343,1.875,0.0,27.0,22.74,0.0,0.0,5.0,0.0,0.0,-4.43,-0.08,-1.01,-0.15,-14.8,-16.77,38.4,28.0,1.0,1.0,0.0,50.0
14360,1,walk,walk,717,,717.0,20.0,1.0,0.0,1.0,-5.46,0.374,2.189,0.0,27.0,22.74,0.0,0.0,5.0,0.0,0.0,-4.15,-0.07,-1.02,-0.14,-14.24,-19.12,37.92,28.0,1.0,1.0,0.0,50.0
14360,1,walk,walk,718,,718.0,20.0,1.0,0.0,1.0,-6.19,0.411,2.671,0.0,27.0,22.74,0.0,0.0,5.0,0.0,0.0,-3.64,-0.07,-1.03,-0.14,-13.41,-21.61,37.28,28.0,1.0,1.0,0.0,50.0
14360,1,walk,walk,719,,719.0,20.0,0.0,0.0,1.0,-6.9,0.456,3.308,0.0,27.0,22.74,0.0,0.0,4.0,0.0,0.0,-2.87,-0.05,-1.05,-0.13,-12.25,-24.36,36.28,28.0,1.0,1.0,0.0,50.0
14360,1,walk,walk,720,,720.0,20.0,0.0,0.0,1.0,-7.6,0.513,4.15,0.0,27.0,22.74,0.0,0.0,4.0,0.0,0.0,-1.88,-0.03,-1.06,-0.12,-10.78,-27.35,34.63,28.0,1.0,1.0,0.0,50.0
14420,1,walk,walk,721,,721.0,20.0,0.0,0.0,1.0,-8.28,0.582,4.98,0.0,27.0,22.74,0.0,0.0,4.0,0.0,0.0,-0.75,-0.01,-1.08,-0.11,-9.14,-30.37,32.01,28.0,1.0,1.0,0.0,50.0
14420,1,walk,walk,722,,722.0,20.0,0.0,0.0,1.0,-8.94,0.661,5.282,0.0,27.0,22.74,0.0,0.0,4.0,0.0,0.0,0.41,0.01,-1.09,-0.09,-7.47,-33.1,28.19,28.0,1.0,1.0,0.0,50.0
14420,1,walk,walk,723,,723.0,20.0,1.0,0.0,1.0,-9.58,0.74,5.086,0.0,27.0,22.74,0.0,0.0,5.0,0.0,0.0,1.44,0.03,-1.1,-0.08,-5.88,-35.2,23.04,28.0,1.0,1.0,0.0,50.0
14420,1,walk,walk,724,,724.0,20.0,1.0,0.0,1.0,-10.19,0.808,4.367,0.0,27.0,22.77,0.0,0.0,5.0,0.0,0.0,2.21,0.04,-1.1,-0.07,-4.43,-36.35,16.62,28.0,1.0,1.0,0.0,50.0
14480,1,walk,walk,725,,725.0,20.0,1.0,0.0,1.0,-10.76,0.867,3.466,0.0,27.0,22.74,0.0,0.0,5.0,0.0,0.0,2.58,0.05,-1.11,-0.07,-3.12,-36.34,9.18,28.0,1.0,1.0,0.0,50.0
14480,1,walk,walk,726,,726.0,20.0,1.0,0.0,1.0,-11.29,0.914,3.002,0.0,27.0,22.74,0.0,0.0,5.0,0.0,0.0,2.48,0.05,-1.12,-0.08,-1.92,-35.16,1.08,29.0,1.0,1.0,0.0,50.0
14480,1,walk,walk,727,,727.0,20.0,1.0,0.0,1.0,-11.77,0.953,2.259,0.0,27.0,22.74,0.0,0.0,5.0,0.0,0.0,1.91,0.04,-1.12,-0.08,-0.74,-33.04,-7.31,29.0,1.0,1.0,0.0,50.0
14560,1,walk,walk,728,,728.0,20.0,0.0,0.0,1.0,-12.19,0.979,1.262,0.0,27.0,22.74,0.0,0.0,4.0,0.0,0.0,0.91,0.02,-1.13,-0.09,0.54,-30.33,-15.76,29.0,1.0,1.0,0.0,50.0
14560,1,walk,walk,729,,729.0,20.0,0.0,0.0,1.0,-12.53,0.988,0.096,0.0,27.0,22.74,0.0,0.0,4.0,0.0,0.0,-0.39,-0.01,-1.13,-0.1,2.01,-27.24,-24.07,29.0,1.0,1.0,0.0,50.0
14560,1,walk,walk,730,,730.0,20.0,0.0,0.0,1.0,-12.81,0.988,-0.091,0.0,27.0,22.74,0.0,0.0,4.0,0.0,0.0,-1.85,-0.04,-1.13,-0.12,3.66,-23.82,-32.13,29.0,1.0,1.0,0.0,50.0
14620,1,walk,walk,731,,731.0,20.0,0.0,0.0,1.0,-12.99,0.982,-0.669,0.0,27.0,22.74,0.0,0.0,4.0,0.0,0.0,-3.35,-0.07,-1.13,-0.12,5.46,-20.02,-39.89,29.0,1.0,1.0,0.0,50.0
14620,1,walk,walk,732,,732.0,20.0,1.0,0.0,1.0,-13.09,0.965,-1.413,0.0,27.0,22.74,0.0,0.0,5.0,0.0,0.0,-4.79,-0.09,-1.13,-0.13,7.27,-15.72,-47.27,29.0,1.0,1.0,0.0,50.0
14620,1,walk,walk,733,,733.0,20.0,1.0,0.0,1.0,-13.09,0.936,-2.341,0.0,27.0,22.74,0.0,0.0,5.0,0.0,0.0,-6.12,-0.12,-1.12,-0.14,9.0,-10.77,-54.15,29.0,1.0,1.0,0.0,50.0
14620,1,walk,walk,734,,734.0,20.0,0.0,0.0,1.0,-12.98,0.893,-3.253,0.0,27.0,22.77,0.0,0.0,4.0,0.0,0.0,-7.32,-0.14,-1.11,-0.14,10.54,-4.97,-60.37,29.0,1.0,1.0,0.0,50.0
14700,1,walk,walk,735,,735.0,20.0,0.0,0.0,1.0,-12.78,0.839,-3.748,0.0,27.0,22.74,0.0,0.0,4.0,0.0,0.0,-8.37,-0.16,-1.1,-0.15,11.94,1.61,-65.83,29.0,1.0,1.0,0.0,50.0
14700,1,walk,walk,736,,736.0,20.0,0.0,0.0,1.0,-12.47,0.782,-3.92,0.0,27.0,22.77,0.0,0.0,4.0,0.0,0.0,-9.31,-0.18,-1.09,-0.15,13.26,8.65,-70.42,29.0,1.0,1.0,0.0,50.0
14700,1,walk,walk,737,,737.0,20.0,1.0,0.0,1.0,-12.06,0.722,-4.005,0.0,27.0,22.74,0.0,0.0,5.0,0.0,0.0,-10.16,-0.19,-1.07,-0.15,14.61,15.65,-74.15,29.0,1.0,1.0,0.0,50.0
14760,1,walk,walk,738,,738.0,20.0,1.0,0.0,1.0,-11.55,0.664,-3.911,0.0,27.0,22.74,0.0,0.0,4.0,0.0,0.0,-10.92,-0.2,-1.06,-0.15,16.07,22.14,-77.04,29.0,1.0,1.0,0.0,50.0
