cycle_index,gait_percent,segment_id,walk_dt_ms,walk_exec_ms,walk_out,walk_state,walk_tilt_forward_deg,walk_pos_rad,walk_vel_rad_s,walk_tq_nm,walk_temp_c,walk_vbus_v,walk_err_code,walk_fb_age_ms,walk_typical_stride_ms,walk_effective_step_count,walk_tilt_accel_deg,walk_acc_x,walk_acc_y,walk_acc_z,walk_gyr_x,walk_gyr_y,walk_gyr_z,cfg_gait_model,cfg_gait_mode,cfg_side_is_left,cfg_assist_pct
2,0.0,1,20.0,0.0,0,1,-7.27,-0.107,0.526,0.798,34.0,28.11,0,19.0,0.0,11.0,-6.12,-0.11,-1.0,-0.15,1.73,3.28,2.83,0,1,0,100.0
2,1.0,1,20.0,0.0,0,1,-7.3092500000000005,-0.10229,0.39412,0.955785,34.785,28.11,0,19.0,0.0,11.0,-6.3398,-0.11,-1.0,-0.15,1.9811999999999999,2.91105,1.51905,0,1,0,100.0
2,2.0,1,20.0,0.0,0,1,-7.421866666666666,-0.10490666666666666,0.11096,0.0,35.0,28.14,0,12.0,0.0,11.0,-6.691400000000001,-0.12,-0.99,-0.16,3.068,1.6029333333333333,-1.9797333333333331,0,1,0,100.0
2,3.0,1,20.0,0.0,0,1,-7.4428,-0.10386,0.13293999999999997,0.0,35.0,28.14,0,12.0,0.0,11.0,-6.7071,-0.12,-0.99,-0.16,3.382,1.2994,-2.6496,0,1,0,100.0
2,4.0,1,20.0,0.0,0,1,-7.5328,-0.0956,0.30895999999999996,0.0,35.0,28.1688,0,12.0,0.0,11.0,-6.6204,-0.1172,-0.99,-0.16,5.0864,0.08320000000000008,-5.530399999999999,0,1,0,100.0
2,5.0,1,20.0,0.0,0,1,-7.5485,-0.08689999999999999,0.28175,0.0,35.0,28.14,0,12.0,0.0,11.0,-6.4935,-0.11,-0.99,-0.16,6.067,-0.3355,-6.9905,0,1,0,100.0
2,6.0,1,20.0,0.0,0,1,-7.55,-0.08316,0.23357000000000003,0.0,35.0,28.14,0,12.0,0.0,11.0,-6.409,-0.11,-0.99,-0.1529,6.6072999999999995,-0.5190999999999999,-7.790299999999999,0,1,0,100.0
2,7.0,1,20.0,0.0,0,1,-7.530200000000001,-0.07804,0.12500000000000008,0.0,35.0,28.14,0,12.0,0.0,11.0,-6.2711,-0.11,-0.99,-0.15,7.4434,-0.7680999999999999,-8.990599999999999,0,1,0,100.0
2,8.0,1,20.0,0.0,0,1,-7.4432,-0.06848,0.3797199999999999,0.0,35.0,28.1512,0,12.0,0.0,11.0,-5.9864,-0.1,-0.9928,-0.15,9.2292,-1.166,-11.3712,0,1,0,100.0
2,9.0,1,20.0,0.0,0,1,-7.307,-0.04718000000000003,0.9492499999999997,0.0,35.0,28.14,0,12.0,0.0,11.0,-5.777,-0.1,-1.0,-0.14870000000000003,11.003899999999998,-1.5585999999999995,-14.257299999999997,0,1,0,100.0
2,10.0,1,20.0,0.0,0,1,-7.143,-0.021,1.2353,0.0,35.0,28.14,0,12.0,0.0,11.0,-5.613,-0.1,-1.0,-0.14,12.572,-1.82,-18.161,0,1,0,100.0
2,11.0,1,20.0,0.0,0,1,-6.966500000000001,0.004449999999999998,0.8784400000000003,0.0,35.0,28.1764,0,12.0,0.0,11.0,-5.4129,-0.09910000000000001,-1.0009,-0.14,13.5716,-1.3666000000000005,-22.647699999999997,0,1,0,100.0
2,12.0,1,20.0,0.0,0,1,-6.888,0.007066666666666662,0.3111466666666674,0.0,35.0,28.155466666666666,0,12.0,0.0,11.0,-5.313466666666667,-0.09386666666666667,-1.0061333333333333,-0.14,13.697199999999999,-0.7072000000000009,-24.495066666666663,0,1,0,100.0
2,13.0,1,20.0,0.0,0,1,-6.40285,-0.008664999999999996,-0.6733499999999998,0.0,35.0,28.14,0,12.0,0.0,11.0,-4.70105,-0.08,-1.0220500000000001,-0.14205,12.21405,7.820999999999998,-32.48465,0,1,0,100.0
2,14.0,1,20.0,0.0,0,1,-6.2223,-0.018869999999999987,-1.0422999999999996,0.0,35.0,28.14,0,12.0,0.0,11.0,-4.5519,-0.08,-1.0299,-0.14989999999999998,10.965900000000001,12.687999999999995,-33.8427,0,1,0,100.0
2,15.0,1,20.0,0.0,0,1,-5.484,-0.027,0.0076,0.0,35.0,28.14,0,12.0,0.0,11.0,-5.6245,-0.10099999999999999,-1.04,-0.15,4.8435,34.152,-29.7275,0,1,0,100.0
2,16.0,1,20.0,0.0,0,1,-4.957800000000001,-0.026,-0.04186000000000007,0.0,35.0,28.14,0,12.0,0.0,11.0,-7.657999999999999,-0.1418,-1.05,-0.14,1.0634000000000012,44.766799999999996,-21.966200000000004,0,1,0,100.0
2,17.0,1,20.0,0.0,0,1,-4.667350000000001,-0.026,0.05155499999999987,0.0,35.0,28.14,0,12.0,0.0,11.0,-9.070999999999998,-0.16534999999999997,-1.05,-0.14,-0.5929499999999976,47.7341,-16.68315000000001,0,1,0,100.0
2,18.0,1,20.0,0.0,0,1,-4.118600000000002,-0.02448000000000001,0.052360000000000226,0.0,35.0,28.1504,0,12.0,0.0,11.0,-11.674599999999995,-0.21779999999999988,-1.05,-0.13,-2.8029999999999964,47.76900000000001,-6.426800000000025,0,1,0,100.0
2,19.0,1,20.0,1.0,0,1,-3.1594999999999995,-0.020339999999999997,0.163,0.0,35.0,28.14,0,13.0,0.0,11.0,-14.932300000000001,-0.27830000000000005,-1.06,-0.13,-4.0085,30.88589999999999,10.740200000000007,0,1,0,100.0
2,20.0,1,20.0,1.0,0,1,-2.883,-0.0186,0.22039999999999998,0.0,35.0,28.14,0,13.0,0.0,11.0,-15.238,-0.287,-1.06,-0.13,-3.685,21.848,15.194,0,1,0,100.0
2,21.0,1,20.0,1.0,0,1,-2.326,-0.0013000000000000127,0.6385099999999999,0.0,35.0,28.14,0,13.0,0.0,11.0,-14.321900000000001,-0.27030000000000004,-1.0503,-0.13,-2.2892000000000006,-1.4501999999999888,23.519099999999995,0,1,0,100.0
2,22.0,1,20.0,1.0,0,1,-2.2532666666666668,0.0005399999999999977,0.3247866666666671,0.0,35.0,28.160533333333333,0,13.0,0.0,11.0,-13.761000000000001,-0.25973333333333337,-1.05,-0.13513333333333333,-2.0184666666666673,-5.7183333333333275,24.867666666666665,0,1,0,100.0
2,23.0,1,20.0,1.0,0,1,-2.1321999999999997,0.002,0.048270000000000146,0.0,35.0,28.14,0,13.0,0.0,11.0,-11.849300000000005,-0.21670000000000011,-1.0389000000000002,-0.15109999999999996,-1.5687999999999998,-15.385099999999989,28.417799999999993,0,1,0,100.0
2,24.0,1,20.0,1.0,0,1,-2.2112,0.002,-0.018559999999999813,0.0,35.0,28.14,0,13.0,0.0,11.0,-9.671200000000008,-0.1764000000000001,-1.0232,-0.16679999999999998,-1.8983999999999983,-19.650799999999993,31.417599999999993,0,1,0,100.0
2,25.0,1,20.0,2.0,0,1,-2.715,0.002,0.06125,0.0,35.0,28.169999999999998,0,14.0,0.0,11.0,-5.9275,-0.1025,-0.9875,-0.1825,-3.905,-21.39,34.9375,0,1,0,100.0
2,26.0,1,20.0,2.0,0,1,-3.2269999999999994,0.002,0.01653999999999995,0.0,35.0,28.14,0,14.0,0.0,11.0,-3.5554000000000014,-0.06360000000000002,-0.9718,-0.19,-5.834199999999999,-21.4554,35.592999999999996,0,1,0,100.0
2,27.0,1,20.0,2.0,0,1,-3.57495,0.002,0.07642999999999993,0.0,35.0,28.1678,0,14.0,0.0,11.0,-2.230550000000002,-0.03915000000000003,-0.96305,-0.19,-7.063849999999999,-21.2276,35.348949999999995,0,1,0,100.0
2,28.0,1,20.0,1.0400000000000034,6,2,-4.122399999999998,0.002,-0.0440399999999995,0.0,34.040000000000006,28.1416,0,13.040000000000003,0.0,11.0,-0.3684000000000051,-0.010800000000000072,-0.9504,-0.19,-8.930399999999995,-20.390800000000002,34.366,0,1,0,100.0
2,29.0,1,20.0,0.0,6,2,-5.380299999999998,0.00047000000000000454,-0.1087400000000002,0.10656999999999969,34.529999999999994,28.14,0,18.0,0.0,11.0,2.616399999999996,0.04059999999999991,-0.9247000000000001,-0.19,-12.707299999999993,-15.96220000000001,30.208800000000007,0,1,0,100.0
2,30.0,1,20.0,1.0,6,2,-6.192,-0.001,-0.059800000000000006,0.11019999999999999,34.0,28.14,0,19.0,0.0,11.0,3.673,0.06,-0.92,-0.18,-14.834000000000001,-12.306999999999999,26.687,0,1,0,100.0
2,31.0,1,20.0,0.3300000000000011,6,2,-6.994999999999999,-0.001669999999999999,0.02516999999999982,0.20782999999999993,34.0,28.14,0,18.330000000000002,0.0,11.0,4.037,0.0667,-0.92,-0.18,-16.720499999999998,-9.040400000000002,22.6077,0,1,0,100.0
2,32.0,1,20.0,0.6199999999999989,6,2,-7.4638,-0.002,0.007420000000000121,0.20664000000000005,34.0,28.14,0,18.619999999999997,0.0,11.0,4.0018,0.06380000000000001,-0.92,-0.18,-17.7696,-7.5272000000000014,20.0026,0,1,0,100.0
2,33.0,1,20.0,1.0,6,2,-8.0226,-0.002,0.017840000000000144,0.2948200000000003,34.0,28.14,0,19.0,0.0,11.0,3.7574999999999994,0.06,-0.92,-0.18,-18.998100000000004,-6.137599999999998,16.690099999999994,0,1,0,100.0
2,34.0,1,20.0,1.0,6,2,-9.080599999999999,-0.007659999999999968,-0.2688599999999991,1.134719999999996,34.0,28.1286,0,19.0,0.0,11.0,2.389400000000004,0.036200000000000045,-0.9338,-0.17620000000000005,-20.6064,-5.6707999999999945,9.546600000000014,0,1,0,100.0
2,35.0,1,20.0,1.0,6,2,-9.614,-0.0177,-0.5088,2.4499500000000003,34.0,28.043499999999998,0,19.0,0.0,11.0,0.8714999999999998,0.011000000000000003,-0.9495,-0.17,-19.577,-8.4325,4.766,0,1,0,100.0
2,36.0,1,20.0,1.0,6,2,-10.034799999999999,-0.030159999999999947,-0.4993199999999996,3.966319999999992,34.0,27.878,0,19.0,0.0,11.0,-0.7139999999999935,-0.010399999999999864,-0.9803999999999998,-0.13960000000000014,-17.084400000000013,-12.183199999999985,-0.39679999999997695,0,1,0,100.0
2,37.0,1,20.0,1.0,6,2,-10.219033333333334,-0.03654333333333333,-0.4608766666666668,4.7748833333333325,34.0,27.790033333333334,0,19.0,0.0,11.0,-1.4570333333333327,-0.023633333333333326,-0.9972666666666666,-0.12273333333333335,-15.594166666666668,-13.772266666666665,-3.202633333333331,0,1,0,100.0
2,38.0,1,20.0,1.0,6,2,-10.318466666666668,-0.040206666666666675,-0.3598733333333332,5.133366666666667,34.0,27.732466666666664,0,19.0,0.0,11.0,-1.8704666666666672,-0.028866666666666672,-1.0077333333333334,-0.11226666666666665,-14.678333333333333,-14.567733333333335,-4.934866666666669,0,1,0,100.0
2,39.0,1,20.0,1.0,6,2,-10.5153,-0.041,0.012409999999999696,4.983350000000001,34.0,27.7292,0,19.0,0.0,11.0,-2.6250999999999984,-0.05,-1.0323,-0.0954000000000001,-12.546500000000007,-15.574499999999999,-9.154699999999988,0,1,0,100.0
2,40.0,1,20.0,1.0,6,2,-10.658,-0.040600000000000004,-0.00040000000000000105,4.9192,34.0,27.76,0,19.0,0.0,11.0,-3.198,-0.06,-1.064,-0.07400000000000001,-8.314,-14.218,-16.348,0,1,0,100.0
2,41.0,1,20.0,1.0,6,2,-10.6141,-0.04,0.04190999999999971,4.896210000000001,34.0,27.76,0,19.0,0.0,11.0,-3.1989,-0.06,-1.07,-0.08,-7.2041000000000075,-13.204500000000008,-17.544099999999993,0,1,0,100.0
2,42.0,1,20.0,1.0,6,2,-10.3795,-0.039,0.007159999999999859,4.64697,34.0,27.7741,0,19.0,0.0,11.0,-3.1265,-0.06,-1.0653000000000001,-0.09,-5.2822000000000005,-10.696600000000002,-18.6858,0,1,0,100.0
2,43.0,1,20.0,1.0,6,2,-10.2031,-0.038489999999999996,0.05765999999999992,4.487419999999999,34.0,27.79,0,19.0,0.0,11.0,-3.0846999999999998,-0.06,-1.06,-0.09510000000000002,-4.594199999999998,-9.443099999999998,-18.6937,0,1,0,100.0
2,44.0,1,20.0,1.0,6,2,-9.5976,-0.03284000000000001,0.20476000000000022,3.8032000000000012,34.0,27.8632,0,19.0,0.0,11.0,-3.0416,-0.06,-1.05,-0.12079999999999995,-3.462800000000002,-6.5160000000000045,-17.9204,0,1,0,100.0
2,45.0,1,20.0,1.0,6,2,-9.23925,-0.030025,0.17225,3.427825,34.0,27.90975,0,19.0,0.0,11.0,-3.0665,-0.06,-1.04675,-0.13325,-3.04275,-5.2185,-17.476,0,1,0,100.0
2,46.0,1,20.0,1.0,6,2,-8.623000000000001,-0.024560000000000016,0.15885999999999992,2.8036000000000016,34.0,27.976599999999998,0,19.0,0.0,11.0,-3.0856,-0.06,-1.03,-0.15,-2.4130000000000025,-3.372000000000006,-16.9494,0,1,0,100.0
2,47.0,1,20.0,1.0,6,2,-8.21175,-0.022210000000000004,0.15359500000000006,2.566825,34.394999999999996,28.0,0,19.0,0.0,11.0,-3.0463,-0.05605000000000001,-1.0260500000000001,-0.15394999999999998,-2.0017500000000004,-2.350050000000001,-16.659399999999998,0,1,0,100.0
2,48.0,1,20.0,1.0,6,2,-7.866800000000003,-0.02064000000000001,0.09688000000000084,2.443600000000001,35.0,28.0144,0,19.0,0.0,11.0,-2.9740000000000006,-0.05,-1.02,-0.1635999999999999,-1.6568000000000034,-1.6080000000000063,-16.349600000000002,0,1,0,100.0
2,49.0,1,20.0,1.0,6,2,-7.285900000000002,-0.02,0.011030000000000133,2.37968,35.0,28.04,0,19.0,0.0,11.0,-2.7798000000000007,-0.05,-1.0107000000000002,-0.17,-1.0480000000000018,-0.6020000000000028,-15.597800000000003,0,1,0,100.0
2,50.0,1,20.0,1.0,6,2,-6.324999999999999,-0.0195,0.052000000000000005,2.303,35.0,28.04,0,19.0,0.0,11.0,-2.3200000000000003,-0.04,-1.01,-0.185,0.18999999999999997,0.5299999999999999,-13.545,0,1,0,100.0
2,51.0,1,20.0,1.0,6,2,-5.744800000000002,-0.01786000000000001,0.10663999999999964,2.040560000000002,35.0,28.042099999999998,0,19.0,0.0,11.0,-2.0609000000000006,-0.03930000000000007,-1.0,-0.19,1.1133999999999957,1.0730999999999977,-12.177500000000006,0,1,0,100.0
2,52.0,1,20.0,1.0,6,2,-5.335333333333334,-0.015360000000000002,0.1609733333333333,1.6964666666666668,35.0,28.07,0,19.0,0.0,11.0,-1.9165333333333334,-0.03,-1.0,-0.19,1.828666666666666,1.452533333333333,-11.362666666666668,0,1,0,100.0
2,53.0,1,20.0,1.0,6,2,-5.152166666666668,-0.013790000000000009,0.17562666666666657,1.5185333333333344,35.0,28.07,0,19.0,0.0,11.0,-1.858966666666667,-0.03,-1.0,-0.19,2.1688333333333314,1.6304666666666656,-11.074833333333334,0,1,0,100.0
2,54.0,1,20.0,1.0,6,2,-4.2552,-0.007220000000000005,0.14029999999999984,0.8255700000000006,35.0,28.11,0,19.0,0.0,11.0,-1.6349000000000002,-0.03,-1.0,-0.2,4.002499999999999,2.473099999999999,-10.3961,0,1,0,100.0
2,55.0,1,20.0,1.0,6,2,-3.645,-0.0046500000000000005,0.10675,0.3957,35.0,28.14,0,19.0,0.0,11.0,-1.438,-0.0265,-1.0,-0.2,5.537,3.021,-10.5665,0,1,0,100.0
2,56.0,1,20.0,1.0,6,2,-3.316600000000001,-0.0030800000000000068,0.07276000000000066,0.15486000000000055,35.0,28.14,0,19.0,0.0,11.0,-1.3002000000000005,-0.02,-1.0,-0.19540000000000005,6.451799999999998,3.295799999999999,-10.828,0,1,0,100.0
2,57.0,1,20.0,1.0,6,2,-3.0938500000000007,-0.0017550000000000011,0.014549999999999782,0.01853000000000024,35.0,28.14,0,19.0,0.0,11.0,-1.1908,-0.02,-1.0,-0.19,7.108249999999999,3.4640999999999997,-11.08555,0,1,0,100.0
2,58.0,1,20.0,1.0,6,2,-2.6044000000000023,0.0010599999999999909,0.17054000000000127,-0.3929799999999988,35.0,28.14,0,19.0,0.0,11.0,-0.8986000000000017,-0.01940000000000009,-1.0,-0.19,8.642199999999992,3.735999999999999,-11.859999999999996,0,1,0,100.0
2,59.0,1,20.0,1.0,6,2,-1.9525000000000012,0.004629999999999995,0.05970999999999992,-0.7047699999999992,35.0,28.1211,0,19.0,0.0,11.0,-0.37510000000000104,-0.01,-1.0,-0.18370000000000003,10.942199999999994,3.9540999999999995,-13.210199999999997,0,1,0,100.0
2,60.0,1,20.0,1.2,6,2,-1.572,0.0062,0.1298,-0.9488000000000001,35.0,28.11,0,19.2,0.0,11.0,-0.009999999999999995,0.0,-1.0,-0.18,12.446,4.0440000000000005,-14.064,0,1,0,100.0
2,61.0,1,20.0,1.2300000000000069,6,2,-1.2029000000000014,0.008539999999999985,0.14090999999999942,-1.2310699999999986,35.0,28.11,0,19.230000000000008,0.0,11.0,0.37479999999999836,0.007699999999999932,-1.0,-0.17230000000000006,13.961499999999994,4.215499999999999,-15.012799999999995,0,1,0,100.0
2,62.0,1,20.0,1.0,6,2,-0.8692000000000003,0.01,0.10287000000000023,-1.3522300000000003,35.0,28.11,0,19.0,0.0,11.0,0.6805999999999998,0.01,-1.0017,-0.17,15.107099999999999,4.758999999999999,-16.068099999999998,0,1,0,100.0
2,63.0,1,20.0,1.0,6,2,-0.6808000000000011,0.01,-0.04549499999999913,-1.2886450000000003,35.0,28.11,0,19.0,0.0,11.0,0.8218999999999992,0.01,-1.00955,-0.17,15.601649999999998,5.308499999999997,-16.798149999999996,0,1,0,100.0
2,64.0,1,20.0,1.0,6,2,-0.06000000000000112,0.005560000000000014,-0.1692000000000003,-0.5972000000000022,35.0,28.1244,0,19.0,0.0,11.0,1.1279999999999994,0.02,-1.0248,-0.16,15.886800000000003,8.69759999999999,-20.340399999999992,0,1,0,100.0
2,65.0,1,20.0,1.0,6,2,0.3435,0.0019,-0.1268,-0.007050000000000001,35.0,28.14,0,19.0,0.0,11.0,1.306,0.0205,-1.0305,-0.1595,14.882,12.2185,-23.2335,0,1,0,100.0
2,66.0,1,20.0,1.0,6,2,0.7736000000000013,-0.001240000000000009,-0.0957199999999998,0.3049400000000006,35.0,28.14,0,19.0,0.0,11.0,1.4448,0.03,-1.04,-0.15,12.849999999999993,17.259600000000017,-25.971000000000007,0,1,0,100.0
2,67.0,1,20.0,0.9366666666666712,6,2,1.1889999999999985,-0.002,-0.0315566666666667,0.3033266666666669,35.0,28.14,0,18.93666666666667,0.0,11.0,1.1644000000000032,0.019366666666666713,-1.0393666666666668,-0.13936666666666672,10.455366666666675,22.978533333333313,-27.15616666666667,0,1,0,100.0
2,68.0,1,20.0,0.4133333333333364,6,2,1.345999999999999,-0.002,-0.027893333333333357,0.2729733333333335,35.0,28.14,0,18.413333333333338,0.0,11.0,0.7876000000000022,0.014133333333333364,-1.0341333333333333,-0.13413333333333338,9.508133333333339,25.197466666666653,-26.711333333333336,0,1,0,100.0
2,69.0,1,20.0,1.0,6,2,2.2321999999999984,-0.002,0.017390000000000076,0.1311199999999997,35.0,28.1301,0,19.0,0.0,11.0,-3.2662999999999904,-0.05989999999999987,-1.03,-0.12,5.040800000000006,33.723699999999994,-17.478900000000028,0,1,0,100.0
2,70.0,1,20.0,1.0,6,2,2.766,-0.002,-0.009300000000000001,0.183,35.0,28.137,0,19.0,0.0,11.0,-6.633,-0.11599999999999999,-1.03,-0.12,3.382,33.195,-7.884,0,1,0,100.0
2,71.0,1,20.0,0.5299999999999955,1,5,3.2804000000000015,-0.002,0.031220000000000116,0.147,35.0,28.1071,0,19.0,0.0,12.0,-9.601400000000007,-0.17410000000000014,-1.04,-0.12,2.5195999999999987,26.983299999999975,2.4298000000000286,0,1,0,100.0
2,72.0,1,20.0,0.0,1,6,3.5470666666666655,0.011519999999999822,1.2534799999999842,0.530759999999995,35.0,28.0596,0,19.0,0.0,12.0,-10.837866666666663,-0.19693333333333324,-1.04,-0.12346666666666661,2.3430666666666666,21.482800000000033,7.675866666666642,0,1,0,100.0
2,73.0,1,20.0,0.0,1,6,3.693599999999999,0.03192999999999988,3.07781999999999,1.1100899999999967,35.0,28.0439,0,19.0,0.0,12.0,-11.408299999999997,-0.20739999999999995,-1.04,-0.12869999999999998,2.3326000000000002,17.66770000000002,10.522799999999984,0,1,0,100.0
2,74.0,1,20.0,0.0,1,6,4.2954,0.16442999999999994,1.9417000000000009,2.662079999999999,35.0,27.93,0,19.0,0.0,12.0,-11.348200000000002,-0.20820000000000005,-1.03,-0.15089999999999998,3.22,-6.430099999999989,21.406599999999997,0,1,0,100.0
2,75.0,1,20.0,0.0,1,6,4.342499999999999,0.185625,1.6512499999999999,2.907,35.0,27.93,0,19.0,0.0,12.0,-10.5475,-0.1925,-1.03,-0.15875,3.22,-10.26875,22.772499999999997,0,1,0,100.0
2,76.0,1,20.0,0.0,1,6,4.211999999999999,0.23348000000000008,1.00944,3.68852,35.0,27.8504,0,19.0,0.0,12.0,-6.9955999999999925,-0.12039999999999987,-1.0168,-0.18320000000000003,1.6459999999999944,-15.082400000000002,25.479600000000005,0,1,0,100.0
2,77.0,1,20.0,0.0,1,6,4.016550000000001,0.24833999999999992,0.8794000000000018,3.8557549999999976,35.0,27.8122,0,19.0,0.0,12.0,-5.103500000000012,-0.08665000000000021,-1.0055500000000002,-0.19444999999999993,0.15360000000001034,-14.871900000000005,26.308149999999998,0,1,0,100.0
2,78.0,1,20.0,0.0,1,6,3.5694000000000012,0.26392,0.41727333333333355,4.275313333333332,35.0,27.7854,0,19.0,0.0,12.0,-2.1878000000000055,-0.03540000000000009,-0.99,-0.2115333333333333,-2.734399999999994,-13.607333333333337,27.3436,0,1,0,100.0
2,79.0,1,20.0,0.0,1,6,3.3967000000000005,0.26706,0.37383666666666676,4.5050566666666665,35.0,27.7697,0,19.0,0.0,12.0,-1.2929000000000026,-0.019700000000000047,-0.99,-0.21676666666666666,-3.739199999999997,-13.188666666666668,27.5948,0,1,0,100.0
2,80.0,1,20.0,0.0,3,7,2.236,0.27940000000000004,0.1792,4.7386,35.0,27.736,0,19.0,0.0,12.0,3.7039999999999997,0.062000000000000006,-0.964,-0.226,-9.738,-11.036,27.952,0,1,0,100.0
2,81.0,1,20.0,0.0,3,7,1.790899999999999,0.28217,0.1832350000000002,4.730265,35.0,27.72,0,19.0,0.0,12.0,5.327700000000004,0.08755000000000007,-0.9541499999999999,-0.23,-11.859450000000004,-10.158399999999999,27.436349999999997,0,1,0,100.0
2,82.0,1,20.0,0.2600000000000136,3,7,0.7648000000000066,0.28673999999999994,0.11442000000000092,4.836819999999998,35.0,27.72,0,19.260000000000012,0.0,12.0,8.427199999999983,0.14219999999999958,-0.9426000000000001,-0.22,-16.52359999999997,-7.660200000000017,24.91520000000002,0,1,0,100.0
2,83.0,1,20.0,0.0,3,7,0.0887000000000021,0.287,0.016830000000000064,4.80224,35.0,27.7262,0,19.0,0.0,12.0,9.916249999999998,0.16154999999999997,-0.94,-0.21845000000000003,-19.36434999999999,-5.917250000000005,22.24970000000001,0,1,0,100.0
2,84.0,1,20.0,0.0,3,7,-0.2723999999999989,0.287,0.0058400000000000335,4.6515200000000005,35.0,27.7576,0,19.0,0.0,12.0,10.504999999999999,0.1694,-0.94,-0.2106,-20.753799999999995,-5.093000000000003,20.475600000000004,0,1,0,100.0
2,85.0,1,20.0,0.0,3,7,-1.3645,0.27380000000000004,-0.95225,5.03475,35.0,27.79,0,19.0,0.0,12.0,10.866999999999999,0.18,-0.9544999999999999,-0.181,-21.9555,-6.449,13.288499999999999,0,1,0,100.0
2,86.0,1,20.0,1.0,3,7,-1.9633000000000007,0.2396299999999999,-1.9196100000000025,5.366510000000001,35.0,27.7911,0,20.0,0.0,12.0,10.041999999999998,0.1699,-0.9702000000000001,-0.14979999999999996,-19.766899999999993,-11.61270000000001,8.201999999999995,0,1,0,100.0
2,87.0,1,20.0,1.0,3,7,-2.222349999999998,0.21058500000000027,-2.752494999999993,5.485044999999999,35.0,27.87745,0,20.0,0.0,12.0,9.414000000000005,0.16205000000000008,-0.9858999999999999,-0.13410000000000014,-17.953550000000018,-14.96464999999997,6.004000000000019,0,1,0,100.0
2,88.0,1,20.0,0.0,3,7,-2.8411999999999993,0.07288000000000029,-5.7669333333333315,3.473480000000004,35.0,28.2516,0,19.0,0.0,12.0,7.4936000000000025,0.1389333333333334,-1.0210666666666666,-0.0789333333333334,-12.248933333333339,-21.219866666666668,3.7054666666666614,0,1,0,100.0
2,89.0,1,20.0,0.0,3,7,-2.9511,0.022640000000000143,-6.188216666666666,2.771690000000002,35.0,28.267300000000002,0,19.0,0.0,12.0,7.038300000000001,0.1284666666666667,-1.0315333333333334,-0.0684666666666667,-11.060966666666669,-21.120433333333335,4.642233333333331,0,1,0,100.0
2,90.0,1,20.0,0.0,3,7,-3.38,-0.1955,-2.6724,-0.5376,35.0,28.11,0,19.0,0.0,12.0,5.1579999999999995,0.097,-1.053,-0.04,-5.672000000000001,-15.574,14.82,0,1,0,100.0
2,91.0,1,20.0,0.0,3,7,-3.5196,-0.213,0.12373000000000403,-0.5138499999999967,35.0,28.1361,0,19.0,0.0,12.0,4.536799999999999,0.08129999999999996,-1.06,-0.04,-2.7604999999999915,-10.709999999999987,21.72920000000002,0,1,0,100.0
2,92.0,1,20.0,0.0,3,7,-3.6153999999999997,-0.20434000000000002,0.38804000000000527,0.19237999999999741,35.0,28.14,0,19.0,0.0,12.0,4.039800000000003,0.07780000000000008,-1.06,-0.052199999999999934,-0.559600000000009,-7.407600000000013,25.908599999999986,0,1,0,100.0
2,93.0,1,20.0,0.0,3,7,-3.6705999999999994,-0.20203,-0.21136999999999967,0.48793000000000003,35.0,28.1397,0,19.0,0.0,12.0,3.714700000000005,0.0699000000000001,-1.06,-0.06,0.4781999999999925,-5.895700000000013,27.58229999999999,0,1,0,100.0
2,94.0,1,20.0,0.0,3,7,-3.7763999999999998,-0.20789999999999997,-0.33093999999999935,0.49723999999999985,35.0,28.1274,0,19.0,0.0,12.0,2.7840000000000034,0.05420000000000005,-1.0542,-0.06579999999999996,1.5103999999999982,-3.853600000000005,29.101599999999998,0,1,0,100.0
2,95.0,1,20.0,0.0,3,7,-3.8675,-0.211725,-0.2714,0.4469,35.0,28.14,0,19.0,0.0,12.0,1.97825,0.0385,-1.05,-0.07575,1.71025,-2.9055,29.2625,0,1,0,100.0
2,96.0,1,20.0,0.0,3,7,-4.2311999999999985,-0.20748000000000005,0.4339999999999977,0.2935200000000004,35.0,28.14,0,19.0,0.0,12.0,-1.1543999999999883,-0.02079999999999973,-1.03,-0.10359999999999991,1.380800000000002,-1.118000000000004,26.44640000000002,0,1,0,100.0
2,97.0,1,20.0,0.0,3,7,-4.603799999999997,-0.18910000000000013,0.7366000000000008,0.3704699999999981,35.0,28.11,0,19.0,0.0,12.0,-3.6582999999999823,-0.06579999999999972,-1.0171000000000001,-0.12289999999999986,0.989400000000002,-0.4549000000000026,21.550400000000042,0,1,0,100.0
2,98.0,1,20.0,0.859999999999991,3,7,-4.9663999999999975,-0.17512000000000005,0.5503800000000015,0.37740000000000096,35.0,28.1358,0,19.859999999999992,0.0,12.0,-5.56619999999999,-0.09719999999999983,-1.01,-0.13859999999999992,0.8986,-0.24260000000000084,16.102400000000035,0,1,0,100.0
2,99.0,1,20.0,1.0,3,7,-5.128699999999999,-0.16923333333333335,0.635203333333333,0.3181466666666668,35.0,28.14,0,20.0,0.0,12.0,-6.225733333333332,-0.1095333333333333,-1.0052333333333334,-0.14476666666666665,1.0000999999999998,-0.23,13.71193333333334,0,1,0,100.0
2,100.0,1,20.0,0.0,3,7,-5.82,-0.142,0.698,0.411,35.0,28.14,0,19.0,0.0,12.0,-8.38,-0.15,-0.99,-0.16,2.14,-0.45,3.44,0,1,0,100.0
18,0.0,1,20.0,0.0,0,1,-0.4,0.078,-4.98,5.868,35.0,28.04,0,19.0,0.0,27.0,13.62,0.25,-1.02,-0.07,-10.9,-26.8,2.36,0,1,0,100.0
18,1.0,1,20.0,0.7899999999999999,0,1,-1.3891,-0.14746,-6.134730000000004,0.0,35.0,28.1484,0,10.79,0.0,27.0,12.067599999999999,0.2221,-1.04,-0.0679,-7.5451,-12.429000000000002,7.2424,0,1,0,100.0
18,2.0,1,20.0,0.2100000000000001,0,1,-1.6396,-0.13568,1.03348,0.0,35.0,28.14,0,10.21,0.0,27.0,11.4997,0.21209999999999998,-1.0479,-0.07,-6.1482,-5.505300000000001,10.9288,0,1,0,100.0
18,3.0,1,20.0,0.1849999999999998,0,1,-2.0284999999999997,-0.14359,-0.6203649999999998,0.0,35.0,28.14,0,10.185,0.0,27.0,9.9794,0.18630000000000002,-1.05,-0.09185,-3.1772,7.808199999999999,18.562849999999997,0,1,0,100.0
18,4.0,1,20.0,1.0,0,1,-2.1212,-0.15803999999999999,-1.27248,0.0,35.0,28.14,0,11.0,0.0,27.0,9.2208,0.16840000000000002,-1.0484,-0.1016,-2.3608000000000002,11.2496,21.0772,0,1,0,100.0
18,5.0,1,20.0,1.0,0,1,-2.237,-0.18445,-0.22749999999999998,0.0,35.0,28.14,0,11.0,0.0,27.0,7.502,0.14100000000000001,-1.04,-0.1195,-1.422,14.8915,25.143,0,1,0,100.0
18,6.0,1,20.0,0.2600000000000008,0,1,-2.3944,-0.16964,1.0694599999999996,0.0,35.74,28.14,0,10.260000000000002,0.0,27.0,3.5908000000000015,0.06780000000000003,-1.0226,-0.1374,-0.6672000000000001,15.3474,27.0134,0,1,0,100.0
18,7.0,1,20.0,0.0,0,1,-2.4712,-0.15146500000000002,1.0257,0.0,36.0,28.14,0,10.0,0.0,27.0,1.9407000000000014,0.03705000000000002,-1.02,-0.14,-0.4646500000000002,14.523850000000001,25.38355,0,1,0,100.0
18,8.0,1,20.0,1.0,0,1,-2.7349333333333337,-0.12193333333333334,0.5031999999999999,0.0,36.0,28.14,0,11.0,0.0,27.0,-1.5843999999999996,-0.032133333333333326,-1.0,-0.15106666666666665,-0.026533333333333416,11.643866666666666,17.4264,0,1,0,100.0
18,9.0,1,20.0,1.0,0,1,-2.8184666666666667,-0.11596666666666668,0.6106,0.0,36.0,28.14,0,11.0,0.0,27.0,-2.3362,-0.044066666666666664,-1.0,-0.15703333333333333,0.1047333333333333,10.826433333333334,14.7772,0,1,0,100.0
18,10.0,1,20.0,1.0,0,1,-3.3,-0.0915,0.623,0.0,36.0,28.14,0,11.0,0.0,27.0,-4.878,-0.0845,-0.99,-0.17,0.9065000000000001,7.2935,2.356,0,1,0,100.0
18,11.0,1,20.0,0.0,0,1,-3.7410999999999994,-0.07079000000000002,0.6315699999999997,0.0,36.0,28.14,0,10.0,0.0,27.0,-5.870099999999999,-0.1,-0.99,-0.17,1.8580999999999988,4.917600000000002,-6.490899999999992,0,1,0,100.0
18,12.0,1,20.0,0.0,0,1,-3.9406,-0.05986000000000001,0.8528999999999999,0.0,36.0,28.14,0,10.0,0.0,27.0,-6.071,-0.1074,-0.99,-0.1774,2.4243999999999994,3.9984000000000006,-10.037199999999997,0,1,0,100.0
18,13.0,1,20.0,0.0,0,1,-4.255249999999999,-0.03801500000000001,0.8372649999999998,0.0,36.0,28.14,0,10.0,0.0,27.0,-6.12825,-0.11,-0.99,-0.18,3.6217999999999995,2.6109000000000004,-15.628949999999998,0,1,0,100.0
18,14.0,1,20.0,0.0,0,1,-4.523,-0.008220000000000043,0.9398800000000008,0.0,36.0,28.14,0,10.0,0.0,27.0,-5.763200000000001,-0.1,-0.99,-0.18,5.4945999999999975,1.2630000000000017,-21.84099999999999,0,1,0,100.0
18,15.0,1,20.0,0.0,0,1,-4.57425,0.0091,0.875125,0.0,36.0,28.14,0,10.0,0.0,27.0,-5.3555,-0.09575,-0.99,-0.18,6.7665,0.66575,-25.02325,0,1,0,100.0
18,16.0,1,20.0,0.0,0,1,-4.5608,0.02495999999999997,0.8673600000000009,0.0,36.0,28.14,0,10.0,0.0,27.0,-4.910400000000001,-0.08360000000000002,-0.99,-0.18,8.014799999999997,0.20600000000000082,-27.773599999999995,0,1,0,100.0
18,17.0,1,20.0,0.0,0,1,-4.3942000000000005,0.05543999999999996,0.9580200000000009,0.0,36.0,28.14,0,10.0,0.0,27.0,-3.9696500000000015,-0.07285000000000003,-0.99715,-0.17285000000000003,10.440899999999997,-0.3401499999999995,-32.503099999999996,0,1,0,100.0
18,18.0,1,20.0,0.0,0,1,-4.1538,0.07873999999999998,1.1684200000000002,0.0,36.0,28.14,0,10.0,0.0,27.0,-3.1968000000000005,-0.05780000000000001,-1.0,-0.17,12.4216,-0.4128000000000003,-36.224199999999996,0,1,0,100.0
18,19.0,1,20.0,0.0,0,1,-3.426500000000001,0.09786000000000006,-0.5898799999999976,0.0,36.0,28.14,0,10.0,0.0,27.0,-1.543900000000002,-0.029900000000000034,-1.0101,-0.17,15.3851,1.8284999999999938,-43.23939999999999,0,1,0,100.0
18,20.0,1,20.0,0.0,0,1,-2.92,0.07440000000000001,-1.4878,0.0,36.0,28.14,0,10.0,0.0,27.0,-0.704,-0.016,-1.028,-0.17,15.934000000000001,4.656000000000001,-45.668,0,1,0,100.0
18,21.0,1,20.0,0.0,6,2,-1.9568000000000012,0.015480000000000065,-1.90559,0.0,36.0,28.14,0,10.0,0.0,27.0,0.5680999999999987,0.005899999999999977,-1.0559,-0.16,15.198000000000002,11.452999999999992,-46.753,0,1,0,100.0
18,22.0,1,20.0,0.0,6,2,-1.5162000000000009,-0.003359999999999976,-2.0380199999999995,0.15501999999999952,36.0,28.1262,0,13.679999999999987,0.0,27.0,1.0675999999999992,0.019199999999999967,-1.06,-0.16,14.281200000000002,14.929599999999994,-46.128600000000006,0,1,0,100.0
18,23.0,1,20.0,0.0,6,2,-0.5580000000000007,-0.009660000000000002,0.16957000000000008,0.8158000000000001,36.0,28.11,0,18.0,0.0,27.0,1.7198,0.03,-1.0583,-0.15,11.472600000000002,23.082199999999993,-43.24700000000001,0,1,0,100.0
18,24.0,1,20.0,0.0,6,2,0.5447999999999977,-0.006080000000000007,0.17887999999999973,0.5442400000000008,36.0,28.1388,0,18.0,0.0,27.0,0.9788000000000024,0.020400000000000036,-1.0404,-0.14040000000000005,7.057200000000009,33.79919999999998,-36.481600000000014,0,1,0,100.0
18,25.0,1,20.0,1.0,6,2,2.137499999999998,-0.005,-0.03324999999999991,0.5487500000000001,36.0,28.12875,0,19.0,0.0,27.0,-3.5137499999999933,-0.06499999999999989,-1.02625,-0.13,-0.12749999999999184,47.79499999999999,-18.071250000000028,0,1,0,100.0
18,26.0,1,20.0,1.0,6,2,2.9009999999999985,-0.005539999999999998,-0.04174000000000004,0.5818599999999998,36.0,28.1262,0,19.0,0.0,27.0,-6.457799999999994,-0.1169999999999999,-1.02,-0.1354,-3.2075999999999945,51.446,-6.854800000000022,0,1,0,100.0
18,27.0,1,20.0,1.0,6,2,3.6122999999999985,-0.006,0.012884999999999846,0.607005,36.0,28.14,0,19.0,0.0,27.0,-9.202749999999995,-0.16659999999999991,-1.02,-0.14,-5.659999999999996,51.788000000000004,4.107249999999978,0,1,0,100.0
18,28.0,1,20.0,1.0,6,2,4.951599999999997,-0.006,-0.022479999999999802,0.6057199999999998,36.0,28.136400000000002,0,19.0,0.0,27.0,-13.291599999999995,-0.24119999999999991,-1.0211999999999999,-0.15,-9.087599999999995,41.21280000000005,24.853999999999957,0,1,0,100.0
18,29.0,1,20.0,1.0,6,2,5.630299999999997,-0.006,-0.06437999999999984,0.6511999999999999,36.0,28.1373,0,19.0,0.0,27.0,-13.9355,-0.25909999999999994,-1.03,-0.1590999999999999,-10.121299999999996,26.952400000000075,35.88239999999995,0,1,0,100.0
18,30.0,1,20.0,1.0,6,2,5.977666666666667,-0.0057666666666666665,0.0232,0.5996666666666667,36.0,28.117,0,19.0,0.0,27.0,-12.159666666666666,-0.22533333333333333,-1.0423333333333333,-0.17233333333333334,-10.552666666666667,9.074333333333334,45.91866666666667,0,1,0,100.0
18,31.0,1,20.0,1.0,6,2,5.9717,-0.005170000000000001,0.033939999999999984,0.6115999999999999,36.0,28.134900000000002,0,19.0,0.0,27.0,-11.366100000000001,-0.2134,-1.0483,-0.1783,-10.6362,5.428700000000004,47.935399999999994,0,1,0,100.0
18,32.0,1,20.0,1.0,6,2,5.8804,-0.005,0.006280000000000104,0.60028,36.0,28.1208,0,19.0,0.0,27.0,-10.122400000000004,-0.19080000000000005,-1.05,-0.18,-10.832799999999999,1.4268000000000105,50.289199999999994,0,1,0,100.0
18,33.0,1,20.0,1.0,6,2,4.1369000000000025,-0.006,-0.04671000000000032,0.665875,36.0,28.11,0,19.0,0.0,27.0,-1.9321000000000066,-0.038600000000000134,-1.01965,-0.19,-14.122349999999996,-7.262599999999999,55.587450000000004,0,1,0,100.0
18,34.0,1,20.0,1.0,6,2,3.546200000000003,-0.006,0.03741999999999957,0.6882499999999998,36.0,28.11,0,19.0,0.0,27.0,-0.19580000000000877,-0.002800000000000182,-1.0107000000000002,-0.19,-15.205299999999994,-7.584799999999999,54.7551,0,1,0,100.0
18,35.0,1,20.0,1.0,6,2,1.71025,-0.007325,-0.08937500000000001,0.86395,36.0,28.11,0,19.0,0.0,27.0,4.19925,0.06974999999999999,-0.98675,-0.19,-18.1535,-8.32025,48.93,0,1,0,100.0
18,36.0,1,20.0,1.0,6,2,0.7672000000000019,-0.008439999999999998,-0.12416000000000009,1.0371599999999996,36.0,28.11,0,19.0,0.0,27.0,6.008799999999996,0.10319999999999993,-0.9756,-0.18560000000000001,-19.429599999999997,-8.776799999999998,44.586000000000006,0,1,0,100.0
18,37.0,1,20.0,1.0,6,2,-0.792399999999996,-0.010229999999999996,-0.08437999999999997,1.2571599999999992,36.0,28.11,0,19.0,0.0,27.0,8.413799999999995,0.14229999999999995,-0.9577,-0.17,-21.201699999999995,-9.800199999999997,35.95030000000002,0,1,0,100.0
18,38.0,1,20.0,1.0,6,2,-3.157899999999997,-0.020099999999999965,-0.6990399999999996,2.887099999999996,36.0,27.9986,0,19.0,0.0,27.0,9.914400000000002,0.16990000000000005,-0.9501,-0.15990000000000004,-22.080900000000003,-13.51269999999999,20.40180000000002,0,1,0,100.0
18,39.0,1,20.0,1.0,6,2,-3.8649499999999963,-0.029049999999999954,-0.7921199999999996,3.9700499999999943,36.0,27.8733,0,19.0,0.0,27.0,9.413200000000002,0.16095000000000004,-0.95905,-0.15095000000000003,-21.266450000000003,-16.439349999999987,15.192900000000026,0,1,0,100.0
18,40.0,1,20.0,1.0,6,2,-5.47,-0.0528,-0.46720000000000006,6.6792,36.0,27.426000000000002,0,19.0,0.0,27.0,7.116,0.126,-0.992,-0.118,-17.374000000000002,-25.726000000000003,2.306,0,1,0,100.0
18,41.0,1,20.0,1.0,6,2,-5.827999999999999,-0.05518666666666666,-0.19631333333333367,6.796146666666667,36.0,27.384233333333334,0,19.0,0.0,27.0,6.477566666666667,0.11406666666666668,-0.9979666666666667,-0.11203333333333335,-16.16276666666667,-27.8024,-0.778766666666663,0,1,0,100.0
18,42.0,1,20.0,1.0,6,2,-7.122399999999999,-0.05382000000000001,0.09407999999999997,6.348960000000001,36.0,27.4413,0,19.0,0.0,27.0,4.114700000000002,0.07410000000000003,-1.0459,-0.07410000000000003,-11.169100000000004,-32.097699999999996,-12.546499999999993,0,1,0,100.0
18,43.0,1,20.0,1.0300000000000067,6,2,-7.7242999999999995,-0.051030000000000006,0.06863999999999992,6.12406,36.0,27.47,0,19.03000000000001,0.0,27.0,2.843800000000003,0.05030000000000007,-1.0697,-0.07,-8.114800000000008,-29.62860000000001,-18.13869999999999,0,1,0,100.0
18,44.0,1,20.0,1.8799999999999955,6,2,-7.8267999999999995,-0.051,0.012680000000000293,6.09936,36.0,27.47,0,19.879999999999995,0.0,27.0,2.460400000000002,0.05,-1.07,-0.07,-7.138400000000004,-27.72320000000001,-18.981999999999996,0,1,0,100.0
18,45.0,1,20.0,2.0,6,2,-7.839,-0.051,0.05429999999999993,6.129425,36.0,27.479,0,20.0,0.0,27.0,1.7022500000000025,0.032250000000000056,-1.07,-0.08,-5.3380000000000045,-23.129250000000013,-18.881250000000005,0,1,0,100.0
18,46.0,1,20.0,1.0,6,2,-7.4786,-0.04932000000000001,0.11798,5.95038,36.0,27.523600000000002,0,19.0,0.0,27.0,0.5400000000000011,0.0066000000000000225,-1.0566,-0.10339999999999998,-3.626800000000001,-16.623600000000007,-16.449400000000004,0,1,0,100.0
18,47.0,1,20.0,1.0,6,2,-7.187450000000001,-0.04687,0.17984499999999976,5.598800000000001,36.0,27.58955,0,19.0,0.0,27.0,-0.07814999999999887,-0.005649999999999977,-1.05,-0.11564999999999998,-3.100950000000001,-13.672250000000005,-15.187600000000002,0,1,0,100.0
18,48.0,1,20.0,1.0,6,2,-6.628200000000001,-0.04162000000000001,0.1965400000000002,4.975040000000001,36.0,27.7222,0,19.0,0.0,27.0,-1.0215999999999985,-0.014599999999999965,-1.04,-0.13459999999999997,-2.572600000000001,-9.501600000000007,-13.728600000000002,0,1,0,100.0
18,49.0,1,20.0,1.0,6,2,-6.208600000000003,-0.03858000000000002,0.14202000000000034,4.627160000000002,36.0,27.781299999999998,0,19.0,0.0,27.0,-1.5468999999999964,-0.02709999999999991,-1.0329000000000002,-0.14,-2.3706000000000014,-7.093600000000016,-13.083400000000005,0,1,0,100.0
18,50.0,1,20.0,1.0,6,2,-5.5800000000000045,-0.036000000000000025,0.10350000000000026,4.219000000000002,36.0,27.81,0,19.0,0.0,27.0,-2.0849999999999973,-0.04,-1.02,-0.1549999999999999,-2.1500000000000012,-4.225000000000016,-12.370000000000005,0,1,0,100.0
18,51.0,1,20.0,1.0,6,2,-4.578500000000001,-0.03271,0.07456000000000008,3.8303100000000003,36.0,27.86,0,19.0,0.0,27.0,-2.4616000000000002,-0.04,-1.01,-0.17289999999999997,-1.7091000000000005,-1.047700000000002,-11.155000000000001,0,1,0,100.0
18,52.0,1,20.0,1.0,6,2,-4.146400000000001,-0.030920000000000003,0.07869999999999988,3.6220400000000006,36.0,27.8816,0,19.0,0.0,27.0,-2.4954,-0.04,-1.0046,-0.18,-1.4250000000000007,-0.03580000000000168,-10.535400000000001,0,1,0,100.0
18,53.0,1,20.0,1.0,6,2,-3.390300000000002,-0.026260000000000012,0.20131999999999975,3.0938800000000013,36.0,27.93,0,19.0,0.0,27.0,-2.4726000000000004,-0.04,-1.0,-0.18869999999999992,-0.6520000000000027,1.3536999999999966,-9.555500000000002,0,1,0,100.0
18,54.0,1,20.0,1.0,6,2,-3.184000000000001,-0.02489333333333334,0.1639466666666669,2.9564600000000008,36.0,27.952133333333332,0,19.0,0.0,27.0,-2.4589333333333334,-0.04,-1.0,-0.19,-0.3233333333333348,1.6468666666666654,-9.366133333333334,0,1,0,100.0
18,55.0,1,20.0,1.0,6,2,-2.638500000000003,-0.02255000000000001,0.10804999999999922,2.614750000000003,36.0,28.0,0,19.0,0.0,27.0,-2.431,-0.04,-1.0,-0.1944999999999999,0.8284999999999917,2.262499999999997,-9.1245,0,1,0,100.0
18,56.0,1,20.0,1.0,6,2,-1.9348000000000032,-0.01628000000000004,0.1587200000000003,1.881080000000005,36.0,28.0472,0,19.0,0.0,27.0,-2.298400000000001,-0.04,-1.0,-0.2,3.180799999999987,2.8331999999999975,-9.670799999999995,0,1,0,100.0
18,57.0,1,20.0,1.0,6,2,-1.6467000000000005,-0.012455000000000006,0.17650499999999983,1.4405950000000007,36.0,28.0906,0,19.0,0.0,27.0,-2.1682,-0.04,-1.0,-0.2,4.364099999999998,3.0626999999999995,-10.262949999999998,0,1,0,100.0
18,58.0,1,20.0,1.0,6,2,-1.3760000000000037,-0.009360000000000035,0.21555999999999986,1.0040200000000061,36.0,28.11,0,19.0,0.0,27.0,-1.9952000000000025,-0.03180000000000018,-1.0,-0.2,5.598999999999982,3.3057999999999965,-11.03659999999999,0,1,0,100.0
18,59.0,1,20.0,1.0,6,2,-1.0241000000000016,-0.005390000000000009,0.13662000000000143,0.4885500000000013,36.0,28.1217,0,19.0,0.0,27.0,-1.671900000000002,-0.03,-1.0,-0.2,7.42879999999999,3.696399999999998,-12.323599999999992,0,1,0,100.0
18,60.0,1,20.0,1.3,6,2,-0.634,-0.0023,0.07369999999999999,0.0728,36.0,28.131,0,19.3,0.0,27.0,-1.12,-0.02,-1.0,-0.2,9.874,4.287,-13.835999999999999,0,1,0,100.0
18,61.0,1,20.0,2.0,6,2,-0.17580000000000245,0.00037999999999997275,0.06525000000000035,-0.25818999999999726,36.0,28.11,0,20.0,0.0,27.0,-0.24780000000000518,-0.008100000000000137,-1.0,-0.18810000000000013,12.841399999999986,5.124599999999995,-15.081299999999995,0,1,0,100.0
18,62.0,1,20.0,2.0,6,2,0.06309999999999957,0.002489999999999998,0.059699999999999934,-0.4974399999999996,36.0,28.11,0,20.0,0.0,27.0,0.24129999999999915,0.004899999999999977,-1.0,-0.18,14.145899999999997,5.5764,-15.3882,0,1,0,100.0
18,63.0,1,20.0,2.0,6,2,0.3062999999999965,0.0037699999999999817,0.14583999999999833,-0.7117499999999968,36.0,28.11,0,20.0,0.0,27.0,0.7071999999999935,0.01,-1.0,-0.1723000000000002,15.141299999999989,6.129599999999991,-15.572399999999998,0,1,0,100.0
18,64.0,1,20.0,2.0,6,2,0.6675999999999981,0.005,0.03140000000000077,-0.6966400000000009,36.0,28.11,0,20.0,0.0,27.0,1.3727999999999965,0.025599999999999908,-1.0,-0.17,15.712399999999999,7.817199999999987,-15.739199999999999,0,1,0,100.0
18,65.0,1,20.0,2.0,6,2,1.2285,0.001475,-0.21532500000000002,0.075825,36.0,28.13475,0,19.0,0.0,27.0,2.41525,0.04175,-1.01,-0.17,14.23975,14.31075,-15.60225,0,1,0,100.0
18,66.0,1,20.0,1.0,6,2,1.6660999999999984,-0.004139999999999987,-0.13055999999999995,0.8674999999999996,36.0,28.11,0,18.0,0.0,27.0,3.253599999999997,0.06069999999999993,-1.01,-0.17069999999999994,10.77330000000002,24.303699999999946,-14.610900000000008,0,1,0,100.0
18,67.0,1,20.0,1.0,6,2,1.8719499999999993,-0.005929999999999996,-0.13771999999999998,0.9122499999999999,36.0,28.11,0,18.0,0.0,27.0,3.683199999999999,0.06964999999999999,-1.01,-0.17964999999999998,8.258350000000007,31.383149999999983,-13.599550000000002,0,1,0,100.0
18,68.0,1,20.0,1.0,6,2,2.216399999999998,-0.008,-0.11016000000000131,0.9264000000000006,36.0,28.11,0,18.0,0.0,27.0,4.2895999999999965,0.07359999999999992,-1.01,-0.17640000000000008,3.3392000000000346,46.42519999999988,-10.781600000000024,0,1,0,100.0
18,69.0,1,20.0,1.0,6,2,2.747499999999998,-0.007,0.018399999999999635,0.7985300000000009,36.0,28.11,0,18.0,0.0,27.0,4.649000000000001,0.08,-1.02,-0.1649000000000001,-4.386899999999971,76.67749999999987,-3.115000000000041,0,1,0,100.0
18,70.0,1,20.0,0.85,1,5,3.3714999999999997,-0.006,0.0326,0.7063999999999999,36.0,28.125,0,18.0,0.0,28.0,3.286,0.056999999999999995,-1.0315,-0.11699999999999999,-10.262500000000001,112.451,9.993,0,1,0,100.0
18,71.0,1,20.0,0.0,1,6,3.736749999999999,0.03306999999999968,3.2324350000000033,1.8328349999999953,36.0,27.9682,0,18.0,0.0,28.0,1.420850000000006,0.029100000000000136,-1.0395500000000002,-0.07955000000000007,-10.574650000000009,123.41275,17.470449999999985,0,1,0,100.0
18,72.0,1,20.0,0.0,1,6,3.8709999999999996,0.07423999999999989,2.823420000000001,2.4262199999999985,36.0,27.9324,0,18.0,0.0,28.0,0.642200000000002,0.011200000000000048,-1.0306,-0.07060000000000002,-9.473800000000002,122.473,19.269399999999997,0,1,0,100.0
18,73.0,1,20.0,0.0,3,7,4.083399999999999,0.16074999999999956,1.689750000000007,3.6465199999999935,36.0,27.83,0,18.66999999999998,0.0,28.0,-0.015800000000004717,0.0,-1.0133,-0.033300000000000184,-3.264700000000047,104.57270000000015,18.495400000000025,0,1,0,100.0
18,74.0,1,20.0,0.0,3,7,4.0754,0.18505999999999992,1.4513900000000008,3.77349,36.0,27.8008,0,19.0,0.0,28.0,0.5736999999999968,0.007299999999999955,-1.01,-0.022700000000000047,-0.5996000000000115,96.30740000000003,16.696800000000007,0,1,0,100.0
18,75.0,1,20.0,0.0,3,7,3.8825,0.21962500000000001,0.567625,4.291625,36.0,27.794999999999998,0,19.0,0.0,28.0,3.08,0.052500000000000005,-0.98875,-0.03125,3.77125,83.11250000000001,12.005,0,1,0,100.0
18,76.0,1,20.0,0.0,3,7,3.756600000000001,0.22398,0.19638000000000158,4.470520000000002,36.0,27.830599999999997,0,19.0,0.0,28.0,4.1525999999999925,0.07039999999999987,-0.9798,-0.04019999999999993,4.556399999999997,80.28180000000002,10.398400000000011,0,1,0,100.0
18,77.0,1,20.0,0.0,3,7,3.6044500000000004,0.223085,-0.010364999999999486,4.135790000000001,36.0,27.85745,0,19.0,0.0,28.0,5.163949999999997,0.08829999999999995,-0.97085,-0.04914999999999998,4.8427999999999995,78.12485000000001,8.984300000000003,0,1,0,100.0
18,78.0,1,20.0,0.0,3,7,2.8660000000000037,0.18646000000000032,-1.0155599999999982,2.8546200000000055,36.0,28.0434,0,19.0,0.0,28.0,7.951399999999992,0.13,-0.9438000000000001,-0.11619999999999982,2.5322000000000218,67.76660000000007,5.441000000000008,0,1,0,100.0
18,79.0,1,20.0,0.0,3,7,2.656050000000001,0.16801500000000008,-1.1639149999999991,2.4004850000000024,36.0,28.07,0,19.0,0.0,28.0,8.37675,0.13704999999999998,-0.9329500000000001,-0.1340999999999999,1.0648000000000066,63.70280000000002,5.136050000000001,0,1,0,100.0
18,80.0,1,20.0,0.0,3,7,2.24,0.12513333333333335,-1.0830666666666668,1.5872666666666668,36.0,28.11,0,19.0,0.0,28.0,8.841333333333333,0.14,-0.93,-0.1706666666666667,-3.0346666666666664,54.91466666666667,5.3773333333333335,0,1,0,100.0
18,81.0,1,20.0,0.0,3,7,2.150500000000001,0.11737666666666673,-0.8957133333333348,1.4196033333333347,36.0,28.11,0,19.0,0.0,28.0,8.853266666666666,0.14,-0.93,-0.17663333333333328,-4.239933333333324,52.98743333333335,5.532466666666665,0,1,0,100.0
18,82.0,1,20.0,0.0,3,7,1.8249000000000002,0.09505000000000001,-0.23360000000000014,1.28292,36.0,28.11,0,19.0,0.0,28.0,8.2894,0.13610000000000003,-0.93,-0.2,-9.709599999999996,45.15610000000001,5.612500000000001,0,1,0,100.0
18,83.0,1,20.0,0.0,3,7,1.665800000000001,0.08116000000000022,-0.7797199999999892,1.6709199999999935,36.0,28.11,0,19.0,0.0,28.0,6.137800000000026,0.10290000000000055,-0.9513999999999996,-0.1943000000000002,-11.434500000000002,36.1920000000001,4.75650000000001,0,1,0,100.0
18,84.0,1,20.0,0.6799999999999955,3,7,1.6060000000000003,0.06444000000000008,-1.1536399999999993,1.7628000000000004,36.0,28.11,0,19.679999999999996,0.0,28.0,4.388000000000007,0.07640000000000009,-0.9667999999999999,-0.18320000000000003,-10.717200000000004,29.586000000000027,4.071200000000003,0,1,0,100.0
18,85.0,1,20.0,0.8500000000000227,3,7,1.5555000000000008,0.034250000000000565,-1.4724499999999998,1.4630500000000144,36.0,28.14,0,19.850000000000023,0.0,28.0,2.1370000000000275,0.037000000000000456,-0.9929999999999995,-0.16700000000000045,-8.815500000000032,20.519000000000123,3.304500000000004,0,1,0,100.0
18,86.0,1,20.0,0.0,3,7,1.5159000000000002,0.0003100000000001829,-1.6521899999999976,0.7012800000000032,36.0,28.14,0,19.0,0.0,28.0,0.695800000000006,0.010600000000000137,-1.0147,-0.14060000000000014,-6.984300000000009,14.076500000000028,3.300999999999998,0,1,0,100.0
18,87.0,1,20.0,0.0,3,7,1.44905,-0.05709499999999999,-0.365420000000002,-0.11300999999999983,36.0,28.12095,0,19.0,0.0,28.0,-0.27875000000000055,-0.006350000000000023,-1.04,-0.09635000000000002,-3.692300000000002,7.373700000000001,5.863699999999997,0,1,0,100.0
18,88.0,1,20.0,0.0,3,7,1.3792000000000006,-0.060639999999999875,-0.48167999999998845,0.2605599999999977,36.0,28.1256,0,19.0,0.0,28.0,0.5851999999999907,0.015199999999999818,-1.04,-0.08,-1.641200000000017,7.267999999999993,9.342399999999966,0,1,0,100.0
18,89.0,1,20.0,0.0,3,7,1.3338000000000003,-0.07316999999999993,-1.0237649999999985,0.327895,36.0,28.14,0,19.0,0.0,28.0,1.1509499999999977,0.02,-1.04,-0.07345000000000004,-0.5743000000000043,7.780949999999998,11.654799999999991,0,1,0,100.0
18,90.0,1,20.0,0.5499999999999886,3,7,1.2870000000000008,-0.08954999999999977,-1.3689999999999953,0.3370499999999999,36.0,28.14,0,19.54999999999999,0.0,28.0,1.5399999999999954,0.025499999999999887,-1.0345000000000002,-0.07,0.24499999999998975,8.213999999999995,13.807999999999971,0,1,0,100.0
18,91.0,1,20.0,1.0,3,7,1.0999000000000012,-0.13067999999999985,-0.5782600000000078,0.03143000000000017,36.0,28.11,0,20.0,0.0,28.0,2.0878999999999985,0.04,-1.03,-0.07,1.9561999999999922,9.163699999999995,20.51779999999996,0,1,0,100.0
18,92.0,1,20.0,1.0,3,7,0.8090000000000003,-0.14437999999999998,-0.4043599999999999,0.15102,36.0,28.1298,0,20.0,0.0,28.0,1.647200000000001,0.026600000000000023,-1.02,-0.07,2.4094,9.255400000000002,26.990399999999994,0,1,0,100.0
18,93.0,1,20.0,0.0,3,7,0.4830000000000019,-0.154,-0.08325000000000225,0.06336000000000022,36.0,28.13295,0,19.0,0.0,28.0,0.6278500000000063,0.007650000000000091,-1.01,-0.07,2.0812500000000025,8.753050000000004,29.842199999999995,0,1,0,100.0
18,94.0,1,20.0,0.0,3,7,0.26760000000000217,-0.15322000000000002,0.15037999999999851,0.06111999999999943,36.0,28.11,0,19.0,0.0,28.0,-0.09759999999999308,-0.0025999999999999092,-1.01,-0.07,1.830200000000002,8.363400000000004,30.1334,0,1,0,100.0
18,95.0,1,20.0,0.0,3,7,-0.17724999999999672,-0.1457750000000001,0.48052499999999837,0.09214999999999993,36.0,28.13925,0,19.0,0.0,28.0,-1.4277499999999919,-0.020499999999999772,-1.01,-0.0702499999999999,1.4342500000000025,7.597750000000006,28.446250000000024,0,1,0,100.0
18,96.0,1,20.0,0.0,3,7,-0.4367999999999981,-0.13772000000000006,0.606719999999999,0.09751999999999997,36.0,28.1124,0,19.0,0.0,28.0,-2.0631999999999953,-0.038399999999999865,-1.01,-0.07919999999999994,1.2284000000000015,7.159200000000004,26.522000000000016,0,1,0,100.0
18,97.0,1,20.0,0.0,3,7,-1.5896999999999992,-0.11974000000000001,0.2165449999999999,0.13352,36.0,28.13055,0,19.0,0.0,28.0,-3.8239499999999995,-0.06314999999999998,-1.0,-0.08314999999999997,0.31385000000000046,5.326750000000001,16.033100000000008,0,1,0,100.0
18,98.0,1,20.0,0.0,3,7,-2.389599999999993,-0.11458000000000003,0.0972400000000005,0.16966000000000048,36.0,28.1226,0,19.0,0.0,28.0,-4.379799999999997,-0.08,-1.0,-0.09,0.03580000000000018,4.18740000000001,9.572400000000052,0,1,0,100.0
18,99.0,1,20.0,0.0,3,7,-2.7632666666666656,-0.11359666666666668,0.10277999999999984,0.14311000000000007,36.0,28.1279,0,19.0,0.0,28.0,-4.542433333333333,-0.08,-1.0,-0.09,0.06629999999999972,3.6702666666666683,6.947633333333341,0,1,0,100.0
18,100.0,1,20.0,0.0,3,7,-3.36,-0.11,0.164,0.075,36.0,28.14,0,19.0,0.0,28.0,-4.71,-0.08,-1.0,-0.1,0.29,2.86,3.18,0,1,0,100.0
19,0.0,1,20.0,0.0,0,1,-3.71,-0.105,0.378,0.132,36.0,28.14,0,19.0,0.0,28.0,-4.77,-0.08,-1.0,-0.1,0.54,2.41,1.06,0,1,0,100.0
19,1.0,1,20.0,0.0,0,1,-4.4553,-0.09822,0.35042,0.0,36.0,28.14,0,12.0,0.0,28.0,-4.7627,-0.08,-1.0,-0.1039,1.5450000000000002,1.9043999999999999,-3.4769,0,1,0,100.0
19,2.0,1,20.0,0.0,0,1,-4.7175,-0.097,0.0657,0.0,36.0,28.14,0,12.0,0.0,28.0,-4.6615,-0.08,-1.0039,-0.11,2.0294000000000003,1.9619,-5.0893999999999995,0,1,0,100.0
19,3.0,1,20.0,0.0,0,1,-5.09445,-0.09717,-0.03304000000000003,0.0,36.0,28.14,0,12.0,0.0,28.0,-4.25345,-0.07915,-1.01,-0.11,2.50215,3.4267000000000003,-7.0523,0,1,0,100.0
19,4.0,1,20.0,0.0,0,1,-5.2126,-0.09856000000000001,-0.18872,0.0,36.0,28.14,0,12.0,0.0,28.0,-3.9545999999999997,-0.0722,-1.01,-0.11,2.3562,5.525600000000001,-7.3164,0,1,0,100.0
19,5.0,1,20.0,0.0,0,1,-5.383,-0.1047,-0.44985,0.0,36.0,28.14,0,12.0,0.0,28.0,-3.3375,-0.0605,-1.01,-0.1195,1.5595,11.975499999999998,-6.8774999999999995,0,1,0,100.0
19,6.0,1,20.0,0.1700000000000003,0,1,-5.5785,-0.108,-0.009310000000000013,0.0,36.0,28.14,0,12.17,0.0,28.0,-1.8781999999999999,-0.03,-1.02,-0.13,-1.5216000000000005,39.004000000000005,-1.6633999999999989,0,1,0,100.0
19,7.0,1,20.0,0.8649999999999999,0,1,-5.61325,-0.108,-0.039194999999999994,0.0,36.0,28.14,0,12.865,0.0,28.0,-1.5029,-0.03,-1.02,-0.13,-2.5502,50.958,1.1026999999999993,0,1,0,100.0
19,8.0,1,20.0,1.0,0,1,-5.6388,-0.107,0.1306,0.0,36.0,28.14,0,13.0,0.0,28.0,-1.4532,-0.0306,-1.04,-0.11939999999999999,-4.9134,92.2718,11.9106,0,1,0,100.0
19,9.0,1,20.0,1.0,0,1,-5.6249,-0.107,0.06804999999999996,0.0,36.0,28.14,0,13.0,0.0,28.0,-1.9536000000000002,-0.03755000000000001,-1.04,-0.11245,-5.18445,103.76015000000001,15.392550000000002,0,1,0,100.0
19,10.0,1,20.0,1.0,0,1,-5.601999999999999,-0.107,-0.0926,0.0,36.0,28.14,0,13.0,0.0,28.0,-3.192,-0.057999999999999996,-1.049,-0.101,-5.082,118.736,20.589000000000002,0,1,0,100.0
19,11.0,1,20.0,1.0,0,1,-5.59,-0.107,-0.023090000000000013,0.0,36.0,28.14,0,13.0,0.0,28.0,-5.318500000000001,-0.09870000000000001,-1.05,-0.0771,-3.730499999999999,126.5592,25.206000000000003,0,1,0,100.0
19,12.0,1,20.0,1.0,0,1,-5.6608,-0.107,0.00324000000000005,0.0,36.0,28.14,0,13.0,0.0,28.0,-8.916800000000002,-0.16360000000000002,-1.0432000000000001,-0.036399999999999974,1.3084000000000031,115.99199999999999,28.711199999999998,0,1,0,100.0
19,13.0,1,20.0,1.0,0,1,-5.728149999999999,-0.107,0.03679500000000003,0.0,36.0,28.14,0,13.0,0.0,28.0,-9.748000000000001,-0.18070000000000003,-1.04,-0.02464999999999999,3.7496500000000026,107.31244999999998,28.91605,0,1,0,100.0
19,14.0,1,20.0,1.0,0,1,-5.9882,-0.107,0.019920000000000028,0.0,36.0,28.14,0,13.0,0.0,28.0,-10.2604,-0.1854,-1.0354,-0.0054000000000000055,9.744399999999999,86.8246,28.5458,0,1,0,100.0
19,15.0,1,20.0,1.0,0,1,-6.145166666666666,-0.107,-0.006,0.0,36.0,28.14,0,13.0,0.0,28.0,-9.916,-0.17716666666666667,-1.03,0.0,12.258833333333333,79.7705,28.374499999999998,0,1,0,100.0
19,16.0,1,20.0,1.0,0,1,-6.251733333333333,-0.107,-0.006,0.0,36.0,28.14,0,13.0,0.0,28.0,-9.5824,-0.17253333333333334,-1.03,0.0,13.597866666666667,76.6152,28.3328,0,1,0,100.0
19,17.0,1,20.0,1.0,0,1,-6.98395,-0.107,-0.02506999999999987,0.0,36.0,28.14,0,13.0,0.0,28.0,-6.65105,-0.12054999999999999,-1.00685,-0.023150000000000004,19.112650000000002,70.7069,28.89395,0,1,0,100.0
19,18.0,1,20.0,1.0,0,1,-7.5878000000000005,-0.107,-0.009459999999999955,0.0,36.0,28.14,0,13.0,0.0,28.0,-4.416199999999998,-0.07959999999999996,-0.9898,-0.050400000000000035,20.733800000000002,73.9888,29.2338,0,1,0,100.0
19,19.0,1,20.0,1.0,0,1,-8.05405,-0.107205,-0.0028850000000001097,0.0,36.0,28.14,0,13.0,0.0,28.0,-3.032699999999999,-0.05589999999999998,-0.97795,-0.07410000000000003,20.86465,76.7203,28.7414,0,1,0,100.0
19,20.0,1,20.0,1.0,0,1,-8.339,-0.1079,-0.0703,0.0,36.0,28.14,0,13.0,0.0,28.0,-2.296,-0.042,-0.971,-0.088,20.677,77.87400000000001,28.102,0,1,0,100.0
19,21.0,1,20.0,1.0,0,1,-9.055850000000001,-0.11078500000000001,-0.22603500000000026,0.0,36.0,28.14,0,13.0,0.0,28.0,-0.8099499999999987,-0.014049999999999983,-0.9480999999999999,-0.12190000000000004,19.466649999999998,77.7893,24.9977,0,1,0,100.0
19,22.0,1,20.0,1.0,0,1,-9.4794,-0.11490000000000002,-0.36978000000000016,0.0,36.0,28.14,0,13.0,0.0,28.0,-0.08979999999999926,-0.0041999999999999885,-0.9342,-0.14160000000000003,18.388199999999998,76.05499999999999,22.356399999999997,0,1,0,100.0
19,23.0,1,20.0,1.0,0,1,-10.274,-0.130365,-0.6101550000000002,0.0,36.0,28.14,0,13.0,0.0,28.0,1.0718999999999999,0.014849999999999995,-0.91515,-0.1797,15.595500000000003,70.5489,16.1325,0,1,0,100.0
19,24.0,1,20.0,1.0,0,1,-10.6204,-0.13608,-0.3245599999999994,0.0,36.0,28.14,0,13.0,0.0,28.0,1.5192000000000012,0.023600000000000024,-0.91,-0.19720000000000004,14.032399999999996,67.7396,13.051999999999992,0,1,0,100.0
19,25.0,1,20.0,1.0,0,1,-11.31,-0.1435,-0.49374999999999997,0.0,36.0,28.14,0,13.0,0.0,28.0,2.235,0.0325,-0.9,-0.225,10.0925,62.65,6.455,0,1,0,100.0
19,26.0,1,20.0,1.0,0,1,-11.458266666666667,-0.14813333333333334,-0.7323666666666673,0.0,36.0,28.14,0,13.0,0.0,28.0,2.3184000000000005,0.037133333333333345,-0.9,-0.23426666666666668,9.003666666666664,61.797466666666665,4.925999999999997,0,1,0,100.0
19,27.0,1,20.0,1.0,0,1,-11.703700000000001,-0.151,0.10368000000000203,0.0,36.0,28.14,0,13.0,0.0,28.0,2.1367999999999996,0.03469999999999999,-0.9053,-0.24530000000000002,7.0791999999999975,60.74,2.5012999999999965,0,1,0,100.0
19,28.0,1,20.0,0.0,0,1,-12.274,-0.21471999999999997,-1.1529200000000026,0.0,36.0,28.14,0,12.0,0.0,28.0,-1.2883999999999978,-0.017599999999999966,-0.9383999999999999,-0.26,2.8708000000000014,58.43280000000001,-1.1403999999999992,0,1,0,100.0
19,29.0,1,20.0,0.0,0,1,-12.5717,-0.20545,0.24892000000000167,0.0,36.0,28.14,0,12.0,0.0,28.0,-6.7248000000000046,-0.1124000000000001,-0.9762000000000001,-0.24379999999999996,1.9183,53.654399999999995,-0.463599999999999,0,1,0,100.0
19,30.0,1,20.0,0.0,0,1,-12.634,-0.19745000000000001,0.75155,0.0,36.0,28.14,0,12.0,0.0,28.0,-8.762,-0.15050000000000002,-0.9935,-0.223,1.828,50.602,-0.132,0,1,0,100.0
19,31.0,1,20.0,0.0,0,1,-12.6582,-0.183,0.04740999999999983,0.0,36.0,28.14,0,12.0,0.0,28.0,-11.224700000000004,-0.2018000000000001,-1.0109000000000001,-0.18819999999999992,1.5410999999999992,44.36909999999998,-0.4368000000000018,0,1,0,100.0
19,32.0,1,20.0,0.0,0,1,-12.633600000000001,-0.183,-0.005880000000000017,0.0,36.0,28.1464,0,12.0,0.0,28.0,-12.0472,-0.22,-1.02,-0.1684,1.326,40.0576,-0.9852000000000002,0,1,0,100.0
19,33.0,1,20.0,0.0,0,1,-12.615066666666667,-0.183,-0.02580333333333332,0.0,36.0,28.164933333333334,0,12.0,0.0,28.0,-12.2418,-0.22,-1.02,-0.16376666666666667,1.2565000000000002,38.1394,-1.2029666666666665,0,1,0,100.0
19,34.0,1,20.0,0.0,0,1,-12.4822,-0.18878,-0.43089000000000005,0.0,36.0,28.1452,0,12.0,0.0,28.0,-12.2684,-0.22,-1.02,-0.1387,1.0244,27.995099999999997,-1.215999999999999,0,1,0,100.0
19,35.0,1,20.0,0.0,0,1,-12.4405,-0.19295,-0.467725,0.0,36.0,28.173,0,12.0,0.0,28.0,-12.046,-0.22,-1.02,-0.13175,0.9410000000000001,25.40275,-0.66,0,1,0,100.0
19,36.0,1,20.0,1.0,0,1,-12.3088,-0.203,-0.09001999999999957,0.0,36.0,28.14,0,13.0,0.0,28.0,-11.2648,-0.2,-1.02,-0.11979999999999998,0.35219999999999935,18.266799999999996,2.320800000000003,0,1,0,100.0
19,37.0,1,20.0,1.0,0,1,-12.2671,-0.203,0.08303500000000084,0.0,36.0,28.14,0,13.0,0.0,28.0,-11.0841,-0.2,-1.02,-0.11284999999999996,0.08114999999999865,16.418099999999992,3.391100000000005,0,1,0,100.0
19,38.0,1,20.0,1.0,0,1,-12.2295,-0.20259000000000002,0.154,0.0,36.0,28.14,0,13.0,0.0,28.0,-10.940299999999999,-0.1959,-1.0159,-0.11,-0.18990000000000087,14.725199999999996,4.346600000000003,0,1,0,100.0
19,39.0,1,20.0,1.0,0,1,-12.1437,-0.19568999999999998,0.49933000000000083,0.0,36.0,28.14,0,13.0,0.0,28.0,-10.7679,-0.19,-1.01,-0.11,-0.8104000000000006,11.129799999999996,5.874700000000001,0,1,0,100.0
19,40.0,1,20.0,0.30000000000000004,0,1,-12.084,-0.172,0.6293,0.0,36.0,28.14,0,12.3,0.0,28.0,-10.783,-0.19,-1.0070000000000001,-0.11,-1.174,8.126,4.839,0,1,0,100.0
19,41.0,1,20.0,0.9949999999999989,0,1,-12.0701,-0.16505000000000003,0.8245949999999996,0.0,36.0,28.14,0,12.995,0.0,28.0,-10.78995,-0.19,-1.00005,-0.11,-1.2295999999999998,7.305900000000001,3.8868500000000012,0,1,0,100.0
19,42.0,1,20.0,0.0,0,1,-12.0738,-0.14433999999999994,0.55176,0.0,36.0,28.14,0,12.0,0.0,28.0,-10.6368,-0.19,-1.0,-0.12,-1.1129999999999989,5.089799999999994,-1.2472000000000167,0,1,0,100.0
19,43.0,1,20.0,0.0,0,1,-12.08385,-0.13692,0.5102649999999997,0.0,36.0,28.14,0,12.0,0.0,28.0,-10.469149999999999,-0.18614999999999998,-0.99615,-0.12,-0.9468499999999995,4.338199999999998,-3.6955500000000057,0,1,0,100.0
19,44.0,1,20.0,0.0,0,1,-12.0916,-0.13119999999999998,0.40999999999999953,0.0,36.0,28.14,0,12.0,0.0,28.0,-10.2952,-0.18,-0.99,-0.12,-0.7995999999999995,3.8271999999999986,-5.551600000000006,0,1,0,100.0
19,45.0,1,20.0,0.0,0,1,-12.1,-0.121075,0.37632499999999997,0.0,36.0,28.14,0,12.0,0.0,28.0,-9.6565,-0.16725,-0.99,-0.12,-0.45975,2.73175,-9.9085,0,1,0,100.0
19,46.0,1,20.0,0.0,0,1,-12.1,-0.11621000000000001,0.5591099999999997,0.0,36.0,28.14,0,12.0,0.0,28.0,-9.420200000000001,-0.16030000000000003,-0.99,-0.12,-0.38330000000000014,2.4329000000000005,-11.117799999999997,0,1,0,100.0
19,47.0,1,20.0,0.0,0,1,-12.04175,-0.10000999999999999,0.4541450000000001,0.0,36.0,28.14,0,12.0,0.0,28.0,-8.668949999999999,-0.15,-0.99,-0.13,-0.0670999999999991,1.5605999999999989,-14.326250000000003,0,1,0,100.0
19,48.0,1,20.0,0.0,0,1,-12.007,-0.09584,0.46318000000000004,0.0,36.0,28.14,0,12.0,0.0,28.0,-8.4118,-0.15,-0.99,-0.13,0.1136000000000006,1.3103999999999991,-15.195000000000002,0,1,0,100.0
19,49.0,1,20.0,0.0,0,1,-11.825233333333333,-0.08189,0.1965999999999999,0.0,36.0,28.14,0,12.0,0.0,28.0,-7.533499999999999,-0.12963333333333332,-0.9903666666666666,-0.13,1.1575000000000004,0.5278999999999998,-17.392733333333336,0,1,0,100.0
19,50.0,1,20.0,0.0,0,1,-11.765,-0.0805,0.14100000000000001,0.0,36.0,28.14,0,12.0,0.0,28.0,-7.324999999999999,-0.125,-0.995,-0.13,1.505,0.375,-17.68,0,1,0,100.0
19,51.0,1,20.0,0.0,0,1,-11.704766666666666,-0.07911,0.0854000000000001,0.0,36.0,28.14,0,12.0,0.0,28.0,-7.1165,-0.12036666666666666,-0.9996333333333334,-0.13,1.8524999999999994,0.22210000000000021,-17.967266666666664,0,1,0,100.0
19,52.0,1,20.0,0.0,0,1,-11.251999999999999,-0.07307999999999999,0.23136000000000068,0.0,36.0,28.14,0,12.0,0.0,28.0,-5.832799999999998,-0.10359999999999997,-1.0,-0.14,4.305200000000003,-0.5044000000000007,-18.169999999999998,0,1,0,100.0
19,53.0,1,20.0,0.0,0,1,-10.866249999999999,-0.068325,0.28429500000000085,0.0,36.0,28.14,0,12.0,0.0,28.0,-5.0726499999999985,-0.08664999999999998,-1.0,-0.13,5.788000000000002,-0.7635000000000002,-17.492549999999998,0,1,0,100.0
19,54.0,1,20.0,0.0,0,1,-10.683799999999998,-0.06463999999999999,0.5302599999999998,0.0,35.94,28.14,0,12.0,0.0,28.0,-4.778399999999999,-0.08,-1.0,-0.13,6.364400000000002,-0.8330000000000001,-17.1584,0,1,0,100.0
19,55.0,1,20.0,0.0,0,1,-10.2995,-0.0554,0.46545,0.0,35.0,28.14,0,12.0,0.0,28.0,-4.3005,-0.0755,-1.0,-0.13,7.3615,-0.8755,-16.757,0,1,0,100.0
19,56.0,1,20.0,0.0,6,2,-9.879600000000002,-0.045120000000000014,0.42072000000000015,0.0,35.0,28.14,0,12.0,0.0,28.0,-3.8948000000000005,-0.07,-1.0,-0.12160000000000001,8.200399999999998,-0.8196000000000002,-16.789199999999997,0,1,0,100.0
19,57.0,1,20.0,0.0,6,2,-9.101799999999997,-0.019469999999999925,0.964459999999996,0.10658000000000031,35.0,28.1169,0,18.0,0.0,28.0,-3.2094999999999976,-0.05769999999999993,-1.0,-0.12,8.638799999999998,0.1897000000000095,-18.43380000000001,0,1,0,100.0
19,58.0,1,20.0,0.3100000000000023,6,2,-8.731499999999999,-0.009449999999999988,0.43424999999999947,0.1568800000000001,35.0,28.1307,0,18.310000000000002,0.0,28.0,-2.803599999999999,-0.046899999999999976,-1.0,-0.12,7.958999999999998,2.183800000000007,-19.550700000000003,0,1,0,100.0
19,59.0,1,20.0,0.9899999999999978,6,2,-8.116299999999999,-0.005010000000000002,0.013799999999999955,0.4682800000000003,35.0,28.1103,0,18.99,0.0,28.0,-2.035599999999999,-0.03989999999999998,-1.0001,-0.12010000000000001,5.364899999999994,9.447200000000016,-20.922200000000004,0,1,0,100.0
19,60.0,1,20.0,0.2,6,2,-7.676,-0.006,0.0096,0.6018,35.0,28.134,0,18.2,0.0,28.0,-1.532,-0.028,-1.01,-0.132,2.2479999999999998,19.196,-21.04,0,1,0,100.0
19,61.0,1,20.0,0.8949999999999989,6,2,-7.41885,-0.006,0.06380999999999991,0.6254299999999999,35.0,28.11315,0,18.895,0.0,28.0,-1.2957000000000003,-0.021050000000000013,-1.01,-0.13895,0.05180000000000346,26.51434999999999,-20.692500000000003,0,1,0,100.0
19,62.0,1,20.0,1.0,6,2,-7.149899999999999,-0.006,0.0377799999999998,0.6065799999999999,35.0,28.1277,0,19.0,0.0,28.0,-1.1773999999999996,-0.02,-1.01,-0.14,-2.3863000000000123,35.44340000000005,-19.719599999999993,0,1,0,100.0
19,63.0,1,20.0,1.0,6,2,-6.485999999999999,-0.004714999999999998,0.08842000000000003,0.4987549999999999,35.0,28.14,0,19.0,0.0,28.0,-1.4852500000000015,-0.022850000000000023,-1.02,-0.14714999999999998,-8.429050000000007,60.84555000000004,-14.871699999999992,0,1,0,100.0
19,64.0,1,20.0,1.0,6,2,-6.207999999999999,-0.004019999999999999,0.09676000000000001,0.45913999999999994,35.0,28.14,0,19.0,0.0,28.0,-1.9370000000000007,-0.02980000000000001,-1.02,-0.1402,-10.743400000000005,72.12540000000003,-11.827599999999995,0,1,0,100.0
19,65.0,1,20.0,0.32499999999999996,1,6,-5.1635,-0.0023250000000000002,-0.021424999999999996,0.173575,35.0,28.09275,0,19.0,0.0,29.0,-6.13325,-0.11025,-1.04,-0.12325,-16.55075,106.9775,4.593,0,1,0,100.0
19,66.0,1,20.0,0.0,1,6,-4.443200000000001,0.07499999999999989,3.190220000000001,1.430099999999999,35.0,28.04,0,19.0,0.0,29.0,-10.379999999999995,-0.1895999999999999,-1.05,-0.10260000000000002,-17.2132,112.885,15.22359999999999,0,1,0,100.0
19,67.0,1,20.0,0.0,1,6,-4.2017999999999995,0.11173000000000013,2.8349999999999986,1.7391400000000012,35.0,28.0174,0,19.0,0.0,29.0,-11.849200000000007,-0.21695000000000011,-1.05,-0.09434999999999996,-16.508499999999998,109.14739999999998,17.802900000000008,0,1,0,100.0
19,68.0,1,20.0,0.0,1,6,-3.960399999999999,0.14768000000000017,2.325599999999997,2.2309600000000027,35.0,27.9636,0,19.0,0.0,29.0,-13.198800000000006,-0.24560000000000015,-1.0448,-0.08479999999999996,-15.099199999999993,101.43439999999995,19.651600000000006,0,1,0,100.0
19,69.0,1,20.0,0.0,1,6,-3.6952999999999996,0.18948000000000007,1.6874899999999993,2.71763,35.0,27.93,0,19.0,0.0,29.0,-14.334200000000003,-0.26910000000000006,-1.04,-0.07089999999999998,-12.146999999999995,85.81089999999998,20.5539,0,1,0,100.0
19,70.0,1,20.0,0.0,3,7,-3.561,0.2204,1.2667,3.1719999999999997,35.0,27.9,0,19.0,0.0,29.0,-14.292,-0.267,-1.04,-0.067,-8.615,68.655,20.107,0,1,0,100.0
19,71.0,1,20.0,0.0,3,7,-3.5606999999999998,0.24403999999999998,1.0985100000000003,3.35883,35.0,27.9,0,19.0,0.0,29.0,-13.369700000000002,-0.24620000000000003,-1.04,-0.06689999999999999,-5.249900000000006,53.841500000000025,19.5223,0,1,0,100.0
19,72.0,1,20.0,0.9199999999999932,3,7,-3.672000000000001,0.26372000000000007,0.7975199999999986,3.5884800000000014,35.0,27.86,0,19.919999999999995,0.0,29.0,-11.855999999999993,-0.2175999999999998,-1.03,-0.07080000000000007,-2.6107999999999913,43.28839999999997,19.512400000000003,0,1,0,100.0
19,73.0,1,20.0,0.0,3,7,-3.908700000000001,0.27529000000000003,0.5107099999999991,3.8517600000000005,35.0,27.8459,0,19.0,0.0,29.0,-10.016099999999993,-0.18059999999999993,-1.0252999999999999,-0.08470000000000004,-1.155099999999997,37.56989999999999,20.470000000000006,0,1,0,100.0
19,74.0,1,20.0,0.0,3,7,-4.127500000000001,0.28158000000000005,0.4332500000000005,3.90169,35.0,27.83,0,19.0,0.0,29.0,-8.69229999999999,-0.1570999999999998,-1.0157,-0.09430000000000006,-0.735499999999999,35.403499999999994,21.56760000000001,0,1,0,100.0
19,75.0,1,20.0,0.0,3,7,-4.64,0.29,0.19424999999999998,4.1945,35.0,27.819999999999997,0,19.0,0.0,29.0,-6.13,-0.105,-0.9975,-0.1125,-1.03,33.355000000000004,24.135,0,1,0,100.0
19,76.0,1,20.0,0.6400000000000091,3,7,-5.110400000000003,0.29428,0.1527999999999986,4.341000000000001,35.0,27.79,0,19.640000000000008,0.0,29.0,-4.083599999999986,-0.07079999999999972,-0.9835999999999999,-0.1264000000000001,-1.8744000000000063,32.06999999999999,25.95520000000001,0,1,0,100.0
19,77.0,1,20.0,0.48500000000000226,3,7,-5.430549999999999,0.29551499999999997,0.0743400000000001,4.43159,35.0,27.79,0,19.485000000000003,0.0,29.0,-2.7160000000000037,-0.04455000000000007,-0.97485,-0.13515,-2.567749999999998,31.133200000000002,26.791999999999998,0,1,0,100.0
19,78.0,1,20.0,0.0,3,7,-6.158000000000002,0.29784,0.11426000000000001,4.45726,35.0,27.79,0,19.0,0.0,29.0,0.49920000000000797,0.012600000000000137,-0.9515999999999999,-0.15420000000000003,-4.463000000000005,29.270199999999996,27.4176,0,1,0,100.0
19,79.0,1,20.0,0.0,3,7,-6.714000000000006,0.30062,0.1403000000000004,4.391119999999999,35.0,27.79,0,19.0,0.0,29.0,2.961800000000024,0.046200000000000276,-0.9318999999999998,-0.16,-6.166800000000018,28.7323,26.63389999999999,0,1,0,100.0
19,80.0,1,20.0,0.0,3,7,-7.2700000000000005,0.302,0.0928,4.4786,35.0,27.79,0,19.0,0.0,29.0,5.31,0.08600000000000001,-0.92,-0.162,-8.068,29.285999999999998,24.668,0,1,0,100.0
19,81.0,1,20.0,0.40999999999999087,3,7,-8.188300000000003,0.30140999999999996,-0.011459999999999944,4.65408,35.0,27.76,0,19.40999999999999,0.0,29.0,8.399200000000008,0.1359000000000001,-0.91,-0.16,-11.17850000000001,31.76850000000001,18.813099999999974,0,1,0,100.0
19,82.0,1,20.0,0.0,3,7,-8.511499999999998,0.30051,-0.09719999999999958,4.76974,35.0,27.76,0,19.0,0.0,29.0,8.799199999999999,0.14,-0.91,-0.16,-12.0567,32.6467,16.19900000000001,0,1,0,100.0
19,83.0,1,20.0,0.0,3,7,-9.113600000000002,0.2798599999999999,-1.338110000000002,6.282010000000002,35.0,27.6052,0,19.0,0.0,29.0,7.575699999999994,0.12259999999999992,-0.9274000000000001,-0.16,-12.8452,33.43,11.21009999999999,0,1,0,100.0
19,84.0,1,20.0,0.0,3,7,-9.355866666666667,0.25865333333333324,-1.6723066666666682,6.504426666666664,35.0,27.607866666666666,0,19.0,0.0,29.0,6.249066666666659,0.10239999999999987,-0.9450666666666667,-0.15746666666666662,-12.741466666666666,33.38186666666667,9.336666666666659,0,1,0,100.0
19,85.0,1,20.0,0.0,3,7,-9.476333333333333,0.24521666666666667,-1.8191833333333334,6.250983333333333,35.0,27.658833333333334,0,19.0,0.0,29.0,5.424333333333333,0.0885,-0.9543333333333333,-0.15283333333333332,-12.597833333333334,33.29383333333333,8.525833333333333,0,1,0,100.0
19,86.0,1,20.0,0.0,3,7,-9.9778,0.14222999999999977,-3.2836100000000012,5.290379999999996,35.0,27.9189,0,19.0,0.0,29.0,0.5974999999999921,0.011899999999999864,-0.9954000000000001,-0.14729999999999996,-11.400399999999998,33.59,6.449400000000001,0,1,0,100.0
19,87.0,1,20.0,0.0,3,7,-10.075099999999999,0.10678500000000012,-3.4524949999999994,4.730210000000001,35.0,27.96755,0,19.0,0.0,29.0,-0.6187499999999958,-0.008949999999999932,-1.0092999999999999,-0.14035000000000003,-11.066800000000002,34.285,6.6023,0,1,0,100.0
19,88.0,1,20.0,0.0,3,7,-10.2796,-0.005240000000000088,-2.971999999999998,3.9977199999999984,35.0,28.04,0,19.0,0.0,29.0,-3.6548000000000025,-0.06320000000000005,-1.0216,-0.1516,-9.957999999999998,39.7464,8.985200000000004,0,1,0,100.0
19,89.0,1,20.0,0.0,3,7,-10.3213,-0.03234500000000026,-2.433374999999995,3.609909999999996,35.0,28.04,0,19.0,0.0,29.0,-4.370650000000007,-0.07710000000000014,-1.02855,-0.15855000000000008,-9.471499999999995,41.859200000000016,10.00685000000001,0,1,0,100.0
19,90.0,1,20.0,0.0,3,7,-10.377333333333333,-0.06986666666666667,-1.1516,3.0169666666666664,35.0,28.025333333333332,0,19.0,0.0,29.0,-5.431333333333333,-0.09366666666666666,-1.03,-0.18733333333333332,-7.566666666666666,45.17666666666667,11.899333333333333,0,1,0,100.0
19,91.0,1,20.0,0.0,3,7,-10.3866,-0.07728000000000006,-0.9792399999999989,3.0118699999999996,35.0,28.0068,0,19.0,0.0,29.0,-5.635200000000001,-0.09830000000000004,-1.03,-0.19660000000000008,-6.778999999999995,45.779,12.353400000000002,0,1,0,100.0
19,92.0,1,20.0,1.0,3,7,-10.4276,-0.09276,-0.0033600000000026027,2.6933200000000013,35.0,28.0,0,20.0,0.0,29.0,-5.708000000000001,-0.1,-1.03,-0.21879999999999997,-2.809200000000009,45.174800000000005,13.1656,0,1,0,100.0
19,93.0,1,20.0,0.3649999999999977,3,7,-10.46905,-0.092635,-0.039100000000000135,2.825785,35.0,28.0,0,19.365,0.0,29.0,-5.0478999999999985,-0.09364999999999998,-1.02365,-0.22,-0.3695999999999976,41.26105,12.793149999999999,0,1,0,100.0
19,94.0,1,20.0,0.0,3,7,-10.5464,-0.1016200000000001,-0.39614000000000044,3.0502399999999987,35.33999999999999,27.9898,0,19.0,0.0,29.0,-4.1425999999999945,-0.07339999999999987,-1.02,-0.22,0.8378000000000044,34.732999999999954,12.287999999999998,0,1,0,100.0
19,95.0,1,20.0,0.0,3,7,-10.5915,-0.105575,-0.17342500000000002,2.91495,35.525,28.0,0,19.0,0.0,29.0,-3.8787499999999997,-0.07,-1.02,-0.22,1.04975,31.73825,12.094000000000001,0,1,0,100.0
19,96.0,1,20.0,0.0,3,7,-10.6464,-0.10655999999999999,0.0660400000000006,2.80976,36.0,28.0,0,19.0,0.0,29.0,-3.729199999999999,-0.07,-1.02,-0.22,1.2148000000000014,28.62919999999997,11.799599999999996,0,1,0,100.0
19,97.0,1,20.0,0.0,3,7,-10.7381,-0.10434,0.1967899999999995,2.6925900000000005,36.0,28.0,0,19.0,0.0,29.0,-3.7646999999999995,-0.07,-1.0117,-0.22,1.509199999999999,24.205300000000015,10.955800000000004,0,1,0,100.0
19,98.0,1,20.0,0.0,3,7,-10.9077,-0.09233999999999999,0.47434,2.61967,36.0,28.0,0,19.0,0.0,29.0,-4.316300000000001,-0.08,-1.0089,-0.22110000000000002,2.377200000000001,17.993699999999993,8.078599999999996,0,1,0,100.0
19,99.0,1,20.0,0.0,3,7,-10.95635,-0.08816999999999996,0.4701699999999999,2.6870850000000006,36.0,28.0,0,19.0,0.0,29.0,-4.545650000000003,-0.08,-1.00195,-0.22805000000000009,2.7386000000000035,16.374349999999986,6.869299999999988,0,1,0,100.0
19,100.0,1,20.0,0.0,3,7,-11.05,-0.081,0.355,2.613,36.0,28.0,0,19.0,0.0,29.0,-4.94,-0.09,-1.0,-0.23,3.45,13.85,4.58,0,1,0,100.0
21,0.0,1,20.0,0.0,0,1,-3.2,0.073,-3.47,3.245,35.0,28.14,0,19.0,0.0,30.0,8.39,0.15,-1.01,-0.1,-8.09,-8.88,1.93,0,1,0,100.0
21,1.0,1,20.0,0.0,0,1,-3.4848,0.009809999999999998,-5.03106,2.2971500000000002,35.89,28.14,0,19.0,0.0,30.0,7.5178,0.1322,-1.0189,-0.0822,-7.2801,-9.0669,1.2981,0,1,0,100.0
21,2.0,1,20.0,0.0,0,1,-4.0576,-0.20135999999999998,2.5000799999999996,0.0,36.0,28.14,0,8.0,0.0,30.0,5.747199999999999,0.1072,-1.03,-0.0728,-5.8692,-4.4064,7.462000000000001,0,1,0,100.0
21,3.0,1,20.0,1.0,0,1,-4.3252999999999995,-0.17348999999999998,0.2819599999999998,0.0,36.0,28.14,0,9.0,0.0,30.0,4.905399999999999,0.08829999999999999,-1.04,-0.0917,-4.1888,0.7006000000000006,14.227500000000001,0,1,0,100.0
21,4.0,1,20.0,1.0,0,1,-4.4072000000000005,-0.17148000000000002,-0.15764000000000003,0.0,36.0,28.14,0,9.0,0.0,30.0,4.5408,0.08,-1.0388,-0.10120000000000001,-2.8919999999999995,2.7044,16.748800000000003,0,1,0,100.0
21,5.0,1,20.0,1.0,0,1,-4.505,-0.1804,-0.4243,0.0,36.0,28.14,0,9.0,0.0,30.0,3.757,0.07100000000000001,-1.03,-0.119,-0.7059999999999998,5.111,19.769,0,1,0,100.0
21,6.0,1,20.0,1.0,0,1,-4.5836,-0.19236,-0.11579999999999986,0.0,36.0,28.14,0,9.0,0.0,30.0,2.5151999999999997,0.04319999999999999,-1.03,-0.12,-0.09,6.0852,21.491200000000003,0,1,0,100.0
21,7.0,1,20.0,1.0,0,1,-4.7061,-0.18747,0.5262500000000001,0.0,36.0,28.14,0,9.0,0.0,30.0,0.21239999999999945,0.005399999999999992,-1.0177,-0.13,-0.8505000000000001,5.9087000000000005,21.36,0,1,0,100.0
21,8.0,1,20.0,1.0,0,1,-4.7816,-0.17636,0.756,0.0,36.0,28.14,0,9.0,0.0,30.0,-0.9260000000000006,-0.014800000000000011,-1.01,-0.13240000000000002,-1.1848000000000003,5.5644,20.169999999999998,0,1,0,100.0
21,9.0,1,20.0,1.0,0,1,-4.9526,-0.15481999999999999,0.69842,0.0,36.0,28.14,0,9.0,0.0,30.0,-2.951000000000002,-0.050400000000000035,-1.0098,-0.14,-1.5922000000000003,4.6781999999999995,16.298599999999993,0,1,0,100.0
21,10.0,1,20.0,1.0,0,1,-5.192,-0.1356,0.839,0.0,36.0,28.14,0,9.0,0.0,30.0,-4.74,-0.086,-1.0,-0.148,-1.684,3.588,10.482,0,1,0,100.0
21,11.0,1,20.0,1.0,0,1,-5.464266666666667,-0.11357333333333332,0.9347333333333335,0.0,36.0,28.14,0,9.0,0.0,30.0,-6.098133333333334,-0.10526666666666668,-0.9947333333333334,-0.15526666666666666,-1.305133333333333,2.4934666666666665,3.816999999999998,0,1,0,100.0
21,12.0,1,20.0,0.0,0,1,-5.9106000000000005,-0.07057999999999998,1.1317600000000003,0.0,36.0,28.14,0,8.0,0.0,30.0,-7.3768,-0.13,-0.99,-0.17,0.36380000000000107,0.9681999999999995,-7.405600000000005,0,1,0,100.0
21,13.0,1,20.0,0.0,0,1,-6.0696,-0.05205999999999999,1.41828,0.0,36.0,28.14,0,8.0,0.0,30.0,-7.6124,-0.13,-0.99,-0.17,1.2570000000000008,0.47999999999999976,-11.671200000000002,0,1,0,100.0
21,14.0,1,20.0,0.0,0,1,-6.3096000000000005,-0.013759999999999963,1.43516,0.0,36.0,28.14,0,8.0,0.0,30.0,-7.7868,-0.13920000000000002,-0.99,-0.17,3.218000000000002,-0.42840000000000095,-20.007600000000007,0,1,0,100.0
21,15.0,1,20.0,0.0,0,1,-6.469,0.0247,1.1582000000000001,0.0,36.0,28.14,0,8.0,0.0,30.0,-7.546,-0.13,-0.99,-0.17,5.567,-1.312,-28.851,0,1,0,100.0
21,16.0,1,20.0,0.0,0,1,-6.5004,0.05916000000000002,1.1507199999999993,0.0,36.0,28.14,0,8.0,0.0,30.0,-6.909199999999999,-0.12,-1.0,-0.17,8.312800000000003,-1.8080000000000003,-37.781200000000005,0,1,0,100.0
21,17.0,1,20.0,0.0,0,1,-6.273533333333333,0.06730666666666667,-0.5740333333333335,0.0,36.0,28.14,0,8.0,0.0,30.0,-5.432799999999999,-0.09913333333333334,-1.0208666666666666,-0.17,12.287466666666667,-1.1967333333333328,-49.272533333333335,0,1,0,100.0
21,18.0,1,20.0,0.0,0,1,-6.160799999999999,0.06255999999999999,-0.6838000000000002,0.0,36.0,28.14,0,8.0,0.0,30.0,-5.041199999999999,-0.09319999999999999,-1.0268,-0.17,13.023200000000001,-0.7635999999999992,-51.2068,0,1,0,100.0
21,19.0,1,20.0,0.0,0,1,-5.3501,0.027360000000000002,-0.48600000000000054,0.0,36.0,28.14,0,8.0,0.0,30.0,-3.9756,-0.07,-1.0441,-0.16,15.0651,2.494499999999999,-53.886900000000004,0,1,0,100.0
21,20.0,1,20.0,0.0,0,1,-4.844,0.0256,0.043399999999999994,0.0,36.0,28.14,0,8.0,0.0,30.0,-4.5200000000000005,-0.082,-1.05,-0.16,14.86,4.088,-50.192,0,1,0,100.0
21,21.0,1,20.0,0.0,0,1,-3.7567,0.027,-0.06162000000000006,0.0,36.0,28.14,0,8.0,0.0,30.0,-7.293000000000001,-0.13070000000000004,-1.05,-0.16,12.904399999999999,4.654599999999999,-36.54,0,1,0,100.0
21,22.0,1,20.0,0.0,6,2,-2.6145999999999994,0.02758,-0.0074799999999999554,0.0,36.0,28.14,0,8.0,0.0,30.0,-10.669200000000002,-0.19740000000000002,-1.06,-0.16580000000000003,10.319599999999998,-0.08840000000000445,-19.854599999999987,0,1,0,100.0
21,23.0,1,20.0,0.0,6,2,-1.7577999999999978,0.028940000000000004,0.16140000000000054,-0.023500000000000087,36.0,28.1118,0,17.400000000000034,0.0,30.0,-12.763000000000005,-0.2382000000000001,-1.06,-0.17,8.593199999999996,-7.09920000000002,-7.65399999999997,0,1,0,100.0
21,24.0,1,20.0,0.8600000000000023,6,2,-0.6011999999999987,0.012979999999999985,-0.3605399999999989,-0.7409400000000002,36.0,28.11,0,18.860000000000003,0.0,30.0,-14.354400000000002,-0.27720000000000006,-1.07,-0.17,7.145599999999999,-21.364200000000018,7.632800000000017,0,1,0,100.0
21,25.0,1,20.0,0.5,6,2,0.6699999999999999,0.0065,-0.039999999999999994,-0.7555000000000001,36.0,28.11,0,18.5,0.0,30.0,-13.69,-0.265,-1.08,-0.18,7.325,-42.214999999999996,23.009999999999998,0,1,0,100.0
21,26.0,1,20.0,0.6400000000000006,6,2,1.052,0.006,-0.033320000000000044,-0.74788,36.0,28.11,0,18.64,0.0,30.0,-12.5796,-0.2408,-1.08,-0.18,7.8308,-49.381600000000006,27.7904,0,1,0,100.0
21,27.0,1,20.0,1.0,6,2,1.3560000000000003,0.006,-0.037300000000000125,-0.7652000000000001,36.0,28.1382,0,19.0,0.0,30.0,-10.717599999999997,-0.2081999999999999,-1.0794000000000001,-0.19,8.379,-55.631600000000006,32.573800000000006,0,1,0,100.0
21,28.0,1,20.0,1.0,6,2,1.4416,0.006,-0.005839999999999666,-0.7419999999999998,36.0,28.11,0,19.0,0.0,30.0,-7.875599999999994,-0.14639999999999986,-1.07,-0.19840000000000005,8.393999999999998,-58.454800000000006,37.08040000000001,0,1,0,100.0
21,29.0,1,20.0,1.0,6,2,1.2319999999999998,0.006,0.009059999999999912,-0.74598,36.0,28.11,0,19.0,0.0,30.0,-4.944999999999997,-0.09379999999999995,-1.0492,-0.2154,7.358599999999998,-56.761599999999994,40.3472,0,1,0,100.0
21,30.0,1,20.0,1.0,6,2,0.328,0.006,0.0604,-0.7078,36.0,28.11,0,19.0,0.0,30.0,-0.10799999999999998,-0.002,-1.016,-0.234,3.114,-47.632,43.766,0,1,0,100.0
21,31.0,1,20.0,1.0,6,2,-0.11880000000000109,0.005606666666666664,0.061053333333333244,-0.66818,36.0,28.11,0,19.0,0.0,30.0,1.41426666666667,0.02180000000000007,-1.0021333333333333,-0.24,0.9892666666666613,-43.42146666666665,44.1672,0,1,0,100.0
21,32.0,1,20.0,1.0,6,2,-0.40360000000000035,0.005013333333333332,0.03850666666666664,-0.66996,36.0,28.11,0,19.0,0.0,30.0,2.2805333333333344,0.039600000000000024,-0.9902666666666666,-0.24,-0.3694666666666686,-40.79893333333333,44.2384,0,1,0,100.0
21,33.0,1,20.0,1.0,6,2,-2.051999999999999,0.005,-0.12585999999999992,-0.67945,36.0,28.11,0,19.0,0.0,30.0,5.419499999999999,0.08869999999999999,-0.9612999999999999,-0.2313,-7.602399999999997,-27.990300000000005,41.713300000000004,0,1,0,100.0
21,34.0,1,20.0,1.0,6,2,-3.5664000000000016,0.005,-0.024899999999999922,-0.6895000000000001,36.0,28.11,0,19.0,0.0,30.0,6.4756,0.11,-0.9373999999999999,-0.21739999999999998,-13.158200000000004,-18.960999999999995,36.66579999999999,0,1,0,100.0
21,35.0,1,20.0,1.0,6,2,-4.229,0.005,-0.015200000000000002,-0.6881999999999999,36.0,28.11,0,19.0,0.0,30.0,6.465999999999999,0.107,-0.93,-0.207,-15.248,-15.85,33.787,0,1,0,100.0
21,36.0,1,20.0,1.0,6,2,-5.338800000000004,0.005,-0.03603999999999992,-0.6492399999999997,36.0,28.1376,0,19.0,0.0,30.0,5.893599999999997,0.09919999999999994,-0.93,-0.19,-18.315200000000008,-11.88239999999999,28.132399999999976,0,1,0,100.0
21,37.0,1,20.0,1.0,6,2,-6.944400000000001,0.004,0.03860000000000002,-0.46037999999999973,36.0,28.11,0,19.0,0.0,30.0,3.9619999999999984,0.06279999999999995,-0.93,-0.18,-21.790200000000002,-8.9896,18.24539999999999,0,1,0,100.0
21,38.0,1,20.0,1.0,6,2,-7.438199999999999,0.003180000000000001,-0.09447999999999983,-0.33084000000000013,36.0,28.11,0,19.0,0.0,30.0,3.185800000000001,0.05180000000000001,-0.93,-0.18,-22.7108,-8.539200000000001,14.870000000000005,0,1,0,100.0
21,39.0,1,20.0,1.0,6,2,-8.5198,0.0007899999999999977,-0.04565000000000015,-0.021699999999999706,36.0,28.11,0,19.0,0.0,30.0,1.4060999999999986,0.02,-0.9279000000000001,-0.17,-24.546000000000003,-7.389299999999999,7.306199999999993,0,1,0,100.0
21,40.0,1,20.0,1.0,6,2,-8.888,-0.0002,-0.0732,0.1066,36.0,28.116,0,19.0,0.0,30.0,0.832,0.018000000000000002,-0.92,-0.168,-25.11,-6.7,4.598,0,1,0,100.0
21,41.0,1,20.0,1.0,6,2,-9.444200000000002,-0.002960000000000014,-0.4591800000000033,0.7509400000000038,36.0,28.110599999999998,0,19.0,0.0,30.0,-0.35460000000000524,-0.009600000000000136,-0.9298000000000001,-0.16,-25.5288,-5.658199999999997,0.34499999999998443,0,1,0,100.0
21,42.0,1,20.0,1.7600000000000022,6,2,-10.004,-0.026320000000000017,-0.4733199999999999,3.545760000000002,36.0,27.924,0,19.76,0.0,30.0,-3.8336000000000032,-0.06520000000000005,-0.9752000000000001,-0.1324,-22.578399999999995,-6.611600000000001,-5.825600000000005,0,1,0,100.0
21,43.0,1,20.0,1.230000000000001,6,2,-10.1247,-0.033389999999999996,-0.4174100000000001,4.347359999999999,36.0,27.8153,0,19.23,0.0,30.0,-5.114799999999999,-0.08539999999999998,-0.9954,-0.1223,-20.6554,-6.7254000000000005,-8.304999999999998,0,1,0,100.0
21,44.0,1,20.0,2.0,6,2,-10.228933333333334,-0.03778666666666666,0.1392666666666666,4.479986666666667,36.0,27.794266666666665,0,20.0,0.0,30.0,-7.1837333333333335,-0.1310666666666667,-1.0410666666666668,-0.1,-15.814533333333332,-5.638933333333332,-14.715466666666671,0,1,0,100.0
21,45.0,1,20.0,2.0,6,2,-10.223,-0.0366,0.1185,4.3186,36.0,27.817999999999998,0,20.0,0.0,30.0,-7.427,-0.137,-1.0470000000000002,-0.1,-14.616,-5.188,-16.359,0,1,0,100.0
21,46.0,1,20.0,2.0,6,2,-10.089599999999999,-0.03412,-0.026960000000000626,4.1128,36.0,27.83,0,20.0,0.0,30.0,-7.517999999999999,-0.14,-1.0688000000000002,-0.10880000000000006,-10.268799999999986,-3.6103999999999954,-21.358400000000014,0,1,0,100.0
21,47.0,1,20.0,2.0,6,2,-9.6746,-0.03798000000000001,-0.2646399999999999,4.737120000000002,36.0,27.7838,0,19.0,0.0,30.0,-6.320199999999999,-0.12339999999999998,-1.07,-0.12660000000000002,-5.170799999999996,-2.6075999999999997,-22.9228,0,1,0,100.0
21,48.0,1,20.0,0.5599999999999908,6,2,-9.4516,-0.04044000000000001,-0.19211999999999965,5.033200000000001,36.0,27.7312,0,17.55999999999999,0.0,30.0,-5.801599999999998,-0.11279999999999996,-1.07,-0.13720000000000004,-3.662399999999994,-2.5672,-22.038399999999996,0,1,0,100.0
21,49.0,1,20.0,1.0,6,2,-9.080599999999999,-0.04055999999999999,0.09804000000000083,4.786159999999998,36.0,27.7354,0,18.0,0.0,30.0,-5.271599999999999,-0.09779999999999996,-1.06,-0.15,-2.1171999999999964,-2.6156,-20.224799999999995,0,1,0,100.0
21,50.0,1,20.0,1.0,6,2,-8.26,-0.027,0.398,2.945,36.0,27.97,0,18.0,0.0,30.0,-4.97,-0.09,-1.04,-0.17,-0.58,-2.07,-18.21,0,1,0,100.0
21,51.0,1,20.0,1.0,6,2,-7.793499999999999,-0.02182999999999999,0.20834999999999987,2.436689999999999,36.0,28.0156,0,18.0,0.0,30.0,-4.8949,-0.09,-1.0361,-0.17390000000000003,-0.14079999999999904,-1.3220999999999978,-18.428700000000003,0,1,0,100.0
21,52.0,1,20.0,1.0,6,2,-7.3839999999999995,-0.018879999999999994,0.13323999999999978,2.17328,36.0,28.04,0,18.0,0.0,30.0,-4.756,-0.08439999999999998,-1.0244,-0.18560000000000001,0.1756000000000006,-0.6027999999999987,-18.854000000000003,0,1,0,100.0
21,53.0,1,20.0,1.0,6,2,-6.628799999999998,-0.016329999999999997,0.06861000000000038,1.8611999999999993,36.0,28.0601,0,18.0,0.0,30.0,-4.282399999999999,-0.07329999999999996,-1.0132999999999999,-0.19670000000000004,0.684100000000001,0.6151000000000024,-19.484,0,1,0,100.0
21,54.0,1,20.0,1.0,6,2,-6.096799999999998,-0.013759999999999991,0.11063999999999999,1.5379599999999989,36.0,28.0748,0,18.0,0.0,30.0,-3.8291999999999984,-0.06879999999999996,-1.0088,-0.2,1.006400000000001,1.3116000000000019,-19.5928,0,1,0,100.0
21,55.0,1,20.0,1.0,6,2,-5.447,-0.0093,0.1737,0.9928999999999999,36.0,28.11,0,18.0,0.0,30.0,-3.2239999999999998,-0.06,-1.0,-0.209,1.425,2.05,-19.432000000000002,0,1,0,100.0
21,56.0,1,20.0,1.0,6,2,-4.554199999999998,-0.003319999999999993,0.07569999999999967,0.15235999999999914,36.0,28.1202,0,18.0,0.0,30.0,-2.370999999999999,-0.04,-0.9965999999999999,-0.21,2.2226000000000012,3.002400000000001,-19.0992,0,1,0,100.0
21,57.0,1,20.0,1.0,6,2,-3.7843999999999993,0.0009200000000000046,0.11399999999999966,-0.3727600000000006,36.0,28.11,0,18.0,0.0,30.0,-1.6097999999999992,-0.025399999999999978,-0.99,-0.21,3.059400000000001,3.718000000000001,-18.831,0,1,0,100.0
21,58.0,1,20.0,1.0,6,2,-3.3667999999999982,0.0026200000000000047,0.10926000000000057,-0.6089600000000007,36.0,28.11,0,18.0,0.0,30.0,-1.1681999999999981,-0.02,-0.99,-0.21,3.511800000000002,4.041200000000001,-18.613599999999998,0,1,0,100.0
21,59.0,1,20.0,1.0,6,2,-2.506399999999999,0.006010000000000002,0.03510000000000025,-0.9165900000000003,36.0,28.11,0,18.0,0.0,30.0,-0.24639999999999918,0.0,-0.99,-0.21,4.424400000000001,4.5211,-17.8665,0,1,0,100.0
21,60.0,1,20.0,1.0,6,2,-2.186,0.0069,0.133,-1.0581,36.0,28.11,0,18.0,0.0,30.0,0.07399999999999998,0.0,-0.99,-0.21,4.816000000000001,4.619,-17.555,0,1,0,100.0
21,61.0,1,20.0,1.0,6,2,-1.5970000000000015,0.009579999999999995,0.07435999999999982,-1.3065999999999995,36.0,28.11,0,18.0,0.0,30.0,0.6355999999999986,0.01,-0.99,-0.21,5.717999999999997,4.6916,-17.033400000000004,0,1,0,100.0
21,62.0,1,20.0,1.0,6,2,-0.9775999999999954,0.012360000000000013,0.08972000000000105,-1.612360000000003,36.0,28.095599999999997,0,18.0,0.0,30.0,1.1952000000000045,0.02,-0.99,-0.21,6.920000000000011,4.7,-16.645999999999997,0,1,0,100.0
21,63.0,1,20.0,1.0,6,2,-0.29079999999999895,0.015760000000000007,0.11677999999999994,-2.139120000000001,36.0,28.0586,0,18.0,0.0,30.0,1.827800000000001,0.03380000000000003,-0.99,-0.21,8.550600000000003,4.6938,-16.4072,0,1,0,100.0
21,64.0,1,20.0,1.0,6,2,-0.08906666666666617,0.016946666666666672,0.10550666666666664,-2.3313600000000005,36.0,28.0408,0,18.0,0.0,30.0,2.011733333333334,0.03973333333333335,-0.99,-0.21,9.0668,4.6997333333333335,-16.3716,0,1,0,100.0
21,65.0,1,20.0,2.0,6,2,0.862,0.021,-0.03820000000000001,-2.6485999999999996,36.0,28.034,0,19.0,0.0,30.0,2.7755,0.0485,-0.9984999999999999,-0.2015,11.6365,5.031499999999999,-16.788,0,1,0,100.0
21,66.0,1,20.0,2.0,6,2,1.6367999999999994,0.019520000000000006,-0.05139999999999963,-2.346400000000001,36.0,28.04,0,19.0,0.0,30.0,3.122,0.05239999999999998,-1.01,-0.19760000000000003,13.602799999999998,5.4956,-18.194799999999997,0,1,0,100.0
21,67.0,1,20.0,2.0,6,2,1.9632000000000043,0.017219999999999958,-0.1940600000000011,-2.0037799999999946,36.0,28.0478,0,19.0,0.0,30.0,3.1574,0.06,-1.0126000000000002,-0.19,14.298200000000008,5.699800000000003,-19.34700000000002,0,1,0,100.0
21,68.0,1,20.0,2.0,6,2,2.3612000000000015,0.012919999999999982,-0.25764000000000004,-1.4317999999999975,36.0,28.0908,0,19.0,0.0,30.0,3.1239999999999997,0.06,-1.0252000000000001,-0.19,14.891600000000002,6.015600000000002,-21.43920000000001,0,1,0,100.0
21,69.0,1,20.0,2.0,6,2,3.100600000000002,0.0035399999999999863,-0.21877999999999967,-0.18925999999999743,36.0,28.1346,0,19.0,0.0,30.0,3.0764,0.06,-1.0482,-0.17179999999999995,14.843999999999998,6.7852000000000015,-27.270800000000015,0,1,0,100.0
21,70.0,1,20.0,2.0,6,2,3.752,-0.0014000000000000002,-0.1528,0.3788,36.0,28.116,0,19.0,0.0,30.0,3.344,0.06,-1.05,-0.152,13.356,7.812,-33.592,0,1,0,100.0
21,71.0,1,20.0,2.0,6,2,4.310599999999998,-0.004,-0.07308000000000082,0.5647800000000003,36.0,28.11,0,19.0,0.0,30.0,3.4292000000000007,0.06,-1.0462,-0.13620000000000004,11.371800000000006,9.660199999999993,-37.395399999999995,0,1,0,100.0
21,72.0,1,20.0,0.0,6,2,4.984000000000005,-0.004,0.019600000000001158,0.35916,36.0,28.1352,0,17.0,0.0,30.0,2.479999999999983,0.04679999999999973,-1.0384,-0.11839999999999987,8.929999999999984,14.227200000000053,-36.81639999999995,0,1,0,100.0
21,73.0,1,20.0,0.9400000000000092,6,2,5.714800000000004,-0.003059999999999991,0.07689999999999986,0.29325999999999935,36.0,28.11,0,17.94000000000001,0.0,30.0,-0.29960000000001674,-0.007600000000000366,-1.03,-0.11,6.87419999999999,21.88160000000004,-28.307599999999944,0,1,0,100.0
21,74.0,1,20.0,1.0,1,5,6.486800000000002,-0.003,0.05028000000000022,0.30296000000000045,36.0,28.1184,0,18.0,0.0,30.720000000000006,-4.490000000000012,-0.07880000000000018,-1.03,-0.11,5.299599999999996,29.235600000000016,-13.475199999999958,0,1,0,100.0
21,75.0,1,20.0,0.0,1,6,7.3475,0.025500000000000002,2.54025,1.1800000000000002,36.0,28.0175,0,19.0,0.0,31.0,-9.22,-0.17,-1.03,-0.1175,4.0525,29.97,4.6175,0,1,0,100.0
21,76.0,1,20.0,0.0,1,6,8.184266666666666,0.12807999999999994,2.4978800000000008,2.361226666666666,36.0,27.93,0,19.0,0.0,31.0,-12.3552,-0.23,-1.04,-0.13093333333333332,4.062933333333333,16.29840000000001,19.685733333333328,0,1,0,100.0
21,77.0,1,20.0,0.0,1,6,8.338533333333334,0.14766000000000015,2.223759999999998,2.572453333333335,36.0,27.93,0,19.0,0.0,31.0,-12.515400000000001,-0.23,-1.04,-0.13686666666666672,4.335866666666669,11.01179999999996,22.201466666666686,0,1,0,100.0
21,78.0,1,20.0,0.0,1,6,8.694,0.2034800000000002,1.3633999999999966,3.369080000000002,36.0,27.8664,0,19.0,0.0,31.0,-11.316399999999991,-0.2131999999999998,-1.04,-0.1684000000000001,5.542000000000005,-7.912000000000076,28.883600000000023,0,1,0,100.0
21,79.0,1,20.0,0.0,1,6,8.5284,0.24444000000000005,0.7678999999999998,4.106560000000001,36.0,27.79,0,19.0,0.0,31.0,-6.18639999999999,-0.11519999999999983,-1.0338,-0.2124000000000001,5.104399999999996,-21.76420000000001,34.55080000000001,0,1,0,100.0
21,80.0,1,20.0,0.0,1,6,8.278,0.2546,0.5958,4.3788,36.0,27.769000000000002,0,19.0,0.0,31.0,-3.598,-0.065,-1.03,-0.227,3.657,-23.219,36.454,0,1,0,100.0
21,81.0,1,20.0,0.0,1,6,7.774400000000002,0.26372,0.3755400000000011,4.739099999999998,36.0,27.7146,0,19.0,0.0,31.0,0.15439999999998827,-0.0010000000000002275,-1.0182,-0.25179999999999997,0.48760000000001225,-22.983400000000003,38.666999999999994,0,1,0,100.0
21,82.0,1,20.0,0.0,1,6,6.969199999999994,0.2708400000000001,0.18548000000000017,5.0728800000000005,36.0,27.69,0,19.0,0.0,31.0,4.698800000000035,0.07840000000000055,-0.9907999999999997,-0.2696000000000002,-4.56120000000004,-21.281199999999984,40.243600000000015,0,1,0,100.0
21,83.0,1,20.0,0.37000000000000455,3,7,5.594299999999998,0.273,0.09362999999999955,5.401400000000001,36.0,27.65,0,19.370000000000005,0.0,31.0,10.41400000000001,0.17480000000000018,-0.9662999999999999,-0.28,-12.190300000000015,-18.902599999999996,39.3075,0,1,0,100.0
21,84.0,1,20.0,0.5200000000000046,3,7,4.2319999999999975,0.273,-0.05135999999999986,5.471,36.0,27.65,0,19.520000000000003,0.0,31.0,14.700000000000006,0.24560000000000015,-0.9447999999999999,-0.2748,-18.67040000000001,-16.592799999999997,35.21239999999999,0,1,0,100.0
21,85.0,1,20.0,0.35,3,7,3.4975,0.27235000000000004,-0.075,5.43235,36.0,27.65,0,19.35,0.0,31.0,16.437,0.273,-0.9335,-0.2635,-21.339,-15.6115,31.766000000000002,0,1,0,100.0
21,86.0,1,20.0,0.0,3,7,2.590400000000003,0.26172000000000006,-0.8324399999999971,6.220639999999997,36.0,27.574399999999997,0,19.0,0.0,31.0,17.758399999999998,0.30079999999999996,-0.9308,-0.23840000000000008,-22.96,-16.08239999999999,26.07320000000002,0,1,0,100.0
21,87.0,1,20.0,0.0,3,7,1.5211999999999921,0.22463999999999965,-1.980420000000009,7.341760000000006,36.0,27.4756,0,19.0,0.0,31.0,17.737799999999996,0.31,-0.9572000000000003,-0.1941999999999996,-21.672199999999982,-20.54720000000004,17.534599999999934,0,1,0,100.0
21,88.0,1,20.0,0.0,3,7,0.4799999999999977,0.1416399999999998,-3.4846000000000035,7.652319999999998,36.0,27.6176,0,19.0,0.0,31.0,16.435799999999997,0.29179999999999995,-0.9964000000000001,-0.1271999999999998,-18.01359999999999,-25.471600000000006,9.300599999999983,0,1,0,100.0
21,89.0,1,20.0,0.0,3,7,-0.22380000000000178,0.045539999999999706,-4.203079999999998,5.7002799999999905,36.0,27.9356,0,19.0,0.0,31.0,14.942599999999995,0.27159999999999995,-1.0184000000000002,-0.08159999999999991,-15.009799999999991,-25.966199999999997,5.799999999999995,0,1,0,100.0
21,90.0,1,20.0,0.0,3,7,-0.808,-0.0469,-2.8213999999999997,2.0034,36.0,28.137,0,19.0,0.0,31.0,13.432,0.249,-1.0510000000000002,-0.059,-11.915,-23.016,5.617,0,1,0,100.0
21,91.0,1,20.0,0.0,3,7,-1.0571999999999995,-0.07270999999999993,-1.1517600000000043,0.7075600000000033,36.0,28.1103,0,19.0,0.0,31.0,12.737800000000002,0.2401,-1.0599,-0.050100000000000026,-10.179500000000004,-20.399400000000007,6.5692999999999975,0,1,0,100.0
21,92.0,1,20.0,0.0,3,7,-1.5456000000000008,-0.076,-0.02568000000000161,0.8341200000000009,36.0,28.11,0,19.0,0.0,31.0,10.656399999999996,0.20119999999999993,-1.07,-0.06,-4.849199999999989,-11.31799999999998,10.228400000000008,0,1,0,100.0
21,93.0,1,20.0,1.0,3,7,-1.6808,-0.08593000000000003,-0.7289100000000022,1.187490000000001,36.0,28.1331,0,20.0,0.0,31.0,9.203999999999995,0.17459999999999992,-1.07,-0.07770000000000005,-2.4229999999999947,-6.936899999999991,12.551000000000005,0,1,0,100.0
21,94.0,1,20.0,0.0,3,7,-1.73,-0.11696000000000002,-0.570439999999999,0.8612799999999998,36.0,28.11,0,19.0,0.0,31.0,7.002399999999997,0.12679999999999997,-1.0584,-0.10160000000000002,-0.665999999999999,-3.3403999999999976,16.400400000000005,0,1,0,100.0
21,95.0,1,20.0,0.0,3,7,-1.729,-0.12179999999999999,-0.1245,0.7966000000000001,36.0,28.11,0,19.0,0.0,31.0,5.946000000000001,0.108,-1.049,-0.111,-0.307,-2.363,17.949,0,1,0,100.0
21,96.0,1,20.0,0.0,3,7,-1.72,-0.11471999999999989,0.5360400000000074,0.5449999999999964,36.0,28.11,0,19.0,0.0,31.0,3.650799999999976,0.06359999999999945,-1.0312,-0.12,0.00560000000000218,-0.9463999999999869,19.57640000000001,0,1,0,100.0
21,97.0,1,20.0,0.0,3,7,-1.7566000000000002,-0.0912099999999999,0.8929999999999993,0.6755300000000005,36.0,28.11,0,19.0,0.0,31.0,1.016099999999991,0.015099999999999796,-1.0217,-0.1383000000000001,0.12150000000000034,0.07690000000000294,17.91839999999999,0,1,0,100.0
21,98.0,1,20.0,0.0,3,7,-1.8876000000000004,-0.06867999999999998,0.45568,0.81678,36.0,28.11,0,19.0,0.0,31.0,-1.695800000000004,-0.03220000000000005,-1.0078,-0.15220000000000003,0.33740000000000075,0.5688000000000002,11.409799999999985,0,1,0,100.0
21,99.0,1,20.0,0.0,3,7,-1.961,-0.06322999999999998,0.4554000000000001,0.8136899999999999,36.0,28.11,0,19.0,0.0,31.0,-2.467000000000002,-0.041100000000000025,-1.0,-0.16110000000000002,0.49750000000000055,0.5977999999999999,8.363899999999992,0,1,0,100.0
21,100.0,1,20.0,0.0,3,7,-2.05,-0.057,0.491,0.795,36.0,28.11,0,19.0,0.0,31.0,-3.09,-0.05,-1.0,-0.17,0.72,0.58,5.24,0,1,0,100.0
27,0.0,1,20.0,0.0,0,1,-6.75,-0.069,0.536,0.625,37.0,28.11,0,19.0,0.0,36.0,-6.4,-0.11,-0.99,-0.18,1.38,4.62,-4.81,0,1,0,100.0
27,1.0,1,20.0,0.0,0,1,-6.8755,-0.06645000000000001,0.614405,0.0,37.0,28.14,0,14.0,0.0,36.0,-6.71315,-0.12,-0.99,-0.19,2.38185,4.2945,-9.45445,0,1,0,100.0
27,2.0,1,20.0,0.0,0,1,-6.9516,-0.05876,0.7118,0.0,37.0,28.14,0,14.0,0.0,36.0,-6.81,-0.12,-0.99,-0.19,3.0496,4.2202,-12.0404,0,1,0,100.0
27,3.0,1,20.0,0.0,0,1,-7.1006,-0.030760000000000006,1.01806,0.0,37.0,28.14,0,14.0,0.0,36.0,-6.67495,-0.11735,-0.99,-0.19,5.410049999999999,4.31855,-18.3984,0,1,0,100.0
27,4.0,1,20.0,0.0,0,1,-7.13,-0.018240000000000003,1.03612,0.0,37.0,28.14,0,14.0,0.0,36.0,-6.5416,-0.11,-0.99,-0.19,6.319599999999999,4.372,-20.3844,0,1,0,100.0
27,5.0,1,20.0,0.0,0,1,-7.119,0.01045,1.3638,0.0,37.0,28.14,0,14.0,0.0,36.0,-6.2135,-0.11,-0.99,-0.19,8.213999999999999,4.409,-24.419,0,1,0,100.0
27,6.0,1,20.0,0.0,0,1,-7.0434,0.04007999999999999,1.19998,0.0,37.0,28.14,0,14.0,0.0,36.0,-5.8096000000000005,-0.1,-0.99,-0.19,10.2364,4.2208000000000006,-28.9062,0,1,0,100.0
27,7.0,1,20.0,0.0,0,1,-6.74585,0.076705,0.874045,0.0,37.0,28.14,0,14.0,0.0,36.0,-4.90895,-0.08714999999999999,-0.99285,-0.18715,13.57885,3.3789,-36.314750000000004,0,1,0,100.0
27,8.0,1,20.0,0.0,0,1,-6.3576,0.10096000000000001,0.9643600000000001,0.0,37.0,28.14,0,14.0,0.0,36.0,-3.8440000000000003,-0.06920000000000001,-1.0008,-0.18,16.5428,2.6064000000000003,-42.2048,0,1,0,100.0
27,9.0,1,20.0,0.0,0,1,-6.0351,0.112,0.4534966666666665,0.0,37.0,28.14,0,14.0,0.0,36.0,-3.0584,-0.05606666666666666,-1.01,-0.18,18.363033333333334,2.499166666666667,-45.560833333333335,0,1,0,100.0
27,10.0,1,20.0,0.0,0,1,-5.869,0.112,0.10669999999999998,0.0,37.0,28.14,0,14.0,0.0,36.0,-2.696,-0.046,-1.01,-0.18,19.113,2.625,-46.945,0,1,0,100.0
27,11.0,1,20.0,0.0,0,1,-4.8036,0.08229,-1.40037,0.0,37.0,28.14,0,14.0,0.0,36.0,-0.9514000000000002,-0.016950000000000003,-1.03305,-0.17,21.6937,5.867249999999999,-51.96655,0,1,0,100.0
27,12.0,1,20.0,0.0,0,1,-3.8604000000000007,0.04244000000000001,-1.267800000000001,0.0,37.0,28.14,0,14.0,0.0,36.0,-0.48679999999999957,-0.01119999999999999,-1.0512000000000001,-0.17,21.5836,11.334399999999995,-51.269600000000004,0,1,0,100.0
27,13.0,1,20.0,0.0,0,1,-3.1515500000000007,0.030685,-0.3537150000000006,0.0,37.0,28.14,0,14.0,0.0,36.0,-1.167049999999999,-0.02314999999999999,-1.06,-0.17315,20.159850000000002,15.990549999999997,-47.0305,0,1,0,100.0
27,14.0,1,20.0,0.0,0,1,-2.0016999999999996,0.02993,-0.03862000000000002,0.0,37.0,28.14,0,14.0,0.0,36.0,-3.7640000000000007,-0.07280000000000002,-1.05,-0.1807,16.1423,22.2584,-35.189,0,1,0,100.0
27,15.0,1,20.0,0.0,0,1,-1.48075,0.029175,-0.08845,0.0,37.0,28.14,0,14.0,0.0,36.0,-5.425,-0.103,-1.05,-0.18825,13.79425,23.859,-28.1675,0,1,0,100.0
27,16.0,1,20.0,0.15999999999999945,0,1,0.1587999999999996,0.022,-0.16440000000000016,0.0,37.0,28.14,0,14.16,0.0,36.0,-10.929599999999999,-0.20479999999999998,-1.05,-0.2,5.928000000000003,22.0896,-3.835600000000006,0,1,0,100.0
27,17.0,1,20.0,1.0,0,1,0.9443999999999997,0.022,0.036015,0.0,37.0,28.14,0,15.0,0.0,36.0,-13.182599999999999,-0.24339999999999998,-1.05,-0.2,2.318750000000002,16.837000000000003,8.029149999999994,0,1,0,100.0
27,18.0,1,20.0,1.0,0,1,1.9700000000000002,0.023,0.06429999999999997,0.0,37.0,28.14,0,15.0,0.0,36.0,-15.224,-0.2806,-1.05,-0.2,-1.7712000000000006,5.355999999999997,23.058200000000003,0,1,0,100.0
27,19.0,1,20.0,1.0,0,1,2.2216666666666662,0.023,0.016483333333333412,0.0,37.0,28.14,0,15.0,0.0,36.0,-15.425333333333333,-0.28563333333333335,-1.05,-0.2,-2.5362666666666653,1.3796666666666721,26.56643333333333,0,1,0,100.0
27,20.0,1,20.0,1.0,0,1,2.52,0.023,-0.0362,0.0,37.0,28.14,0,15.0,0.0,36.0,-15.568,-0.29,-1.052,-0.198,-3.3840000000000003,-3.6719999999999997,30.736,0,1,0,100.0
27,21.0,1,20.0,1.0,0,1,3.2577999999999996,0.023,-0.05926999999999988,0.0,37.0,28.14,0,15.0,0.0,36.0,-14.110000000000003,-0.2658000000000001,-1.06,-0.19,-4.704899999999999,-22.226299999999977,42.14369999999999,0,1,0,100.0
27,22.0,1,20.0,1.0,0,1,3.2460000000000004,0.023,-0.0031400000000000147,0.0,37.0,28.14,0,15.0,0.0,36.0,-10.705800000000002,-0.20340000000000003,-1.06,-0.19,-5.2234,-33.544,48.5214,0,1,0,100.0
27,23.0,1,20.0,1.0,0,1,2.9804999999999997,0.023,-0.003220000000000016,0.0,37.0,28.14,0,15.0,0.0,36.0,-8.825849999999999,-0.16539999999999996,-1.06,-0.19365000000000002,-5.874700000000001,-35.5374,50.56035,0,1,0,100.0
27,24.0,1,20.0,1.2399999999999978,0,1,2.247600000000001,0.023,-0.015,0.0,37.0,28.14,0,15.239999999999998,0.0,36.0,-5.560400000000004,-0.10280000000000007,-1.0476,-0.2024,-7.8379999999999965,-35.15520000000001,53.080799999999996,0,1,0,100.0
27,25.0,1,20.0,2.0,0,1,1.71,0.023,-0.011999999999999999,0.0,37.0,28.14,0,16.0,0.0,36.0,-3.75,-0.07,-1.0375,-0.21,-9.3675,-33.43,53.885000000000005,0,1,0,100.0
27,26.0,1,20.0,2.0,0,1,1.4080000000000006,0.023,-0.005960000000000013,0.0,37.0,28.14,0,16.0,0.0,36.0,-2.844000000000002,-0.04986666666666671,-1.0324666666666666,-0.21,-10.228199999999998,-32.2824,54.0964,0,1,0,100.0
27,27.0,1,20.0,1.0,0,1,-0.45029999999999953,0.020460000000000002,-0.20885499999999985,0.0,37.0,28.14,0,15.0,0.0,36.0,1.859899999999999,0.03154999999999998,-1.00615,-0.20615,-15.0953,-24.95045,52.188500000000005,0,1,0,100.0
27,28.0,1,20.0,1.0,0,1,-1.985200000000001,0.00847999999999999,-0.6028800000000002,0.0,37.0,28.14,0,15.0,0.0,36.0,5.036800000000001,0.08840000000000003,-0.9843999999999999,-0.18719999999999998,-18.126800000000003,-20.048,47.20399999999999,0,1,0,100.0
27,29.0,1,20.0,1.0,0,1,-2.925749999999999,-0.0003699999999999934,-0.44098000000000076,0.0,37.0,28.14,0,15.0,0.0,36.0,6.7208999999999985,0.11789999999999998,-0.96605,-0.18,-19.48475,-17.8364,42.71905,0,1,0,100.0
27,30.0,1,20.0,0.85,0,1,-3.5675,-0.004,-0.0497,0.0,37.0,28.14,0,14.85,0.0,36.0,7.766,0.133,-0.9584999999999999,-0.1785,-20.238500000000002,-16.6415,39.114,0,1,0,100.0
27,31.0,1,20.0,0.09500000000000165,0,1,-4.209249999999998,-0.004,-0.1387899999999998,0.0,37.0,28.14,0,14.095000000000002,0.0,36.0,8.702199999999998,0.14809999999999995,-0.95095,-0.17095000000000002,-20.83495,-15.743050000000002,35.00680000000001,0,1,0,100.0
27,32.0,1,20.0,0.0,0,1,-6.173199999999999,-0.03311999999999998,-1.2280000000000002,0.0,37.0,28.14,0,14.0,0.0,36.0,10.6748,0.1732,-0.9368,-0.15,-22.0192,-14.2544,19.939200000000007,0,1,0,100.0
27,33.0,1,20.0,0.5849999999999994,0,1,-7.6656,-0.08067500000000002,-2.8066800000000023,0.0,37.0,28.14,0,14.584999999999999,0.0,36.0,10.253499999999999,0.1717,-0.93,-0.14,-22.4085,-13.863,7.372549999999998,0,1,0,100.0
27,34.0,1,20.0,0.6600000000000023,0,1,-8.779999999999998,-0.2355799999999998,-5.9864600000000046,0.0,37.0,28.14,0,14.660000000000002,0.0,36.0,6.904400000000005,0.11640000000000009,-0.9533999999999999,-0.12660000000000002,-21.251600000000003,-15.114599999999998,0.8626000000000026,0,1,0,100.0
27,35.0,1,20.0,0.0,0,1,-9.28425,-0.3015,-2.356975,0.0,37.0,28.14,0,14.0,0.0,36.0,4.357,0.073,-0.97275,-0.11574999999999999,-19.6975,-16.43975,0.27449999999999997,0,1,0,100.0
27,36.0,1,20.0,0.0,0,1,-9.6424,-0.30832,0.6934800000000005,0.0,37.0,28.14,0,14.0,0.0,36.0,2.2403999999999953,0.039199999999999936,-0.9972000000000001,-0.10639999999999998,-18.017999999999994,-17.566000000000003,0.8192000000000021,0,1,0,100.0
27,37.0,1,20.0,0.8699999999999932,0,1,-10.086199999999998,-0.29130000000000006,0.6201900000000018,0.0,37.0,28.14,0,14.869999999999994,0.0,36.0,-0.6672999999999877,-0.014799999999999728,-1.0273999999999999,-0.09130000000000006,-15.073500000000013,-18.896399999999993,2.2664999999999935,0,1,0,100.0
27,38.0,1,20.0,1.0,0,1,-10.4804,-0.27296000000000004,0.48226000000000097,0.0,37.0,28.14,0,15.0,0.0,36.0,-3.9937999999999954,-0.07759999999999992,-1.0638,-0.06620000000000005,-11.253000000000005,-18.7116,2.8138000000000023,0,1,0,100.0
27,39.0,1,20.0,1.0,0,1,-10.5478,-0.26711,0.19937500000000036,0.0,37.0,28.14,0,15.0,0.0,36.0,-5.002699999999999,-0.09444999999999999,-1.0744500000000001,-0.06,-10.108350000000002,-17.83165,2.136200000000001,0,1,0,100.0
27,40.0,1,20.0,0.6,0,1,-10.572000000000001,-0.266,0.0442,0.0,37.0,28.14,0,14.6,0.0,36.0,-6.516,-0.124,-1.076,-0.07,-8.412,-15.376000000000001,0.376,0,1,0,100.0
27,41.0,1,20.0,0.0,0,1,-10.547866666666668,-0.26478666666666667,0.14579333333333364,0.0,37.0,28.14,0,14.0,0.0,36.0,-7.1393,-0.13303333333333334,-1.07,-0.07303333333333335,-7.743733333333333,-14.0359,-0.4430000000000007,0,1,0,100.0
27,42.0,1,20.0,0.0,0,1,-10.527733333333334,-0.26277333333333336,0.3561866666666657,0.0,37.0,28.14,0,14.0,0.0,36.0,-7.486599999999998,-0.13806666666666664,-1.07,-0.07806666666666665,-7.401466666666668,-13.265800000000004,-0.895999999999998,0,1,0,100.0
27,43.0,1,20.0,0.0,0,1,-10.37745,-0.22802500000000003,1.0755700000000001,0.0,37.0,28.14,0,14.0,0.0,36.0,-9.346199999999998,-0.17464999999999997,-1.04535,-0.10464999999999998,-5.8728500000000015,-9.478750000000003,-4.575349999999995,0,1,0,100.0
27,44.0,1,20.0,0.0,0,1,-10.3224,-0.2167,0.9772200000000002,0.0,37.0,28.14,0,14.0,0.0,36.0,-9.842,-0.18219999999999997,-1.0378,-0.1122,-5.49,-8.565800000000001,-6.178999999999997,0,1,0,100.0
27,45.0,1,20.0,0.0,0,1,-10.262,-0.20537499999999997,0.826975,0.0,37.0,28.14,0,14.0,0.0,36.0,-10.295,-0.18975,-1.03025,-0.11975,-5.1125,-7.72775,-8.02875,0,1,0,100.0
27,46.0,1,20.0,0.0,0,1,-10.0586,-0.17839999999999998,0.7312599999999997,0.0,37.0,28.14,0,14.0,0.0,36.0,-11.2566,-0.2,-1.0154,-0.15,-3.812399999999999,-5.520399999999999,-15.031000000000008,0,1,0,100.0
27,47.0,1,20.0,0.0,0,1,-9.913,-0.1603900000000001,0.8689199999999984,0.0,37.0,28.14,0,14.0,0.0,36.0,-11.437899999999999,-0.2,-1.0003,-0.15969999999999993,-2.918300000000004,-4.489200000000004,-19.218099999999982,0,1,0,100.0
27,48.0,1,20.0,0.0,0,1,-9.6128,-0.13272000000000006,0.7710400000000008,0.0,37.0,28.14,0,14.0,0.0,36.0,-11.026000000000002,-0.19520000000000004,-0.99,-0.18,-1.303200000000003,-3.184000000000002,-24.798399999999994,0,1,0,100.0
27,49.0,1,20.0,0.0,0,1,-9.45585,-0.12106000000000001,0.8007699999999998,0.0,37.0,28.14,0,14.0,0.0,36.0,-10.68685,-0.18505000000000002,-0.99,-0.18494999999999998,-0.6382500000000008,-2.7520000000000007,-26.50735,0,1,0,100.0
27,50.0,1,20.0,0.0,0,1,-9.28,-0.109,0.8545,0.0,37.0,28.14,0,14.0,0.0,36.0,-10.29,-0.18,-0.99,-0.19,0.010000000000000009,-2.365,-27.925,0,1,0,100.0
27,51.0,1,20.0,0.0,0,1,-8.8688,-0.08392999999999998,0.91282,0.0,37.0,28.14,0,14.0,0.0,36.0,-9.362549999999999,-0.16494999999999999,-0.98,-0.19,1.2881500000000008,-1.6633499999999997,-30.175000000000004,0,1,0,100.0
27,52.0,1,20.0,0.0,0,1,-8.614800000000002,-0.0702400000000001,0.9459599999999994,0.0,37.0,28.14,0,14.0,0.0,36.0,-8.849600000000002,-0.15480000000000008,-0.98,-0.19519999999999993,1.922399999999996,-1.338800000000002,-31.163999999999994,0,1,0,100.0
27,53.0,1,20.0,0.0,0,1,-8.205200000000001,-0.04880500000000003,0.93376,0.0,37.0,28.14,0,14.0,0.0,36.0,-8.041450000000003,-0.13985000000000003,-0.98,-0.2,2.8489999999999984,-0.9061000000000006,-32.55395,0,1,0,100.0
27,54.0,1,20.0,0.0,6,2,-7.9636000000000005,-0.03899000000000001,0.92168,0.0,37.0,28.14,0,14.0,0.0,36.0,-7.611100000000001,-0.13230000000000003,-0.98,-0.2,3.301999999999999,-0.7098000000000003,-33.256099999999996,0,1,0,100.0
27,55.0,1,20.0,0.0,6,2,-7.1605,-0.013600000000000001,0.7689,-0.17265,37.0,28.14,0,18.0,0.0,36.0,-6.238499999999999,-0.1095,-0.9804999999999999,-0.2,4.7785,-0.428,-35.236000000000004,0,1,0,100.0
27,56.0,1,20.0,0.0,6,2,-6.554799999999999,-0.003199999999999989,0.29399999999999954,-0.4305200000000004,37.0,28.1232,0,18.0,0.0,36.0,-5.287199999999999,-0.09439999999999998,-0.99,-0.2,6.008400000000002,-0.3563999999999999,-36.239200000000004,0,1,0,100.0
27,57.0,1,20.0,0.5349999999999966,6,2,-6.129250000000002,0.0006049999999999899,0.13645000000000043,-0.6254449999999993,37.0,28.11,0,18.534999999999997,0.0,36.0,-4.667600000000002,-0.08465000000000003,-0.99,-0.2,6.940349999999997,-0.24440000000000056,-36.7147,0,1,0,100.0
27,58.0,1,20.0,1.0,6,2,-5.647400000000002,0.004319999999999982,0.16241999999999934,-0.8991999999999987,37.0,28.11,0,19.0,0.0,36.0,-4.0046000000000035,-0.06840000000000009,-0.99,-0.19420000000000004,8.047999999999995,-0.0018000000000013023,-37.072399999999995,0,1,0,100.0
27,59.0,1,20.0,1.0,6,2,-4.161150000000001,0.01,0.048805000000000195,-1.348475,37.0,28.11,0,19.0,0.0,36.0,-2.2720500000000006,-0.04,-1.00545,-0.19,11.327699999999998,1.5651499999999994,-37.971599999999995,0,1,0,100.0
27,60.0,1,20.0,1.0,6,2,-3.59,0.01,-0.0692,-1.3142,37.0,28.11,0,19.0,0.0,36.0,-1.77,-0.034,-1.016,-0.19,12.38,2.23,-38.67,0,1,0,100.0
27,61.0,1,20.0,1.0,6,2,-2.7361999999999984,0.009779999999999995,-0.0266800000000002,-1.1644499999999995,37.0,28.11,0,19.0,0.0,36.0,-1.171499999999999,-0.02,-1.0311000000000001,-0.17889999999999998,13.579400000000001,2.8998000000000004,-40.38700000000001,0,1,0,100.0
27,62.0,1,20.0,1.0,6,2,-2.037100000000002,0.007380000000000007,-0.13289999999999969,-0.8800100000000011,37.0,28.11,0,19.0,0.0,36.0,-0.7608000000000011,-0.016900000000000033,-1.04,-0.17,14.1406,3.0445,-42.59129999999999,0,1,0,100.0
27,63.0,1,20.0,1.0,6,2,-0.9381000000000029,0.003610000000000014,-0.10133999999999992,-0.1933500000000014,37.0,28.14,0,19.0,0.0,36.0,-0.1645000000000016,0.0,-1.0513,-0.15870000000000004,14.291400000000001,2.645900000000003,-47.22909999999998,0,1,0,100.0
27,64.0,1,20.0,1.0,6,2,0.01959999999999854,-0.0009199999999999933,-0.24115999999999957,0.41567999999999883,37.0,28.14,0,19.0,0.0,36.0,0.4023999999999991,0.006399999999999978,-1.0664,-0.14360000000000003,13.8696,1.586800000000002,-51.922399999999996,0,1,0,100.0
27,65.0,1,20.0,1.0,6,2,1.3010000000000002,-0.0083,-0.2938,1.2410999999999999,37.0,28.11,0,19.0,0.0,36.0,1.29325,0.02575,-1.07,-0.12425,13.02975,-0.64775,-57.21225,0,1,0,100.0
27,66.0,1,20.0,0.6699999999999988,6,2,2.5376000000000007,-0.01433,-0.04312999999999973,1.75061,37.0,28.07,0,18.669999999999998,0.0,36.0,2.1920000000000006,0.04330000000000001,-1.0567,-0.10669999999999999,12.4769,-3.026800000000001,-58.9367,0,1,0,100.0
27,67.0,1,20.0,0.16999999999999318,6,2,3.147499999999995,-0.01449000000000002,0.13297999999999938,1.6268300000000029,37.0,28.0768,0,18.169999999999995,0.0,36.0,2.46,0.04830000000000007,-1.0483,-0.09830000000000007,12.4436,-3.5527000000000046,-57.563000000000024,0,1,0,100.0
27,68.0,1,20.0,1.0,6,2,4.031799999999998,-0.011320000000000005,0.19162000000000012,1.1933600000000006,37.0,28.11,0,19.0,0.0,36.0,2.273000000000001,0.03660000000000002,-1.0366,-0.08660000000000002,12.5372,-1.8580000000000076,-51.56580000000002,0,1,0,100.0
27,69.0,1,20.0,0.8100000000000136,6,2,5.4819999999999895,-0.006810000000000014,0.11997000000000187,0.7811000000000016,37.0,28.096700000000002,0,19.0,0.0,37.0,0.4779000000000217,0.006200000000000273,-1.0181000000000002,-0.07,12.356900000000007,8.200999999999878,-33.06310000000018,0,1,0,100.0
27,70.0,1,20.0,0.0,1,6,7.449,0.0653,3.0907,1.9242,37.0,27.979,0,19.0,0.0,37.0,-3.921,-0.07100000000000001,-1.0,-0.077,10.136000000000001,33.742000000000004,2.609,0,1,0,100.0
27,71.0,1,20.0,0.0,1,6,8.115599999999997,0.10359499999999983,2.6449050000000023,2.3803649999999976,37.0,27.92765,0,19.0,0.0,37.0,-5.444049999999993,-0.09814999999999986,-1.0,-0.08604999999999996,8.711500000000008,42.90454999999996,14.724499999999942,0,1,0,100.0
27,72.0,1,20.0,0.0,1,6,9.186800000000002,0.15824000000000005,1.970159999999999,3.010240000000001,37.0,27.8832,0,19.0,0.0,37.0,-7.487600000000001,-0.13240000000000002,-1.0,-0.10240000000000002,5.627199999999997,54.632400000000004,32.488000000000014,0,1,0,100.0
27,73.0,1,20.0,0.0,1,6,9.4737,0.17132666666666663,1.7104400000000008,3.337909999999999,37.0,27.847966666666665,0,19.0,0.0,37.0,-7.860066666666666,-0.13743333333333332,-1.0,-0.10743333333333333,4.635633333333336,56.39909999999999,36.61533333333332,0,1,0,100.0
27,74.0,1,20.0,0.0,1,6,10.469333333333331,0.2177133333333333,0.9611200000000015,4.339466666666665,36.24666666666666,27.750133333333334,0,19.0,0.0,37.0,-7.6704666666666705,-0.1375333333333334,-1.0124666666666666,-0.14246666666666663,0.49906666666667227,51.81560000000003,48.767866666666656,0,1,0,100.0
27,75.0,1,20.0,0.0,1,6,10.569999999999999,0.22325,0.7919999999999999,4.571,36.75,27.73,0,19.0,0.0,37.0,-7.2225,-0.1325,-1.0175,-0.1475,-0.11499999999999988,48.705,49.845,0,1,0,100.0
27,76.0,1,20.0,0.37999999999999545,1,6,10.5302,0.24703999999999995,0.45262000000000047,4.764619999999999,36.620000000000005,27.69,0,19.379999999999995,0.0,37.0,-3.0320000000000094,-0.05480000000000018,-1.0262,-0.17379999999999995,-3.031599999999994,28.959800000000033,51.773399999999995,0,1,0,100.0
27,77.0,1,20.0,0.7299999999999954,3,7,10.3082,0.25362,0.39864000000000016,4.8914599999999995,36.0,27.69,0,19.729999999999997,0.0,37.0,-1.1116999999999895,-0.019199999999999818,-1.02,-0.18270000000000003,-4.3009000000000075,22.752499999999973,51.627399999999994,0,1,0,100.0
27,78.0,1,20.0,0.0,3,7,9.701200000000002,0.26189999999999997,0.3050000000000007,4.9394599999999995,36.0,27.69,0,19.0,0.0,37.0,2.3929999999999896,0.04119999999999982,-1.0122,-0.19779999999999998,-7.118999999999991,14.219800000000024,50.8196,0,1,0,100.0
27,79.0,1,20.0,0.0,3,7,8.86150000000001,0.26529,0.1137500000000017,5.323999999999997,36.0,27.65,0,19.0,0.0,37.0,5.8521999999999705,0.10159999999999945,-1.0071,-0.21,-10.679499999999965,7.979500000000048,49.30430000000002,0,1,0,100.0
27,80.0,1,20.0,0.0,3,7,7.082,0.2652,-0.0922,5.4132,36.8,27.65,0,19.0,0.0,37.0,10.902,0.184,-0.982,-0.212,-17.064,0.17600000000000016,44.87,0,1,0,100.0
27,81.0,1,20.0,0.0,3,7,6.406000000000003,0.265,-0.1523299999999996,5.3427750000000005,36.345000000000006,27.65,0,19.0,0.0,37.0,12.344199999999992,0.20964999999999986,-0.97345,-0.21,-19.040299999999988,-2.2274499999999877,42.66150000000001,0,1,0,100.0
27,82.0,1,20.0,0.0,3,7,5.465799999999996,0.26336,-0.17133999999999994,5.264079999999999,36.82000000000001,27.6828,0,19.0,0.0,37.0,14.082600000000006,0.23640000000000008,-0.9617999999999999,-0.20179999999999995,-21.44360000000001,-5.428600000000013,39.13879999999998,0,1,0,100.0
27,83.0,1,20.0,0.6649999999999978,3,7,4.768050000000002,0.26034,-0.33990499999999946,5.321829999999999,37.0,27.69,0,19.665,0.0,37.0,15.104749999999997,0.25329999999999997,-0.95335,-0.19335000000000002,-22.844049999999996,-7.722149999999994,36.17600000000001,0,1,0,100.0
27,84.0,1,20.0,0.1600000000000136,3,7,3.809600000000011,0.24892000000000017,-1.0778399999999895,6.075879999999988,37.0,27.5976,0,19.160000000000014,0.0,37.0,16.12839999999999,0.27679999999999977,-0.95,-0.18160000000000012,-23.89079999999999,-11.401999999999955,31.400000000000055,0,1,0,100.0
27,85.0,1,20.0,0.32499999999999996,3,7,2.38375,0.2121,-1.92575,6.87155,37.0,27.54575,0,19.325,0.0,37.0,16.5865,0.29,-0.96675,-0.14650000000000002,-22.56475,-19.5685,22.35675,0,1,0,100.0
27,86.0,1,20.0,0.0,3,7,0.2540000000000055,0.06526000000000054,-3.8774599999999926,6.198720000000007,37.0,27.836199999999998,0,19.0,0.0,37.0,15.341200000000004,0.2814000000000001,-1.0186,-0.06280000000000018,-15.61200000000002,-31.763199999999983,8.24460000000003,0,1,0,100.0
27,87.0,1,20.0,0.0,3,7,-0.19305000000000122,0.01795499999999987,-3.6087699999999985,4.986889999999996,37.0,27.9833,0,19.0,0.0,37.0,14.828449999999998,0.27315,-1.02685,-0.04629999999999995,-13.851499999999994,-32.24495,6.2903999999999956,0,1,0,100.0
27,88.0,1,20.0,0.0,3,7,-1.0015999999999992,-0.05555999999999995,-1.7879200000000033,1.6206000000000038,37.0,28.1268,0,19.0,0.0,37.0,13.808000000000002,0.25560000000000005,-1.0544,-0.025600000000000022,-10.356400000000004,-29.44000000000001,4.6292,0,1,0,100.0
27,89.0,1,20.0,0.0,3,7,-1.3447999999999956,-0.07133999999999992,-0.5018200000000145,0.5034500000000061,37.0,28.11,0,19.0,0.0,37.0,13.289400000000008,0.24610000000000012,-1.06,-0.02,-8.540700000000026,-26.278000000000052,4.7225999999999955,0,1,0,100.0
27,90.0,1,20.0,0.0,3,7,-1.657,-0.07275,0.1424,0.277,37.0,28.11,0,19.0,0.0,37.0,12.7035,0.2355,-1.0645,-0.0245,-6.635000000000001,-22.128500000000003,5.1235,0,1,0,100.0
27,91.0,1,20.0,0.0,3,7,-2.0473999999999988,-0.06981999999999998,-0.14388999999999882,0.5301499999999999,37.0,28.11,0,19.0,0.0,37.0,11.537600000000007,0.2159000000000001,-1.07,-0.03409999999999991,-3.83900000000001,-14.535000000000032,6.0518999999999945,0,1,0,100.0
27,92.0,1,20.0,0.0,3,7,-2.2660000000000005,-0.0974800000000001,-1.5445600000000035,0.8201600000000003,37.0,28.14,0,19.0,0.0,37.0,9.799199999999997,0.1815999999999999,-1.06,-0.059200000000000044,-1.8363999999999974,-7.226799999999989,8.944800000000008,0,1,0,100.0
27,93.0,1,20.0,0.0,3,7,-2.27715,-0.11687499999999995,-1.7219749999999996,0.7616500000000002,37.0,28.14,0,19.0,0.0,37.0,9.146550000000001,0.17285000000000003,-1.05285,-0.06714999999999999,-1.5183000000000009,-5.592850000000005,10.867499999999994,0,1,0,100.0
27,94.0,1,20.0,1.0,3,7,-2.2559000000000005,-0.15510999999999991,-0.9508900000000076,0.364880000000002,37.0,28.1259,0,20.0,0.0,37.0,7.428900000000008,0.1359000000000002,-1.0453000000000001,-0.08469999999999993,-1.1771000000000005,-2.745500000000009,16.11289999999998,0,1,0,100.0
27,95.0,1,20.0,0.5499999999999999,3,7,-2.2220000000000004,-0.1611,0.0332,0.2332,37.0,28.11,0,19.55,0.0,37.0,6.236,0.111,-1.0355,-0.0945,-1.1535,-1.526,18.793,0,1,0,100.0
27,96.0,1,20.0,0.0,3,7,-2.1412000000000004,-0.13168000000000016,1.244839999999997,0.26023999999999986,37.0,28.11,0,19.0,0.0,37.0,2.5908000000000135,0.04120000000000028,-1.0204000000000002,-0.11,-1.2875999999999994,0.6531999999999939,20.834400000000002,0,1,0,100.0
27,97.0,1,20.0,0.0,3,7,-2.1253,-0.11923999999999997,1.0713099999999995,0.28231500000000004,37.0,28.11,0,19.0,0.0,37.0,1.4348499999999966,0.025299999999999954,-1.01265,-0.11735000000000002,-1.29,0.9960500000000011,19.541099999999993,0,1,0,100.0
27,98.0,1,20.0,0.0,3,7,-2.1298,-0.10226000000000005,0.7462600000000011,0.5555799999999989,37.0,28.11,0,19.0,0.0,37.0,-0.32219999999999377,-0.009399999999999863,-1.01,-0.12979999999999997,-1.2214000000000003,1.3059999999999992,16.29680000000001,0,1,0,100.0
27,99.0,1,20.0,0.0,3,7,-2.1972499999999995,-0.08455000000000007,0.6298900000000005,0.4865800000000008,37.0,28.11,0,19.0,0.0,37.0,-2.319899999999993,-0.037449999999999935,-1.0,-0.14,-0.816500000000002,1.2655000000000007,9.620200000000027,0,1,0,100.0
27,100.0,1,20.0,0.0,3,7,-2.28,-0.073,0.691,0.363,37.0,28.11,0,19.0,0.0,37.0,-3.38,-0.06,-1.0,-0.15,-0.34,1.08,4.39,0,1,0,100.0
29,0.0,1,20.0,0.0,0,1,0.42,-0.024,-3.773,3.669,37.0,28.11,0,19.0,0.0,38.0,13.88,0.25,-1.02,-0.1,-8.99,-24.57,2.84,0,1,0,100.0
29,1.0,1,20.0,0.0,0,1,0.08070000000000001,-0.07359,-3.14312,1.2895500000000006,37.0,28.11,0,19.0,0.0,38.0,13.3493,0.2413,-1.0287,-0.1,-7.5283999999999995,-21.786,3.0401,0,1,0,100.0
29,2.0,1,20.0,0.0,0,1,-0.4924,-0.11252000000000001,-1.810760000000001,0.0,37.0,28.1582,0,14.0,0.0,38.0,12.2608,0.2226,-1.04,-0.1,-4.272,-13.1948,6.0992,0,1,0,100.0
29,3.0,1,20.0,0.21999999999999958,0,1,-0.942,-0.13349999999999998,-1.7864799999999998,0.0,37.0,28.14,0,14.219999999999999,0.0,38.0,10.635000000000002,0.1978,-1.05,-0.11,-1.1694000000000004,-2.2354000000000016,12.187799999999998,0,1,0,100.0
29,4.0,1,20.0,1.0,0,1,-1.0584,-0.16548,-1.7294800000000001,0.0,37.0,28.14,0,15.0,0.0,38.0,9.6324,0.1804,-1.0452000000000001,-0.1148,-0.3648000000000001,1.7551999999999994,16.185599999999997,0,1,0,100.0
29,5.0,1,20.0,1.0,0,1,-1.161,-0.1913,0.03809999999999999,0.0,37.0,28.14,0,15.0,0.0,38.0,7.234,0.129,-1.04,-0.127,0.388,6.392,23.692,0,1,0,100.0
29,6.0,1,20.0,1.0,0,1,-1.1916,-0.18308,0.8035199999999997,0.0,37.0,28.14,0,15.0,0.0,38.0,5.791600000000001,0.10560000000000001,-1.0328,-0.13720000000000002,0.5895999999999999,7.6376,25.999599999999997,0,1,0,100.0
29,7.0,1,20.0,1.0,0,1,-1.2389999999999999,-0.15994000000000003,1.2755000000000007,0.0,37.0,28.14,0,15.0,0.0,38.0,3.4648000000000025,0.06460000000000006,-1.0182,-0.14179999999999998,0.7707999999999999,8.5552,26.719400000000004,0,1,0,100.0
29,8.0,1,20.0,1.0,0,1,-1.3352,-0.13496000000000002,0.7029200000000003,0.0,37.0,28.14,0,15.0,0.0,38.0,0.6572000000000019,0.012400000000000034,-1.01,-0.15,0.8659999999999999,8.4676,23.4876,0,1,0,100.0
29,9.0,1,20.0,1.0,0,1,-1.5213,-0.12136,0.54211,0.0,37.0,28.14,0,15.0,0.0,38.0,-2.0006999999999997,-0.036599999999999994,-1.0,-0.16,1.0213,7.4754000000000005,16.6215,0,1,0,100.0
29,10.0,1,20.0,1.0,0,1,-1.744,-0.105,0.7512,0.0,37.0,28.14,0,15.0,0.0,38.0,-3.6799999999999997,-0.064,-0.99,-0.17,1.284,6.3500000000000005,9.918,0,1,0,100.0
29,11.0,1,20.0,0.6200000000000008,0,1,-2.1022,-0.08344,0.8330400000000001,0.0,37.0,28.14,0,14.620000000000001,0.0,38.0,-5.1213999999999995,-0.09,-0.99,-0.1738,1.8129999999999997,4.900200000000001,1.328800000000003,0,1,0,100.0
29,12.0,1,20.0,0.040000000000000584,0,1,-2.2124,-0.07648,0.7216800000000001,0.0,37.0,28.14,0,14.040000000000001,0.0,38.0,-5.4288,-0.09,-0.99,-0.17959999999999998,2.0159999999999996,4.4884,-1.1303999999999979,0,1,0,100.0
29,13.0,1,20.0,0.0,0,1,-2.7739,-0.040470000000000006,0.85161,0.0,37.0,28.14,0,14.0,0.0,38.0,-6.111,-0.1081,-0.99,-0.18,3.4597999999999995,2.7807000000000004,-12.216999999999999,0,1,0,100.0
29,14.0,1,20.0,0.0,0,1,-3.1515999999999997,-0.007480000000000024,0.9168400000000005,0.0,37.0,28.14,0,14.0,0.0,38.0,-5.948600000000001,-0.1,-0.99,-0.18,5.046799999999998,1.7098000000000007,-20.400599999999994,0,1,0,100.0
29,15.0,1,20.0,0.0,0,1,-3.3425,0.013649999999999999,0.83765,0.0,37.0,28.14,0,14.0,0.0,38.0,-5.4205000000000005,-0.09,-0.99,-0.18,6.568499999999999,1.0030000000000001,-26.0645,0,1,0,100.0
29,16.0,1,20.0,0.0,0,1,-3.386,0.024959999999999986,0.6401600000000003,0.0,37.0,28.14,0,14.0,0.0,38.0,-5.0812,-0.09,-0.99,-0.18,7.412399999999999,0.7072000000000005,-28.404799999999998,0,1,0,100.0
29,17.0,1,20.0,0.0,0,1,-3.2920000000000007,0.06027999999999993,1.0994400000000006,0.0,37.0,28.14,0,14.0,0.0,38.0,-3.782600000000002,-0.06420000000000005,-1.0,-0.18,10.511799999999994,0.029400000000000318,-35.100599999999986,0,1,0,100.0
29,18.0,1,20.0,0.0,0,1,-3.1576,0.07558,0.6506400000000003,0.0,37.0,28.14,0,14.0,0.0,38.0,-3.2036000000000002,-0.0534,-1.0066,-0.18,11.779,0.16499999999999987,-37.896,0,1,0,100.0
29,19.0,1,20.0,0.0,0,1,-2.6610000000000005,0.07152000000000003,-0.7420499999999988,0.0,37.0,28.14,0,14.0,0.0,38.0,-2.0262000000000007,-0.03970000000000002,-1.0303,-0.1797,13.9962,1.734799999999998,-43.86299999999999,0,1,0,100.0
29,20.0,1,20.0,0.0,0,1,-2.4,0.0576,-1.3815,0.0,37.0,28.14,0,14.0,0.0,38.0,-1.6260000000000001,-0.031,-1.0390000000000001,-0.171,14.466,2.7439999999999998,-45.69,0,1,0,100.0
29,21.0,1,20.0,0.0,0,1,-2.1005000000000003,0.03675000000000003,-1.8677199999999994,0.0,37.0,28.14,0,14.0,0.0,38.0,-1.2412000000000005,-0.02230000000000001,-1.0477,-0.17,14.6817,3.9456999999999978,-47.1012,0,1,0,100.0
29,22.0,1,20.0,0.0,0,1,-0.5188000000000025,-0.06231999999999992,-1.91644,0.07727999999999875,37.0,28.1204,0,15.119999999999981,0.0,38.0,0.355999999999998,0.0027999999999999544,-1.08,-0.14720000000000005,13.374000000000002,10.777199999999988,-47.23880000000001,0,1,0,100.0
29,23.0,1,20.0,0.0,6,2,0.16579999999999973,-0.062230000000000014,0.2350099999999977,0.5243699999999998,37.0,28.07,0,18.0,0.0,38.0,0.8023999999999999,0.015099999999999995,-1.0749,-0.13490000000000002,12.4467,14.1306,-44.7122,0,1,0,100.0
29,24.0,1,20.0,0.0,6,2,0.9135999999999981,-0.030000000000000086,1.4683200000000038,0.5752800000000009,37.0,28.1004,0,18.0,0.0,38.0,0.7832000000000006,0.012400000000000034,-1.0548000000000002,-0.12240000000000004,11.219200000000004,18.624399999999987,-39.79320000000002,0,1,0,100.0
29,25.0,1,20.0,0.0,6,2,2.194999999999998,-0.008250000000000014,0.29925000000000096,0.4990000000000002,37.0,28.11,0,18.0,0.0,38.0,-1.072499999999996,-0.022499999999999916,-1.0225,-0.11,8.290000000000004,28.244999999999983,-25.085000000000026,0,1,0,100.0
29,26.0,1,20.0,1.0,6,2,3.1759999999999984,-0.006,0.05176000000000012,0.5218799999999998,37.0,28.11,0,19.0,0.0,38.0,-3.8335999999999952,-0.06959999999999991,-1.0076,-0.11,5.569200000000005,35.21759999999999,-10.082400000000025,0,1,0,100.0
29,27.0,1,20.0,1.0,6,2,4.277599999999997,-0.006,0.028679999999999928,0.6265999999999999,37.0,28.139400000000002,0,19.0,0.0,38.0,-7.51799999999999,-0.12939999999999988,-1.0,-0.11979999999999995,2.208800000000009,40.14739999999999,8.399399999999952,0,1,0,100.0
29,28.0,1,20.0,1.0,6,2,5.544799999999999,-0.006,0.013920000000000432,0.63892,37.0,28.14,0,19.0,0.0,38.0,-11.103199999999996,-0.19719999999999993,-1.0036,-0.15719999999999992,-2.5155999999999934,36.45320000000002,29.359599999999975,0,1,0,100.0
29,29.0,1,20.0,1.0,6,2,5.976399999999999,-0.006,-0.00176000000000049,0.6301000000000001,37.0,28.1262,0,19.0,0.0,38.0,-11.8118,-0.21459999999999996,-1.0146,-0.17459999999999998,-4.625599999999993,30.83020000000002,36.57339999999998,0,1,0,100.0
