gait_percent,walk_dt_ms_mean,walk_dt_ms_sd,walk_exec_ms_mean,walk_exec_ms_sd,walk_tilt_forward_deg_mean,walk_tilt_forward_deg_sd,walk_pos_rad_mean,walk_pos_rad_sd,walk_vel_rad_s_mean,walk_vel_rad_s_sd,walk_tq_nm_mean,walk_tq_nm_sd,walk_temp_c_mean,walk_temp_c_sd,walk_vbus_v_mean,walk_vbus_v_sd,walk_fb_age_ms_mean,walk_fb_age_ms_sd,walk_typical_stride_ms_mean,walk_typical_stride_ms_sd,walk_effective_step_count_mean,walk_effective_step_count_sd,walk_tilt_accel_deg_mean,walk_tilt_accel_deg_sd,walk_acc_x_mean,walk_acc_x_sd,walk_acc_y_mean,walk_acc_y_sd,walk_acc_z_mean,walk_acc_z_sd,walk_gyr_x_mean,walk_gyr_x_sd,walk_gyr_y_mean,walk_gyr_y_sd,walk_gyr_z_mean,walk_gyr_z_sd,cfg_assist_pct_mean,cfg_assist_pct_sd,ankle_joint_angle_deg_mean,ankle_joint_angle_deg_sd,leg_tilt_angle_deg_mean,leg_tilt_angle_deg_sd,foot_tilt_angle_deg_mean,foot_tilt_angle_deg_sd
0.0,20.0,0.0,0.0,0.0,-5.52,3.7400505047094987,-0.065,0.08192815280611558,-0.8926000000000002,2.2342648405633962,-2.0414000000000003,1.7502742769190331,36.2,1.1352924243950933,28.098000000000003,0.03614784456460288,19.0,0.0,0.0,0.0,33.2,9.531235200352809,-1.292,9.345616679016484,-0.019999999999999997,0.16699966733167132,-1.001,0.011972189997378658,-0.13999999999999999,0.044721359549995794,-2.554,4.942046809437024,-2.6500000000000004,13.010602514018242,0.85,2.380396792320324,100.0,0.0,3.724225668350351,4.694137379093314,-5.52,3.7400505047094987,9.24422566835035,7.917646319500144
1.0,20.0,0.0,0.07899999999999999,0.249819935153302,-5.9375,3.6010586596937793,-0.10146350000000001,0.04860578029468878,-1.3622680000000005,2.4769458959351542,-0.5901865000000001,0.7977086610203907,36.3675,0.8905530429021189,28.131675,0.014397439008379479,15.2315,3.187454618413326,0.0,0.0,33.2,9.531235200352809,-1.76608,9.007498467024263,-0.029235000000000004,0.1612766051264445,-1.0047599999999999,0.01811789784225041,-0.14104,0.0500450952197671,-1.470055,4.362429356986133,-1.3907800000000003,9.655655358107785,-1.351605,4.875495568056532,100.0,0.0,5.813430324625629,2.78490607082581,-5.9375,3.6010586596937793,11.750930324625628,5.344239880035988
2.0,20.0,0.0,0.02100000000000001,0.06640783086353601,-6.206616666666667,3.4973458539351006,-0.12396066666666665,0.03673023263783704,0.13636599999999982,1.4014376683027248,-0.02694000000000001,0.08519176016493617,36.4,0.8432740427115678,28.141219999999997,0.00625704935785773,12.121,2.0016018585123265,0.0,0.0,33.2,9.531235200352809,-2.1974299999999998,8.5854208341881,-0.03581000000000001,0.15413033770156997,-1.00618,0.024100935896996037,-0.14337000000000003,0.052610815322411505,-0.38324000000000014,3.819316500573834,0.27551333333333317,6.210974617049214,-1.7974833333333329,7.688372356465747,100.0,0.0,7.102423025628026,2.104487310681731,-6.206616666666667,3.4973458539351006,13.309039692294695,4.0092886261824745
3.0,20.0,0.0,0.14049999999999993,0.31362087869839844,-6.497955,3.4561845374511857,-0.11883000000000002,0.037775617944794906,0.05486749999999999,0.7892311181891244,0.0,0.0,36.4,0.8432740427115678,28.139999999999997,3.744889033148481e-15,12.0405,2.0603727413585466,0.0,0.0,33.2,9.531235200352809,-2.5428849999999996,7.912076266100026,-0.04141,0.14221161227785395,-1.0090000000000001,0.027264140062238065,-0.15023999999999998,0.04671789925832615,1.13585,3.150878055576114,3.113315,3.1479762816812613,-1.4194600000000004,12.261223393777273,100.0,0.0,6.808457479539572,2.164383476735405,-6.497955,3.4561845374511857,13.306412479539574,3.756806953010515
4.0,20.0,0.0,0.3,0.4830458915396479,-6.59902,3.4632992984532343,-0.118604,0.04463388030533656,-0.02799333333333337,0.8773876397072797,0.0,0.0,36.4,0.8432740427115678,28.142879999999998,0.009107359661285052,12.2,2.097617696340303,0.0,0.0,33.2,9.531235200352809,-2.6884066666666664,7.525638075597902,-0.04406,0.13418004653781013,-1.0074600000000002,0.026773461155073383,-0.15336,0.04427959650523779,1.9493199999999997,3.1200217993540433,4.0146999999999995,3.469113878852126,-1.572153333333333,14.376279333767778,100.0,0.0,6.795508633369616,2.557332964787871,-6.59902,3.4632992984532343,13.394528633369617,3.442959902911251
5.0,20.0,0.0,0.3,0.4830458915396479,-6.700049999999999,3.4583422847273715,-0.11644000000000002,0.0617674033055552,0.2854716666666667,0.6164301895456884,0.0,0.0,36.4,0.8432740427115678,28.139999999999997,3.744889033148481e-15,12.2,2.097617696340303,0.0,0.0,33.2,9.531235200352809,-3.0095666666666663,6.633527073385118,-0.049949999999999994,0.1177913527292126,-1.0050000000000001,0.023687784005919844,-0.16040000000000001,0.03934166578408529,2.93315,3.204815457072199,5.499699999999999,5.051444678945265,-1.4042833333333338,17.84180888020025,100.0,0.0,6.671520566503306,3.539011520890723,-6.700049999999999,3.4583422847273715,13.371570566503305,3.610609927868057
6.0,20.0,0.0,0.2430000000000001,0.4090653302889949,-6.764529999999999,3.452455839624246,-0.10667000000000001,0.06973903051934245,0.494941,0.48121257154193287,0.0,0.0,36.474000000000004,0.731880378811243,28.139999999999997,3.744889033148481e-15,12.143,2.156437648839709,0.0,0.0,33.2,9.531235200352809,-3.374329999999999,5.500548440140614,-0.05669999999999999,0.09672325929624627,-1.00354,0.02071307692148985,-0.16282999999999997,0.0341264983391043,3.51233,3.969595643009499,8.2899,11.835086433332224,-1.7553899999999996,20.134194681710017,100.0,0.0,6.111740800660493,3.995752116092364,-6.764529999999999,3.452455839624246,12.876270800660489,3.91683864792849
7.0,20.0,0.0,0.2865,0.46276974116004316,-6.76887,3.438076547464035,-0.094224,0.07577023755333546,0.5584520000000002,0.4614622819196002,0.0,0.0,36.5,0.7071067811865476,28.139999999999997,3.744889033148481e-15,12.1865,2.195966061769727,0.0,0.0,33.2,9.531235200352809,-3.6352649999999995,4.4248779841338255,-0.06373999999999999,0.07878138457500959,-1.001875,0.01686711544198752,-0.162235,0.03320972121733835,4.13976,5.0317950862380005,9.915245000000002,15.527392939083319,-2.93524,21.70773760454246,100.0,0.0,5.398637528840669,4.341314824509779,-6.76887,3.438076547464035,12.16750752884067,4.5693743155310305
8.0,20.0,0.0,0.4,0.5163977794943223,-6.7307733333333335,3.3550104886517067,-0.07959733333333333,0.07885294825742974,0.5018239999999999,0.29161912706664345,0.0,0.0,36.5,0.7071067811865476,28.14112,0.0035417509793881944,12.3,2.110818693198342,0.0,0.0,33.2,9.531235200352809,-4.018739999999999,3.1660997837156755,-0.07033333333333333,0.053710223869838314,-1.00188,0.018099036192878115,-0.16128666666666663,0.03157595662900868,4.893866666666667,6.440479768418453,13.967086666666669,28.30993008525715,-4.58284,22.51450213031592,100.0,0.0,4.560591260495985,4.517941137314183,-6.7307733333333335,3.3550104886517067,11.291364593829318,5.0499826506112
9.0,20.0,0.0,0.4,0.5163977794943223,-6.688206666666668,3.2732001179726695,-0.06979666666666667,0.07959399335237413,0.5207906666666667,0.38237519240584555,0.0,0.0,36.5,0.7071067811865476,28.139999999999997,3.744889033148481e-15,12.3,2.110818693198342,0.0,0.0,33.2,9.531235200352809,-4.32741,2.429622267600917,-0.07627833333333334,0.04136325981285421,-1.00371,0.01834741580350397,-0.16139833333333334,0.03355191706726888,5.333831666666667,7.194140914594328,16.441525,32.723708334554864,-6.0725983333333335,22.386246986388393,100.0,0.0,3.999054424081436,4.5603998936833685,-6.688206666666668,3.2732001179726695,10.687261090748104,5.249919401484031
10.0,20.0,0.0,0.42666666666666664,0.5000740685879183,-6.6524,3.101598591407699,-0.05558666666666666,0.08053198766351814,0.5653366666666667,0.5509290222147664,0.0,0.0,36.5,0.7071067811865476,28.139999999999997,3.744889033148481e-15,12.326666666666666,2.1362133337771785,0.0,0.0,33.2,9.531235200352809,-4.767733333333333,1.7681730810201937,-0.08295,0.028763837249806107,-1.0041666666666669,0.020801976401828296,-0.16063333333333332,0.035737883209506084,6.1084499999999995,7.722928418568524,18.148316666666666,38.06390421970954,-9.011700000000001,22.09741499738525,100.0,0.0,3.1848813972005363,4.614143008919201,-6.6524,3.101598591407699,9.837281397200538,5.445198015223097
11.0,20.0,0.0,0.3346666666666668,0.4462717989280956,-6.487766666666667,2.926805937713848,-0.041659999999999996,0.08010837369340655,0.3582059999999999,0.7399723588728179,0.0,0.0,36.5,0.7071067811865476,28.143639999999998,0.011510690683013037,12.234666666666666,2.2298088275471977,0.0,0.0,33.2,9.531235200352809,-4.887526666666666,1.8865020719853285,-0.08699166666666666,0.0323117159980825,-1.007085,0.02341341607858916,-0.15589,0.039009691894815,7.283596666666666,8.330854622832987,19.203808333333335,40.85161055370018,-12.767724999999999,23.699932196753103,100.0,0.0,2.3869421745150095,4.589871716289025,-6.487766666666667,2.926805937713848,8.874708841181677,5.678775875644899
12.0,20.0,0.0,0.20400000000000004,0.4197141884663896,-6.36116,2.8869260650194852,-0.037171333333333334,0.07330265870576137,0.2709466666666666,0.7180563457309216,0.0,0.0,36.5,0.7071067811865476,28.141546666666663,0.004890989447726554,12.104,2.381722999100534,0.0,0.0,33.2,9.531235200352809,-5.293786666666667,2.4364421423232874,-0.09438666666666667,0.04293545888458199,-1.0105933333333332,0.026733812686198417,-0.15038,0.0544186610150109,8.32012,7.539125330464034,20.597019999999997,40.239461326685,-13.837586666666667,25.029788376229128,100.0,0.0,2.1297605188739537,4.199932970928027,-6.36116,2.8869260650194852,8.490920518873953,5.566405806385804
13.0,20.0,0.0,0.2,0.42163702135578396,-6.1487300000000005,2.7217941078756613,-0.029476500000000006,0.07316122489444497,0.2714054999999999,0.7752901734241545,0.0,0.0,36.5,0.7071067811865476,28.139999999999997,3.744889033148481e-15,12.1,2.378141197564929,0.0,0.0,33.2,9.531235200352809,-5.241295,2.5981100767299212,-0.092865,0.046297816423191675,-1.014535,0.02741449383487179,-0.146565,0.05694060770272438,9.000175,6.813506181933792,21.240759999999998,37.97563630131678,-17.082325000000004,25.892892071465933,100.0,0.0,1.6888790448173707,4.191829410459149,-6.1487300000000005,2.7217941078756613,7.837609044817372,5.949296702502759
14.0,20.0,0.0,0.2,0.42163702135578396,-5.99847,2.776616034372296,-0.020918,0.07411715243075953,0.06850500000000063,0.847177088207261,0.0,0.0,36.5,0.7071067811865476,28.139999999999997,3.744889033148481e-15,12.1,2.378141197564929,0.0,0.0,33.2,9.531235200352809,-5.423640000000001,2.484959727909757,-0.09698999999999999,0.043342882281228644,-1.01416,0.024344298899103466,-0.14148,0.06669705640681103,10.098159999999998,5.033104639881828,20.12776,32.7872772895287,-18.484119999999997,25.857689789297797,100.0,0.0,1.1985131158546563,4.246600023810312,-5.99847,2.776616034372296,7.196983115854655,6.376505002116945
15.0,20.0,0.0,0.2,0.42163702135578396,-5.750566666666667,2.796759083859056,-0.01793749999999999,0.07306198210537863,0.022722500000000125,0.8278544729575562,0.0,0.0,36.5,0.7071067811865476,28.139999999999997,3.744889033148481e-15,12.1,2.378141197564929,0.0,0.0,33.2,9.531235200352809,-5.3667500000000015,2.5142267559938887,-0.09514166666666667,0.04423858662182027,-1.01745,0.025151154159512374,-0.13937499999999997,0.06913947758777984,10.201558333333333,4.709568135696575,21.713225,30.96459723943934,-19.644074999999997,26.308266355645394,100.0,0.0,1.0277430450159142,4.1861432174985405,-5.750566666666667,2.796759083859056,6.77830971168258,6.524754360340433
16.0,20.0,0.0,0.21599999999999991,0.41620507765603565,-5.346173333333333,3.1837647849094672,-0.020018,0.06883605931648196,-0.06328399999999998,0.9023079069832229,0.0,0.0,36.5,0.7071067811865476,28.139999999999997,3.744889033148481e-15,12.116,2.39283746023651,0.0,0.0,33.2,9.531235200352809,-5.72584,3.381373670632165,-0.10271333333333332,0.062295267045709785,-1.0213,0.026233015669402428,-0.13772,0.07216944259480215,10.109166666666667,5.430456693911152,21.97896,29.61675311378117,-18.2955,27.327690287935663,100.0,0.0,1.1469469142928819,3.944015677146606,-5.346173333333333,3.1837647849094672,6.493120247626216,6.597960755616846
17.0,20.0,0.0,0.3,0.4830458915396479,-4.9682933333333335,3.384231123887505,-0.016235333333333334,0.0741859699923355,-0.018952833333333217,0.7825661506536025,0.0,0.0,36.5,0.7071067811865476,28.139999999999997,3.744889033148481e-15,12.2,2.485513584307633,0.0,0.0,33.2,9.531235200352809,-5.594925,3.734306255834021,-0.10119333333333332,0.06960801411927815,-1.0219516666666668,0.023657858885305708,-0.13806000000000002,0.06542219212333245,10.687436666666667,6.870001766167761,22.861456666666665,28.382966841296703,-17.30223833333333,28.224579273859177,100.0,0.0,0.9302160789880627,4.250542979644996,-4.9682933333333335,3.384231123887505,5.898509412321396,7.006136211706732
18.0,20.0,0.0,0.3,0.4830458915396479,-4.614660000000001,3.8066608628677296,-0.014865333333333336,0.07756642565020092,0.1409323333333334,0.4853460139014228,0.0,0.0,36.5,0.7071067811865476,28.141039999999997,0.003288768766575314,12.2,2.485513584307633,0.0,0.0,33.2,9.531235200352809,-5.6883833333333325,4.717827609284375,-0.10317666666666667,0.08755537232073324,-1.0204966666666666,0.02620407305066228,-0.14048,0.05493876995751219,10.624856666666668,8.408068424033086,22.789103333333333,28.695132548120164,-14.67346,29.433283497587105,100.0,0.0,0.8517208610551398,4.444228821671805,-4.614660000000001,3.8066608628677296,5.46638086105514,7.4465128512841305
19.0,20.0,0.0,0.40700000000000014,0.5108174277023488,-4.101278333333333,3.985341680396959,-0.016713499999999996,0.07722602101947246,-0.15915316666666637,0.3230059848091048,0.0,0.0,36.5,0.7071067811865476,28.139999999999997,3.744889033148481e-15,12.306999999999999,2.5020527128295633,0.0,0.0,33.2,9.531235200352809,-6.0059233333333335,5.948864323322251,-0.11035333333333334,0.10965350951131546,-1.023915,0.029167886164981754,-0.1426,0.047562987477425954,10.501198333333333,9.540754912286769,22.302436666666665,28.06620914277589,-11.441146666666665,31.7274445397438,100.0,0.0,0.9576130108919012,4.424725073004355,-4.101278333333333,3.985341680396959,5.058891344225236,7.732867353346426
20.0,20.0,0.0,0.45999999999999996,0.49933288829530675,-3.7162999999999995,4.343207648475695,-0.02051,0.07199318563432082,-0.28382999999999997,0.6127350651881374,0.0,0.0,36.5,0.7071067811865476,28.139999999999997,3.744889033148481e-15,12.36,2.5487251715318386,0.0,0.0,33.2,9.531235200352809,-6.386,6.0448576492751265,-0.11779999999999999,0.11271281106324062,-1.0236999999999998,0.03242444208378067,-0.14609999999999998,0.03739117542950476,9.6772,9.411435228840853,22.9476,28.385420288122095,-8.1008,30.901080670782733,100.0,0.0,1.1751364378133182,4.124905690548451,-3.7162999999999995,4.343207648475695,4.891436437813318,7.883138897622876
21.0,20.0,0.0,0.5,0.5270462766947299,-3.17772,4.7796304892161325,-0.0272395,0.06407971556541465,-0.373834,0.83278979742056,0.0,0.0,36.5,0.7071067811865476,28.139999999999997,3.744889033148481e-15,12.4,2.590581230363393,0.0,0.0,33.2,9.531235200352809,-6.61853,6.423678710797697,-0.12268000000000001,0.1194782458116214,-1.0244050000000002,0.03997578746358021,-0.148965,0.027263712655795382,8.58751,9.558616074946322,18.654880000000002,30.899837702946662,-1.7215200000000024,32.657364395281846,100.0,0.0,1.5607083860466056,3.671497254297028,-3.17772,4.7796304892161325,4.738428386046605,8.070800791864544
22.0,20.0,0.0,0.6,0.5163977794943223,-2.695756666666667,5.0975883995640885,-0.03938199999999999,0.06056643034259527,-0.40380633333333327,0.8500816882932377,-0.023229999999999827,0.05228880249792146,36.5,0.7071067811865476,28.138713333333335,0.010433187787412175,12.979999999999995,2.5375578811132544,0.0,0.0,33.2,9.531235200352809,-6.660329999999999,6.660841559117486,-0.12388333333333335,0.12443449488995613,-1.02623,0.048863484434812,-0.15188333333333331,0.020590500326696865,7.175363333333334,9.28720776457237,17.034846666666667,33.03425611758979,3.278606666666664,32.26429175732711,100.0,0.0,2.2564223887842076,3.4702008388037977,-2.695756666666667,5.0975883995640885,4.952179055450875,8.227436477854194
23.0,20.0,0.0,0.6,0.5163977794943223,-2.3887699999999996,5.4180963321590685,-0.041494500000000004,0.06329257541370868,-0.015768000000000178,0.24875605786258403,-0.13166699999999998,0.2920585553941005,36.5,0.7071067811865476,28.12718,0.023456143473868006,14.640000000000004,2.798094589775934,0.0,0.0,33.2,9.531235200352809,-6.224390000000001,6.674753446499396,-0.11490500000000001,0.12295802456755542,-1.02386,0.05362139809193095,-0.15767499999999998,0.02169059255888496,5.96049,8.69295097477772,13.81927,34.04455021520576,7.292865000000001,32.62765109315555,100.0,0.0,2.3774597230055945,3.626397445718988,-2.3887699999999996,5.4180963321590685,4.766229723005594,8.719240430860513
24.0,20.0,0.0,0.7820000000000004,0.5790758921668985,-2.1212400000000007,5.660185889212867,-0.04128200000000001,0.06426129607573546,0.0946940000000005,0.5103750622652161,-0.037858000000000155,0.3592900496442025,36.5,0.7071067811865476,28.132919999999995,0.014788644292158948,14.882000000000001,2.956611423760504,0.0,0.0,33.2,9.531235200352809,-5.641160000000001,6.374138670039185,-0.10568000000000002,0.11884029245635133,-1.01648,0.05586962601549356,-0.16704000000000002,0.035395517606988974,4.02772,7.7766009028223735,11.580499999999997,36.54456978579565,11.689399999999996,32.09453993424911,100.0,0.0,2.3652843698590655,3.681901051180241,-2.1212400000000007,5.660185889212867,4.486524369859066,9.141211650117137
25.0,20.0,0.0,1.1374999999999995,0.8046091183508501,-1.8227500000000005,6.033430069436272,-0.040100000000000004,0.06554474722576088,0.021262500000000177,0.24389712404629865,-0.029225000000000022,0.3515626712345263,36.5,0.7071067811865476,28.135875,0.01718011204852854,15.2375,2.9898264999829007,0.0,0.0,33.2,9.531235200352809,-5.386124999999999,5.4835449063159265,-0.10174999999999998,0.10198754008864679,-1.0076250000000002,0.05848328939867259,-0.17325,0.044597739105624326,1.8698750000000017,7.129838572710932,9.783500000000004,40.209575977343725,17.125874999999994,28.17209892173905,100.0,0.0,2.2975607584746016,3.75543738528791,-1.8227500000000005,6.033430069436272,4.120310758474601,9.605951485016975
26.0,20.0,0.0,1.1959999999999993,0.6538637302816066,-1.7294066666666672,6.1622229219417,-0.04008133333333333,0.06594652280165823,0.08016933333333334,0.602610452279943,-0.03555199999999996,0.3586401720325757,36.5,0.7071067811865476,28.132619999999996,0.0126745414118228,15.398000000000001,3.1351264372873033,0.0,0.0,33.2,9.531235200352809,-4.874959999999998,4.599383694752544,-0.09071333333333331,0.08547139901383805,-1.0037866666666668,0.057107711096371805,-0.17884666666666665,0.04778908445024442,0.5359666666666675,7.23709105439676,8.572246666666667,42.60324162068735,20.908639999999995,25.68124980998135,100.0,0.0,2.2964912372570234,3.7784574300982663,-1.7294066666666672,6.1622229219417,4.02589790392369,9.732032828604892
27.0,20.0,0.0,0.8720000000000004,0.6955860838170937,-1.8466250000000002,6.255322487168206,-0.04023600000000001,0.06620425014889739,-0.11312900000000004,0.43259083768486095,-0.07592000000000002,0.3904875042886207,36.5,0.7071067811865476,28.141145,0.01031682687005384,15.341999999999999,3.217430997274413,0.0,0.0,33.2,9.531235200352809,-4.318359999999999,4.57093931531948,-0.07995,0.08435506307665629,-0.999305,0.05352918959678814,-0.185265,0.0493881567562283,-1.242669999999999,7.901284537311358,7.898939999999999,43.65209869124151,24.22939999999999,23.257612194732197,100.0,0.0,2.3053529844883807,3.793224119360172,-1.8466250000000002,6.255322487168206,4.151977984488381,9.778689068541725
28.0,20.0,0.0,0.596000000000001,0.46051179258636854,-1.9808,6.559403636849245,-0.049588,0.08277328833761664,-0.32887599999999984,0.6313019944210536,-0.135788,0.4532003409040592,36.404,0.9550706780128876,28.1338,0.012610048902892716,15.476000000000003,3.4143982713730905,0.0,0.0,33.2,9.531235200352809,-4.29592,5.581130704396336,-0.07799999999999999,0.10082116179982584,-0.99664,0.04201722398149493,-0.19024,0.04834807131623763,-3.426159999999998,8.363859473180495,6.186360000000008,41.72105523602095,27.692439999999994,21.007214390362815,100.0,0.0,2.8411831144947266,4.742560078164871,-1.9808,6.559403636849245,4.821983114494725,10.89776616131588
29.0,20.0,0.0,0.5989999999999998,0.5155460966565236,-2.28212,6.689829816312386,-0.05169050000000001,0.08228552250311784,-0.04397749999999993,0.1752955265520682,-0.1522895,0.47328362546768227,36.452999999999996,0.823866898635131,28.13103,0.012325948239385496,16.099,3.3816841629250027,0.0,0.0,33.2,9.531235200352809,-4.247395000000001,6.396235742235428,-0.07782500000000002,0.11487973723759021,-0.996415,0.03723049862381345,-0.19182999999999997,0.04300578901600212,-4.969629999999998,8.715947667006725,3.6606150000000084,37.219539658416956,29.11009999999999,20.683044294340874,100.0,0.0,2.961647490920982,4.714613154457413,-2.28212,6.689829816312386,5.243767490920982,10.903138275941801
30.0,20.0,0.0,0.845,0.5540006016843905,-2.617683333333333,6.685883700351782,-0.05143166666666667,0.08010179883077487,0.07545499999999994,0.24738696908330127,-0.15294666666666662,0.4690006541889144,36.4,0.9660917830792959,28.127499999999998,0.013607595917967211,16.345000000000002,3.086030351978628,0.0,0.0,33.2,9.531235200352809,-3.1779666666666677,6.959374350072314,-0.05848333333333333,0.12326545804948014,-0.9938333333333335,0.03592327214329845,-0.19308333333333333,0.04141294975496684,-6.559516666666665,8.662630143482854,1.591183333333331,32.27501634854852,30.482066666666668,21.57675584649507,100.0,0.0,2.9468174333236794,4.589495004409353,-2.617683333333333,6.685883700351782,5.564500766657012,10.688762230222027
31.0,20.0,0.0,0.8070000000000004,0.5794115789124147,-2.985115,6.607099255600835,-0.04936933333333334,0.0760782314998722,0.0019288333333332575,0.05545696505282597,-0.1773435,0.4625907098075768,36.4,0.9660917830792959,28.133429999999997,0.012448654545773775,16.307,3.051802017752062,0.0,0.0,33.2,9.531235200352809,-2.814643333333334,7.873726792988797,-0.05301000000000002,0.13963690573929388,-0.9928783333333333,0.037860536842469636,-0.18778499999999998,0.04050433481602788,-7.6939883333333325,8.934223601196463,0.4640283333333318,27.873791173441408,29.688170000000003,21.667113307911805,100.0,0.0,2.8286544373745324,4.358961577761913,-2.985115,6.607099255600835,5.813769437374533,10.316170831360354
32.0,20.0,0.0,0.8619999999999999,0.5729029392294805,-3.7621799999999994,6.461563738119263,-0.052610666666666674,0.07453652754037968,-0.13844733333333334,0.3853684945184381,-0.21070399999999995,0.48614244431030706,36.4,0.9660917830792959,28.12672,0.015797383749638703,16.362000000000002,3.101146024724838,0.0,0.0,33.2,9.531235200352809,-1.3686866666666684,8.77487326460764,-0.03080000000000003,0.152926736271545,-0.9858666666666667,0.04570566056198519,-0.18119999999999997,0.04009677182905267,-9.391746666666666,9.91904737669082,-1.2718933333333307,24.85493612371148,26.4895,21.92296887300319,100.0,0.0,3.0143691573696025,4.270628447624382,-3.7621799999999994,6.461563738119263,6.776549157369603,9.994947481250222
33.0,20.0,0.0,0.9584999999999999,0.489330892364484,-4.508238333333333,6.004296581307371,-0.057769666666666684,0.07471197119605398,-0.32619633333333353,0.8730993488722303,-0.24358816666666666,0.5142092635770246,36.4,0.9660917830792959,28.127493333333337,0.019881605121876946,16.4585,3.0894084744854027,0.0,0.0,33.2,9.531235200352809,0.1646449999999982,8.358136282969694,-0.0028350000000000345,0.14390402675626096,-0.9762766666666666,0.04363215430034243,-0.17723666666666665,0.03990842434039877,-11.140671666666666,9.938871219678878,-2.17338,21.12307612324598,24.604568333333333,23.419524902411183,100.0,0.0,3.309958083877595,4.280680628636866,-4.508238333333333,6.004296581307371,7.8181964172109275,9.566493095437593
34.0,20.0,0.0,0.9660000000000002,0.4835103124259316,-5.208599999999999,5.850062363960084,-0.07605999999999997,0.09311523613243965,-0.7887870000000003,1.8480046716754939,-0.5644769999999996,1.1521305732718745,36.4,0.9660917830792959,28.11002,0.05260540318678718,16.466,3.0844419628552293,0.0,0.0,33.2,9.531235200352809,0.2175799999999981,7.846629175469766,0.0011799999999999589,0.13622623176988427,-0.97747,0.03788063269446987,-0.16975,0.04114822123872564,-12.142989999999998,10.066538263248416,-2.9328499999999997,17.573569088153693,21.29345,24.259631662095686,100.0,0.0,4.35791698976504,5.335110038752858,-5.208599999999999,5.850062363960084,9.566516989765038,10.200150081362082
35.0,20.0,0.0,0.9,0.5676462121975466,-5.9434,5.189289600545853,-0.08564250000000001,0.10607039201633979,-0.4969924999999999,0.7016145078644207,-0.864755,1.4585063401092533,36.4,0.9660917830792959,28.094749999999998,0.08556130031218073,16.4,3.1340424729448424,0.0,0.0,33.2,9.531235200352809,0.8337249999999997,7.826678643561606,0.009774999999999995,0.13583141358561598,-0.97525,0.03317127271199184,-0.1589,0.03749262890518911,-12.973500000000001,10.54972562044467,-4.282975,15.246259116514997,18.06935,22.005649221721328,100.0,0.0,4.9069537969491535,6.077385793834413,-5.9434,5.189289600545853,10.850353796949154,10.161090179491802
36.0,20.0,0.0,1.0,0.4714045207910317,-6.753373333333333,4.5557390782762495,-0.09405866666666665,0.10497647194596617,-0.11659399999999984,0.3588939361798506,-1.6312179999999992,2.5175822708913924,36.4,0.9660917830792959,28.002639999999996,0.2436506205386905,16.5,2.9907264074877267,0.0,0.0,33.2,9.531235200352809,0.500633333333333,7.149509047894541,0.007339999999999994,0.1238966612409982,-0.9849600000000001,0.024558827333567866,-0.14100000000000001,0.031454800022324814,-12.924180000000002,10.36247854497712,-5.9144999999999985,13.50902159439305,14.026253333333335,20.18236120118533,100.0,0.0,5.389164626627839,6.01470879067735,-6.753373333333333,4.5557390782762495,12.142537959961171,9.5470373912909
37.0,20.0,0.0,1.0869999999999993,0.32338659355157134,-7.312043333333333,4.08758030301456,-0.09524483333333333,0.10030541149086551,-0.0958101666666662,0.4124444693849147,-1.920784333333333,2.8211184099603837,36.4,0.9660917830792959,27.961378333333336,0.28482131089314333,16.587,2.9217804693561615,0.0,0.0,33.2,9.531235200352809,0.12656666666666672,6.99069437366031,-0.000318333333333326,0.12278356458207865,-0.9900566666666666,0.02986183430648805,-0.13103333333333333,0.030127989324558988,-12.959696666666668,10.309693164755556,-6.732606666666666,12.59815257778048,11.278551666666669,17.65508063087282,100.0,0.0,5.45712697042694,5.747076740749624,-7.312043333333333,4.08758030301456,12.769170303760273,8.883531634355423
38.0,20.0,0.0,1.1,0.31622776601683794,-7.944376666666666,3.2785348435328956,-0.09596566666666667,0.09437975392392557,-0.12183533333333343,0.35637327365184623,-2.2353156666666663,2.9434991571123486,36.4,0.9660917830792959,27.927856666666667,0.3130084430881129,16.6,2.913569784454954,0.0,0.0,33.2,9.531235200352809,-0.23032666666666568,7.300693349701135,-0.005426666666666649,0.1272287778999937,-0.9952433333333334,0.04126824938627042,-0.12026666666666667,0.032394020938941684,-12.547963333333335,10.231393508693756,-7.478723333333332,12.109544188117193,7.634113333333339,13.464011515295141,100.0,0.0,5.498427678159287,5.407561571324206,-7.944376666666666,3.2785348435328956,13.442804344825953,7.8939457891248175
39.0,20.0,0.0,1.1,0.31622776601683794,-8.345844999999999,3.020655615227523,-0.096664,0.0908143600000695,-0.015014500000000106,0.32478615565091445,-2.4024429999999994,3.0101812007144093,36.4,0.9660917830792959,27.901249999999997,0.34113697232766943,16.6,2.913569784454954,0.0,0.0,33.2,9.531235200352809,-1.171679999999998,6.855850694406931,-0.023619999999999978,0.11815646453373219,-1.00468,0.04902547070429594,-0.11105500000000001,0.03269646982303883,-11.742920000000002,9.884944190484841,-8.025809999999998,11.369314243240686,4.423600000000009,13.419581311733324,100.0,0.0,5.53843923085259,5.203279547185664,-8.345844999999999,3.020655615227523,13.88428423085259,7.336425436915809
40.0,20.0,0.0,0.79,0.3665151201974256,-8.8717,2.2814620580281897,-0.09452000000000002,0.0824504807613502,0.27769999999999995,1.107215921931119,-3.2781700000000003,3.086087730462488,36.4,0.9660917830792959,27.804000000000002,0.343975451320455,17.089999999999996,2.3515715785169897,0.0,0.0,33.2,9.531235200352809,-2.0940000000000003,6.377965697967061,-0.0392,0.11266646942783524,-1.0153,0.05358907434252705,-0.10300000000000001,0.03035347316755256,-10.1713,9.117532305643037,-8.853200000000001,11.029017865008047,-0.5813999999999993,11.221589966567919,100.0,0.0,5.415597079576542,4.7240645664499565,-8.8717,2.2814620580281897,14.287297079576541,6.114641218030297
41.0,20.0,0.0,0.7994999999999999,0.42137638229444646,-9.031886666666667,2.0488356298332175,-0.09297633333333336,0.07986679543750827,0.1894924999999995,0.8003527256744987,-3.5935186666666667,3.1567648527677235,36.4,0.9660917830792959,27.768148333333336,0.35861963243598133,17.0995,2.283783957966836,0.0,0.0,33.2,9.531235200352809,-2.604873333333334,6.075698376675174,-0.047871666666666673,0.10739085933985763,-1.0176716666666668,0.04972362384740799,-0.10350666666666666,0.02635027959183547,-9.483515,8.94572086350128,-8.765975000000001,10.934701023226976,-2.4417016666666655,10.244019886220793,100.0,0.0,5.327151494601513,4.576030301803923,-9.031886666666667,2.0488356298332175,14.35903816126818,5.735191770034156
42.0,20.0,0.0,0.8420000000000005,0.5184978302751136,-9.356103333333333,1.581845416933676,-0.08116133333333334,0.07127154927666647,0.30717866666666616,0.6467066178861759,-4.316447000000001,2.666538850153676,36.4,0.9660917830792959,27.69771,0.33264667758916666,17.442,2.4737636642708347,0.0,0.0,33.2,9.531235200352809,-3.5690499999999994,5.133619724532692,-0.06476666666666667,0.09109844085343023,-1.03018,0.03817325416221854,-0.09845666666666666,0.021023326550744986,-7.941586666666668,7.44733279977917,-9.747620000000001,10.684146122258799,-6.961890000000001,7.959295504063157,100.0,0.0,4.6502018596544445,4.083558972911664,-9.356103333333333,1.581845416933676,14.006305192987778,4.9969543484478285
43.0,20.0,0.0,0.6640000000000008,0.5029071043001443,-9.448879999999999,1.3219667826974915,-0.07464250000000001,0.0613249425080131,0.32294849999999997,0.4715815004974105,-4.243024999999999,2.4776474951913112,36.4,0.9660917830792959,27.720459999999996,0.2962000570185254,17.264,2.4154189882686796,0.0,0.0,33.2,9.531235200352809,-4.403974999999999,4.678087782372551,-0.07866999999999998,0.08450772877212015,-1.03244,0.035022181859818854,-0.104465,0.019143668085760835,-6.468480000000001,6.381601054341911,-8.658475000000001,9.558926513103692,-9.636249999999997,6.938386647885483,100.0,0.0,4.276700222305247,3.513660384591568,-9.448879999999999,1.3219667826974915,13.725580222305249,4.33601444992764
44.0,20.0,0.0,1.0439999999999987,0.6723623361782761,-9.419773333333334,1.2614922725794948,-0.06942066666666666,0.05916579696387408,0.28158466666666676,0.2876511593785984,-4.034282666666668,2.34340902813354,36.4,0.9660917830792959,27.758266666666668,0.2702734746716949,17.644,2.618325164426042,0.0,0.0,33.2,9.531235200352809,-4.844813333333333,4.497191748141897,-0.08564666666666665,0.0816045995435715,-1.0342866666666666,0.032730339306385345,-0.1085,0.018890385561620135,-5.317453333333336,4.9718418808027,-8.126673333333338,8.628117272877008,-12.291126666666667,5.083058565441055,100.0,0.0,3.9775112109845168,3.3899504575579242,-9.419773333333334,1.2614922725794948,13.39728454431785,4.208381382573089
45.0,20.0,0.0,1.1,0.7378647873726218,-9.380125000000001,1.2807496462033472,-0.0646075,0.0561198532037559,0.24761499999999997,0.23907279261067474,-3.7520200000000004,2.1974513325352882,36.4,0.9660917830792959,27.812075,0.2339683041805259,17.7,2.6687491868330797,0.0,0.0,33.2,9.531235200352809,-5.159174999999999,4.057553042800414,-0.09217499999999999,0.07325668816641327,-1.0326,0.03273805974024054,-0.11595,0.0204065621253992,-4.343350000000003,4.300181409610014,-6.954775000000002,7.127803459623998,-14.08835,3.9912651941458357,100.0,0.0,3.7017370748914664,3.2154307354689435,-9.380125000000001,1.2807496462033472,13.081862074891466,4.052957186793245
46.0,20.0,0.0,1.0,0.6666666666666666,-9.15211,1.3848538233731063,-0.058867,0.04967520956730385,0.23489399999999994,0.2479680188698176,-3.453003,2.1557231433251762,36.4,0.9660917830792959,27.84178,0.23844866114113544,17.6,2.590581230363393,0.0,0.0,33.2,9.531235200352809,-5.464,3.8164718191893763,-0.09764999999999999,0.06617440340997921,-1.02847,0.03299057272750645,-0.12798,0.024276637145846845,-3.173379999999999,3.020300007467982,-5.313410000000001,5.640170412013769,-15.717150000000004,3.1656657419008174,100.0,0.0,3.3728306525966167,2.846179854634398,-9.15211,1.3848538233731063,12.524940652596616,3.8053273483024572
47.0,20.0,0.0,0.9610000000000003,0.6107272531808108,-8.904398333333335,1.5020049973501468,-0.053390000000000014,0.04414118661245478,0.20279716666666653,0.30321251936661175,-3.245682166666667,2.1601863555101284,36.439499999999995,0.859225911310098,27.871551666666665,0.23660401837090503,17.461000000000002,2.4650194950772932,0.0,0.0,33.2,9.531235200352809,-5.302,3.4700423899908386,-0.09541999999999998,0.059586791041863194,-1.024635,0.02945780456856895,-0.13773666666666665,0.02634919213042263,-2.0979566666666667,1.8546245043933545,-4.337690000000001,4.976238682021236,-17.157665,3.224452120907948,100.0,0.0,3.059021668203466,2.529103695593031,-8.904398333333335,1.5020049973501468,11.9634200015368,3.5972917267417985
48.0,20.0,0.0,0.7559999999999991,0.4214050571863402,-8.658306666666666,1.62695218659968,-0.04859000000000001,0.037441080528092564,0.1902733333333335,0.2670334473709518,-3.057767333333333,2.15037703409081,36.5,0.7071067811865476,27.896913333333334,0.2288455235079544,17.256,2.348953431258743,0.0,0.0,33.2,9.531235200352809,-5.177439999999999,3.100201811065424,-0.09231999999999999,0.05555475377199207,-1.02074,0.0295170082795967,-0.14603333333333332,0.029599436931581426,-1.414873333333333,1.6225927337763173,-3.4212800000000017,4.259347028934001,-17.84894,4.214458755865203,100.0,0.0,2.7840019265406704,2.1452158946691515,-8.658306666666666,1.62695218659968,11.442308593207338,3.3648035388378306
49.0,20.0,0.0,0.8,0.42163702135578396,-8.326223333333333,1.7588189578152629,-0.043949,0.033650934096330166,0.19946450000000016,0.2238967655769803,-2.775901,2.014474178519326,36.5,0.7071067811865476,27.934095000000003,0.19414098034675756,17.3,2.359378449224852,0.0,0.0,33.2,9.531235200352809,-5.0017,2.7013382336867378,-0.08745333333333331,0.04669138749990912,-1.0147616666666666,0.024512073177956274,-0.15206499999999998,0.03188038451252848,-0.6905600000000005,1.5824704771337759,-2.558085000000003,3.8963948927217067,-17.987628333333333,4.809264111709391,100.0,0.0,2.5180922138204553,1.9280565003925973,-8.326223333333333,1.7588189578152629,10.844315547153787,3.2609160508061388
50.0,20.0,0.0,0.8,0.42163702135578396,-7.888500000000002,1.9023801612132565,-0.039150000000000004,0.03176392957778087,0.20760000000000015,0.25644598738222524,-2.3324000000000007,1.7540822354977808,36.5,0.7071067811865476,27.986,0.14001587211614433,17.3,2.359378449224852,0.0,0.0,33.2,9.531235200352809,-4.856,2.434675200788256,-0.08549999999999998,0.041663333199989334,-1.0085000000000002,0.016338434577536674,-0.15999999999999998,0.032744804507314165,0.115499999999999,1.8104917226482358,-1.4560000000000035,3.3622320628481983,-17.6165,5.649389863811253,100.0,0.0,2.243129767937173,1.8199391055576066,-7.888500000000002,1.9023801612132565,10.131629767937174,3.2880244289407212
51.0,20.0,0.0,0.8,0.42163702135578396,-7.380936666666668,2.2118598556083633,-0.03392699999999999,0.02739472376206776,0.19347749999999994,0.2628050361352604,-2.0109955000000004,1.709433828771077,36.5,0.7071067811865476,28.00486,0.1371911173023481,17.3,2.359378449224852,0.0,0.0,33.2,9.531235200352809,-4.53184,2.192153599874891,-0.07877166666666668,0.03834779763341479,-1.0049433333333333,0.017051650294847658,-0.16557,0.03671860109898887,0.6914049999999996,1.9326738321199237,-0.5256999999999998,3.1348643432460603,-17.29917166666667,6.583953591924868,100.0,0.0,1.9438739115403436,1.569602052493231,-7.380936666666668,2.2118598556083633,9.32481057820701,3.3921658824003043
52.0,20.0,0.0,0.8,0.42163702135578396,-6.993533333333334,2.2165626795993365,-0.029742000000000008,0.024478551972424094,0.20916733333333326,0.26913978447942166,-1.7591126666666668,1.5948221967089484,36.5,0.7071067811865476,28.02708,0.11986155717697385,17.3,2.359378449224852,0.0,0.0,33.2,9.531235200352809,-4.213133333333333,1.9505720703120621,-0.07324,0.03525775564798948,-1.0009000000000001,0.01250964072669999,-0.16931999999999997,0.03919684794583473,1.4689066666666666,2.4467503487959976,0.14061333333333303,2.801532785009214,-17.137406666666664,7.232542557931912,100.0,0.0,1.7040910742780948,1.4025177166115372,-6.993533333333334,2.2165626795993365,8.697624407611428,3.2402673460240146
53.0,20.0,0.0,0.8,0.42163702135578396,-6.550491666666668,2.3295494534093124,-0.024822000000000004,0.021281078998334025,0.2314366666666668,0.2642638190471927,-1.488447333333334,1.5449448791596037,36.5,0.7071067811865476,28.043690000000005,0.10705828578655449,17.3,2.359378449224852,0.0,0.0,33.2,9.531235200352809,-3.8341366666666667,1.7279760150084393,-0.06549,0.0308740523921158,-0.9993300000000002,0.010394448304530419,-0.17167500000000002,0.04192234388326429,2.118608333333333,2.6133749709604626,0.700126666666666,2.8050348438583175,-16.921943333333335,7.758015358400961,100.0,0.0,1.4221958390737302,1.2193160100890328,-6.550491666666668,2.3295494534093124,7.972687505740396,3.2145171767907206
54.0,20.0,0.0,0.8,0.42163702135578396,-6.109100000000001,2.3956998518178345,-0.02110033333333334,0.020103843404424674,0.24365566666666663,0.2798430894911038,-1.2033190000000005,1.3879718387989324,36.494,0.7120580500680173,28.062533333333334,0.09342547832363494,17.3,2.359378449224852,0.0,0.0,33.2,9.531235200352809,-3.4730933333333334,1.72760915002765,-0.060070000000000026,0.02978299477516957,-0.99892,0.009808930171589108,-0.17492999999999997,0.044474013635930024,2.9042066666666657,2.868393343500337,1.4235766666666663,2.6600630696157057,-16.712533333333333,8.036930648367363,100.0,0.0,1.2089600463192083,1.1518653790654505,-6.109100000000001,2.3956998518178345,7.318060046319209,3.2630900308621307
55.0,20.0,0.0,0.8,0.42163702135578396,-5.53995,2.420248683847729,-0.015530000000000006,0.01718450852754693,0.21312000000000011,0.23488458063956058,-0.909550000000001,1.3026780415743568,36.4,0.8432740427115678,28.081100000000003,0.07975580786932619,17.7,2.057506581601462,0.0,0.0,33.2,9.531235200352809,-2.9179000000000004,1.636606054546352,-0.0509,0.029550145703720495,-0.9980499999999999,0.009081268878545818,-0.17784999999999998,0.04487269028410635,3.719049999999998,2.8018369614118055,2.4925999999999986,3.5832330823185665,-16.594050000000003,8.290888390442715,100.0,0.0,0.8898034558381687,0.9845998116350121,-5.53995,2.420248683847729,6.42975345583817,3.1381417415743407
56.0,20.0,0.0,0.8,0.42163702135578396,-5.011240000000001,2.5000111231752538,-0.01056400000000001,0.015143126933805097,0.16417399999999985,0.13838649261318017,-0.545734000000001,1.155750587167395,36.4,0.8432740427115678,28.09234,0.06465704739452467,17.7,2.057506581601462,0.0,0.0,33.2,9.531235200352809,-2.50276,1.5328755223797887,-0.043200000000000016,0.028308773669423873,-0.9986599999999999,0.007405733514574301,-0.17834,0.04573003389458617,4.683999999999997,2.660310854016878,3.3203400000000016,4.441568463754923,-16.750999999999998,8.297906351738506,100.0,0.0,0.6052726147762023,0.8676372619379153,-5.011240000000001,2.5000111231752538,5.616512614776203,3.1178424959634903
57.0,20.0,0.0,0.8474999999999998,0.33120361310428603,-4.5117449999999995,2.4403182191684656,-0.005124999999999995,0.009718117387413846,0.19154149999999964,0.28944526442883306,-0.2271200000000002,1.0633557201170056,36.4,0.8432740427115678,28.10358,0.03591053079839215,18.3475,0.46693593422081653,0.0,0.0,33.2,9.531235200352809,-2.066505,1.5401627238073112,-0.035375,0.02820655213480254,-0.9985500000000002,0.008939456856481228,-0.17794,0.045394473476649363,5.459829999999999,2.741445567700856,4.5857550000000025,6.22378844347548,-17.13784,8.006386204351013,100.0,0.0,0.2936408700045466,0.5568071111115154,-4.5117449999999995,2.4403182191684656,4.805385870004548,2.772638528276138
58.0,20.0,0.0,0.8670000000000005,0.28063618203408147,-4.15183,2.433266454811537,-0.0019610000000000053,0.007820770706550885,0.15993900000000008,0.12890055188658667,0.028551999999999134,0.9513600564431726,36.4,0.8432740427115678,28.11047,0.023341429547766614,18.367,0.4568989676795808,0.0,0.0,33.2,9.531235200352809,-1.7300200000000003,1.5334592367150386,-0.029850000000000026,0.02677433472562859,-0.9990000000000002,0.00994428926011754,-0.1773,0.04453804865255973,5.965439999999996,3.083189504104837,6.134940000000006,8.382072293784066,-17.574009999999994,7.608026738247499,100.0,0.0,0.11235702362515476,0.44809715402491257,-4.15183,2.433266454811537,4.264187023625155,2.669097816225817
59.0,20.0,0.0,0.9989999999999999,0.0031622776601690846,-3.5345749999999994,2.3887195476575114,0.0011919999999999973,0.008014578106314906,0.06356950000000017,0.07247473001942753,0.28067949999999975,1.0001194195374037,36.4,0.8432740427115678,28.10605,0.018565095684584157,18.499000000000002,0.5260006337131796,0.0,0.0,33.2,9.531235200352809,-1.0798550000000002,1.348822381118269,-0.019430000000000006,0.02499631306146301,-1.001555,0.008853952350347404,-0.17611,0.04358346908838003,6.715539999999995,4.206726546906094,8.648835000000007,11.420671513970982,-18.045579999999998,7.636241552375241,100.0,0.0,-0.06829656917959397,0.45920150006979565,-3.5345749999999994,2.3887195476575114,3.466278430820407,2.6614340294706413
60.0,20.0,0.0,0.93,0.3128720008068617,-3.0316,2.318646118367833,0.002419999999999999,0.007915217411206507,0.06793000000000003,0.07186774968262503,0.43664999999999976,0.9750677529165741,36.4,0.8432740427115678,28.103699999999996,0.022617839566737106,18.51,0.5506561742341789,0.0,0.0,33.3,9.603818684946802,-0.7646000000000004,1.1423403073418081,-0.014200000000000013,0.02060097085090893,-1.004,0.010498677165349092,-0.177,0.03965686153324122,6.2227999999999986,6.930336352267151,15.559999999999997,25.832282933483743,-17.2173,9.638653779329236,100.0,0.0,-0.13865578642165916,0.4535085515905983,-3.0316,2.318646118367833,2.892944213578341,2.6462737737404005
61.0,20.0,0.0,1.0125000000000006,0.4786975964937459,-2.548715000000001,2.4332378246153588,0.004309500000000006,0.008120271769535236,0.08904200000000122,0.09674438069240063,0.5871564999999991,1.0288801846939386,36.4,0.8432740427115678,28.094915000000004,0.029307470132298504,18.7125,0.6861618289846473,0.0,0.0,33.3,9.603818684946802,-0.347045000000002,1.1901976568924253,-0.006715000000000047,0.02019070261833949,-1.00685,0.014670624465994053,-0.174295,0.03717112417216116,6.916259999999996,8.235859870266532,18.40352,29.137195095980374,-17.266585,10.78009564382561,100.0,0.0,-0.24691616181162868,0.4652573008935976,-2.548715000000001,2.4332378246153588,2.3017988381883723,2.80822560362862
62.0,20.0,0.0,1.1,0.5676462121975466,-2.1096299999999997,2.539669457516951,0.007612000000000008,0.010491810351147443,0.2937910000000005,0.8426281833044104,0.5630670000000003,1.1451810950534325,36.4,0.8432740427115678,28.093490000000003,0.030553066767329582,18.8,0.6324555320336759,0.0,0.0,33.3,9.603818684946802,-0.09048,1.4874829939644132,-0.001580000000000012,0.026404831207775425,-1.00958,0.01702917757523508,-0.17169999999999996,0.0358546758147076,7.086919999999999,9.427030606930266,21.893010000000004,32.24704156402741,-17.20194,12.066376620749816,100.0,0.0,-0.436135473653583,0.6011364525724188,-2.1096299999999997,2.539669457516951,1.673494526346417,2.840638871283539
63.0,20.0,0.0,1.0550000000000002,0.5936937107821021,-1.6329600000000013,2.4507858123920605,0.017539500000000038,0.038438386661860245,0.2731914999999998,0.859336388693979,0.45959699999999976,1.3280498023610083,36.4,0.8432740427115678,28.090040000000005,0.05212930930761462,18.755000000000003,0.7072835357902797,0.0,0.0,33.3,9.603818684946802,-0.2715150000000037,2.3269391053544544,-0.004495000000000053,0.04269655496120923,-1.0153249999999998,0.01867831853602816,-0.16738499999999998,0.03911011555708948,6.525909999999999,10.881583147042528,27.658144999999998,38.92046469664094,-16.351514999999996,15.186270983469287,100.0,0.0,-1.0049393247697096,2.202357327016549,-1.6329600000000013,2.4507858123920605,0.6280206752302917,3.103875047491924
64.0,20.0,0.0,1.1,0.5676462121975466,-1.122646666666667,2.549984012353657,0.02083666666666668,0.05315906187339336,0.14277266666666652,0.6381697035219804,0.18698800000000043,1.382237220586009,36.4,0.8432740427115678,28.086959999999998,0.06409970012063677,18.8,0.6324555320336759,0.0,0.0,33.3,9.603818684946802,-0.48120666666666806,3.448316376372035,-0.008066666666666694,0.06221520595362402,-1.0220799999999999,0.0217932099517258,-0.16264,0.04382488384975419,5.759160000000001,12.119415135429964,32.64315333333333,40.533321639155844,-16.32904,17.032840212248807,100.0,0.0,-1.1938530591209262,3.045789888220247,-1.122646666666667,2.549984012353657,-0.07120639245425897,3.568407600237895
65.0,20.0,0.0,1.2325,0.7389980078156879,-0.4478,2.5425976786655715,0.022365,0.06469966426153659,0.023234999999999992,0.48286477564174796,-0.176715,1.4668017461091627,36.4,0.8432740427115678,28.083250000000003,0.07664601171040215,18.9,0.3162277660168379,0.0,0.0,33.4,9.547541859324605,-1.2347749999999997,5.300727886927417,-0.023774999999999998,0.09469083098284767,-1.02895,0.021986675257730327,-0.15439999999999998,0.04747253591990496,4.4556249999999995,13.907358533969026,38.843650000000004,44.4017369669626,-14.6911,20.485897513153883,100.0,0.0,-1.281420108810086,3.7070176980994525,-0.4478,2.5425976786655715,-0.8336201088100861,3.815685160767191
66.0,20.0,0.0,1.0710000000000002,0.7438705084444017,0.10276999999999967,2.6202165356024385,0.031502999999999996,0.07900442604338345,0.34158299999999997,1.0580480682007476,-0.6340969999999999,1.5114191410874604,36.4,0.8432740427115678,28.06988,0.08117559567587657,18.771,0.4198002170345109,0.0,0.0,33.44,9.57905121722513,-1.7109799999999997,6.551087390281944,-0.031880000000000006,0.11932314481645581,-1.03467,0.01854364521278861,-0.14178000000000002,0.05335901048557779,4.141440000000003,13.527596102634051,39.49530999999998,41.29953184949759,-14.489880000000008,23.45268726766959,100.0,0.0,-1.804988942000632,4.526620175139317,0.10276999999999967,2.6202165356024385,-1.9077589420006316,3.8158336091070852
67.0,20.0,0.0,0.9836666666666666,0.8002182572643918,0.41582999999999937,2.7028046545517608,0.03544600000000002,0.08507869823483041,0.3491518333333329,0.9302524386504407,-0.7446581666666675,1.454069280402893,36.4,0.8432740427115678,28.06001,0.08710494883249316,18.883666666666667,0.48194935956507523,0.0,0.0,33.5,9.629237883769527,-2.0682750000000008,7.355804071889612,-0.03745333333333334,0.13527198568480878,-1.033906666666667,0.016499845117118175,-0.1363616666666667,0.05228605498884283,3.558456666666671,13.350312465565075,39.57831333333333,38.86414347523233,-13.52054166666667,25.15452278912965,100.0,0.0,-2.030906200620717,4.87465033532291,0.41582999999999937,2.7028046545517608,-2.446736200620716,3.787069650710386
68.0,20.0,0.0,0.8973333333333351,0.824322842185115,0.7923066666666656,2.9203164153272203,0.0430106666666667,0.09423667390219244,0.5160833333333328,1.0135102519303396,-0.9163280000000006,1.3840754270490414,36.4,0.8432740427115678,28.060339999999997,0.09516507529317492,18.797333333333334,0.3416040593045294,0.0,0.0,33.6,9.686187187031965,-2.1519533333333327,7.493277710222578,-0.041126666666666666,0.13730504724881748,-1.0333933333333334,0.013206973466625449,-0.12698666666666672,0.05158757434848527,3.1595800000000076,12.733216062134016,40.228753333333295,35.80976120102061,-12.36672000000001,25.63942245330541,100.0,0.0,-2.4643296740440137,5.399363689946256,0.7923066666666656,2.9203164153272203,-3.25663634071068,3.8077964015684977
69.0,20.0,0.0,0.71,0.7957665766067623,1.3668599999999986,3.288549371582145,0.06096999999999998,0.10053914527850998,0.8422260000000001,1.3174190908506596,-1.224514,1.2049436691692728,36.4,0.8432740427115678,28.053445,0.09885174210233612,18.628999999999998,0.6278437526787873,0.0,0.0,33.7,9.718824803213378,-2.924579999999997,7.507062213350249,-0.055889999999999974,0.13844081326609498,-1.03385,0.011634551034645786,-0.11237500000000003,0.04810170504023509,2.0978800000000044,11.738453589407193,43.928329999999974,35.11972455030079,-8.342870000000024,24.851047477679685,100.0,0.0,-3.4933236769126284,5.760468700311259,1.3668599999999986,3.288549371582145,-4.860183676912627,3.6507799221939545
70.0,20.0,0.0,0.745,0.7840245177572219,1.8493,3.707778274564612,0.084425,0.10928859158210431,0.9287000000000001,1.225486429500094,-1.5421850000000001,1.2893484190021458,36.4,0.8432740427115678,28.024,0.10643725329455359,18.759999999999998,0.5561774297230458,0.0,0.0,33.8,9.647106647418523,-3.7903,6.991608733172772,-0.07024999999999999,0.12736196231388885,-1.03065,0.014963009946754265,-0.1048,0.040537499785863566,1.6777499999999996,10.602654141639357,45.64435,38.58741038361979,-1.8813000000000006,23.96283411196968,100.0,0.0,-4.837196185391976,6.261775046583553,1.8493,3.707778274564612,-6.6864961853919755,3.9801067085509003
71.0,20.0,0.0,0.4039999999999992,0.6590262176541654,2.1745599999999996,3.9986742001290594,0.10376499999999995,0.11605322672521147,1.0755820000000007,1.205588407358278,-1.8267404999999992,1.398749153965487,36.4,0.8432740427115678,27.991575,0.10503872632404591,18.551,0.7633326055309483,0.0,0.0,33.9,9.386160024205852,-4.508889999999998,6.448180767506791,-0.08196999999999997,0.11702579772568673,-1.028715,0.01694838651776493,-0.09764000000000002,0.03794880908686215,1.781624999999999,9.494945743489302,45.250095,40.035786148196706,1.9561449999999965,23.970519911693955,100.0,0.0,-5.945296561174984,6.649360090229469,2.1745599999999996,3.9986742001290594,-8.119856561174982,4.585261139464018
72.0,20.0,0.0,0.22799999999999954,0.40223818261765576,2.5023666666666666,4.4549643738859,0.128752,0.11720728047163095,1.3208779999999987,1.1238589543947826,-2.1717299999999997,1.416148227623084,36.4,0.8432740427115678,27.96164,0.11052029677846571,18.627999999999997,0.8558400681331888,0.0,0.0,34.007999999999996,9.482649418806961,-5.096606666666666,5.984409264611699,-0.09197333333333331,0.1085698327925054,-1.02094,0.017330268959892762,-0.10212666666666666,0.0376834436580035,1.6257266666666652,7.989574365921665,43.35794000000001,41.07256643790353,8.141206666666665,21.98634195260186,100.0,0.0,-7.376946203868374,6.715482499230567,2.5023666666666666,4.4549643738859,-9.87931287053504,4.671318235793037
73.0,20.0,0.0,0.1590000000000032,0.30661050210324214,2.6471999999999993,4.798446988117903,0.1512476666666666,0.11626926893590106,1.2258549999999995,1.1384149640057524,-2.5179669999999996,1.519575921448335,36.4,0.8432740427115678,27.931526666666667,0.10814535006527487,18.869999999999997,0.37694679848605844,0.0,0.0,34.1,9.573690801125528,-5.412716666666663,5.489154430514507,-0.09716333333333328,0.09855094997381171,-1.0150399999999997,0.019868747094648705,-0.10337333333333336,0.0456119266404287,2.0055933333333273,6.4434359955953155,40.26363000000002,36.32147614459434,11.571963333333322,17.995559292166753,100.0,0.0,-8.665852961201502,6.661738397098659,2.6471999999999993,4.798446988117903,-11.313052961201501,4.609466831753489
74.0,20.0,0.0,0.18799999999999956,0.39734675592540547,2.9105433333333335,5.211401080775083,0.1877973333333333,0.10172018025500704,1.2087580000000007,1.074430672628274,-2.9826386666666664,1.3443696832824255,36.324666666666666,0.8169564111859199,27.899173333333334,0.11175945597577017,18.988,0.44384181366287995,0.0,0.0,34.172000000000004,9.542085492991328,-5.705246666666666,5.376331610859389,-0.10291333333333333,0.09713588191577587,-1.0120566666666666,0.020695344797714708,-0.11384666666666668,0.052381078008507345,1.9228866666666646,5.8900050759205955,34.59991000000001,35.118432238971366,17.35302666666667,15.28397960668233,100.0,0.0,-10.759994603811489,5.828137019921873,2.9105433333333335,5.211401080775083,-13.670537937144823,4.5202476012835255
75.0,20.0,0.0,0.075,0.23717082451262847,2.9265,5.6138299216211465,0.21170833333333333,0.08490343098245555,1.0925375,0.9474698141812868,-3.3457875,1.1110122762379309,36.375,0.8270597183866336,27.88025,0.08883857082746581,19.075,0.23717082451262844,0.0,0.0,34.2,9.531235200352809,-5.339583333333333,6.134955505211584,-0.09758333333333333,0.11042038777796896,-1.0065416666666667,0.027515462824463727,-0.125,0.05193813092944763,1.6727083333333337,5.787032716016905,30.437541666666668,33.12807804034202,20.791249999999998,11.968735559898454,100.0,0.0,-12.129993987748803,4.8646082614749755,2.9265,5.6138299216211465,-15.056493987748803,4.159383959917001
76.0,20.0,0.0,0.11399999999999977,0.22071600656852314,2.9144266666666665,5.882955404266855,0.2419753333333333,0.055204527820205636,0.7503780000000007,0.8403276321610126,-3.7227846666666666,0.7901344988807176,36.362,0.8215135083761219,27.850739999999995,0.07288652062548215,19.113999999999997,0.22071600656852275,0.0,0.0,34.2,9.531235200352809,-3.855573333333332,6.054371140944059,-0.07015333333333332,0.1077407223813691,-1.0018066666666665,0.03353835394269054,-0.14243333333333333,0.057380516760514685,0.7228066666666664,5.848284140844165,23.532546666666683,34.04445100514588,24.08465333333333,11.807437372373332,100.0,0.0,-13.864165346271264,3.1629864541103214,2.9144266666666665,5.882955404266855,-16.778592012937928,4.176132735150601
77.0,20.0,0.0,0.22049999999999953,0.37446591596862516,2.6885983333333336,6.160268691457679,0.251903,0.046015773213588844,0.5472435000000002,0.7479424577764803,-3.821597833333333,0.6578667645185119,36.3,0.8232726023485646,27.844945000000003,0.07115500470412707,19.220499999999998,0.3744659159686256,0.0,0.0,34.2,9.531235200352809,-2.419195000000002,6.196604028661812,-0.045940000000000036,0.10913867274659746,-0.9939450000000001,0.04012529992965095,-0.15237166666666663,0.05815855140778396,-0.5026583333333324,6.41406403358984,20.345244999999995,33.587221133147004,24.724351666666667,12.778436495186302,100.0,0.0,-14.432978746683975,2.6365095961697858,2.6885983333333336,6.160268691457679,-17.12157708001731,4.7852882379899215
78.0,20.0,0.0,0.0,0.0,2.308930000000001,6.246128000262777,0.260763,0.03911747493838972,0.22722833333333323,0.6624613582790786,-3.9058003333333344,0.6202931281982723,36.3,0.8232726023485646,27.849759999999996,0.09775314942354582,19.0,0.0,0.0,0.0,34.2,9.531235200352809,-0.09558000000000319,6.181449542659427,-0.005320000000000028,0.10976160834584499,-0.9822399999999998,0.044346995388639364,-0.1743033333333333,0.04548982914405767,-2.4779099999999947,6.309161356568897,15.18851666666668,31.040947420174508,25.68434,13.751269171663955,100.0,0.0,-14.940619353169888,2.2412662191785016,2.308930000000001,6.246128000262777,-17.24954935316989,5.374387919838809
79.0,20.0,0.0,0.17,0.3653004851412662,1.9028600000000004,6.35120118226991,0.26379400000000003,0.038113959807690154,0.076606166666667,0.5978822791835858,-3.943313666666667,0.8292894623529399,36.3,0.8232726023485646,27.842629999999996,0.12555852154805505,19.169999999999998,0.36530048514126606,0.0,0.0,34.2,9.531235200352809,1.9087250000000004,5.39645584575088,0.02810999999999998,0.09328007647223845,-0.9741099999999999,0.048954291606218434,-0.18687166666666666,0.04320167467175836,-4.430775,6.967501203494293,11.924858333333347,30.48770692783177,25.700215000000004,14.61883767491737,100.0,0.0,-15.114282860874038,2.1837690375118965,1.9028600000000004,6.35120118226991,-17.01714286087404,6.019504598197841
80.0,20.0,0.0,0.16666666666666666,0.3600411499115478,1.2641666666666667,6.0805020123524525,0.2642933333333333,0.05135290824466697,-0.04402333333333336,0.5306454797673593,-3.9874533333333333,1.0687931460007927,36.38,0.8297255235585104,27.8365,0.13853780069794017,19.166666666666668,0.36004114991154795,0.0,0.0,34.2,9.531235200352809,4.520299999999999,4.3932010052852695,0.07276666666666667,0.07422954887324809,-0.9624666666666666,0.044626349964019124,-0.19603333333333334,0.04171758370427819,-7.861633333333335,6.9226159838961046,10.195066666666666,28.362381512868087,25.6904,14.9873237571779,100.0,0.0,-15.142892553444238,2.942304908141986,1.2641666666666667,6.0805020123524525,-16.407059220110906,6.3635302241555065
81.0,20.0,0.0,0.12533333333333263,0.22049439398265308,0.794733333333334,6.024997202273826,0.26295366666666664,0.05453969802236135,-0.17203716666666607,0.6358774563604517,-4.014757666666666,1.1593538225292077,36.334500000000006,0.8165049159544465,27.831020000000002,0.15294810884741264,19.125333333333334,0.2204943939826531,0.0,0.0,34.2,9.531235200352809,6.066809999999998,3.5442480883280902,0.09863333333333328,0.060261361307778954,-0.9556333333333333,0.039924472676774556,-0.20006666666666661,0.04239929827045679,-10.244061666666662,6.608372870808125,10.130608333333342,27.33095247361074,24.903675,15.628821677682332,100.0,0.0,-15.066135307489878,3.124894512599308,0.794733333333334,6.024997202273826,-15.860868640823213,6.6783848916436845
82.0,20.0,0.0,0.15600000000000136,0.28702303430599896,0.09278000000000022,5.775605634582594,0.2576879999999999,0.0638207987345122,-0.3924260000000016,0.8878914655920053,-4.152959999999998,1.2393727431783124,36.382,0.8308737034658827,27.83338,0.15789336626695546,19.156000000000002,0.28702303430599835,0.0,0.0,34.2,9.531235200352809,7.85962,2.6315177259098546,0.13070999999999997,0.04421559428276154,-0.94952,0.02675671462974806,-0.20060000000000003,0.04168367652797548,-13.56849,5.6683486026355085,9.5266,24.91766997690149,23.500790000000006,15.984443187775486,100.0,0.0,-14.764434831167154,3.6566624126414147,0.09278000000000022,5.775605634582594,-14.857214831167152,7.077360676518181
83.0,20.0,0.0,0.2318333333333343,0.35084065708903656,-0.40681499999999937,5.6002187969186625,0.2391423333333333,0.08049330818056775,-0.8165041666666649,1.0985985780746677,-4.333543666666666,1.5133982439558085,36.4,0.8432740427115678,27.81925,0.18015798776506023,19.231833333333334,0.35084065708903683,0.0,0.0,34.2,9.531235200352809,7.9929200000000025,3.6227197533375715,0.13432166666666673,0.06036784671219166,-0.9550583333333333,0.01975243890238855,-0.19597000000000003,0.04676571156069133,-15.388469999999998,4.758040563392548,8.110393333333345,22.363810697383578,22.018660000000004,15.901279427433922,100.0,0.0,-13.701846402910704,4.611926837792396,-0.40681499999999937,5.6002187969186625,-13.295031402910704,8.269020554372307
84.0,20.0,0.0,0.15200000000000047,0.2478709341572744,-1.1299066666666655,5.163927826445753,0.21991533333333338,0.09532507382246952,-1.144570666666665,1.1968931714252713,-4.4930206666666646,1.6543397969215736,36.4,0.8432740427115678,27.826526666666666,0.19459032102609067,19.151999999999997,0.24787093415727432,0.0,0.0,34.2,9.531235200352809,8.584766666666667,5.433989849838527,0.14464000000000002,0.09154932125484176,-0.9597866666666667,0.019681659068881995,-0.18324666666666667,0.04581167084035665,-16.918546666666664,5.782140693318809,6.718786666666676,21.43987426452905,19.28444666666667,13.83482829516119,100.0,0.0,-12.600220450212671,5.461724411800509,-1.1299066666666655,5.163927826445753,-11.470313783546008,8.960764451165028
85.0,20.0,0.0,0.15250000000000227,0.2824618951685797,-1.6691083333333316,4.841814776540311,0.19450166666666674,0.10924096720858274,-1.4410783333333332,1.188414172203632,-4.423333333333336,1.7900287501829324,36.4,0.8432740427115678,27.849608333333332,0.2079151731186614,19.152500000000003,0.28246189516857984,0.0,0.0,34.2,9.531235200352809,8.198183333333334,6.89100514915935,0.13810000000000003,0.11760451616422814,-0.9694583333333332,0.02901498256010091,-0.16673333333333343,0.046481457872208864,-17.01855833333333,6.855911510888889,4.058883333333345,20.56989877059214,16.683908333333342,11.849599742839825,100.0,0.0,-11.144124608260372,6.259046370978813,-1.6691083333333316,4.841814776540311,-9.475016274927041,9.305636322479126
86.0,20.0,0.0,0.1,0.31622776601683794,-2.3439999999999994,4.476038093125562,0.15093300000000007,0.11907411520654775,-2.107196999999999,1.3471763312866238,-4.231457000000001,1.8547343714939637,36.4,0.8432740427115678,27.91326,0.18482720578962458,19.1,0.3162277660168379,0.0,0.0,34.2,9.531235200352809,7.451890000000001,7.863285662205364,0.12756000000000003,0.13569916236538332,-0.9835100000000001,0.03660104582598092,-0.14295000000000005,0.04766585663647394,-16.106860000000005,7.555628359956422,1.5445600000000066,22.230718790508476,12.748620000000006,9.249064135936496,100.0,0.0,-8.647823889248055,6.822444250589722,-2.3439999999999994,4.476038093125562,-6.303823889248059,9.55273819358297
87.0,20.0,0.0,0.1,0.31622776601683794,-2.78769,4.253612970418336,0.09939099999999998,0.13424953072129864,-2.541791,1.3508388681868917,-4.0390825,2.294029677914257,36.4,0.8432740427115678,27.933365000000002,0.22830097708702185,19.1,0.3162277660168379,0.0,0.0,34.2,9.531235200352809,6.504565000000001,8.181497547143596,0.11371,0.1434304976867426,-1.001035,0.034537387551592406,-0.11781499999999998,0.04409854526449188,-14.791649999999999,7.975804594452455,-0.3758149999999981,22.545383803798583,10.865015,6.145265171660843,100.0,0.0,-5.694684821584763,7.691931511942299,-2.78769,4.253612970418336,-2.9069948215847634,10.0410845336779
88.0,20.0,0.0,0.16800000000000181,0.3621172308643859,-3.230259999999999,4.033857779732835,0.025534000000000102,0.13735176835815086,-2.5413513333333313,1.4119189204436173,-3.439638,2.538819571733638,36.4,0.8432740427115678,28.0048,0.20949081125433672,19.168,0.36211723086438585,0.0,0.0,34.2,9.531235200352809,5.337700000000002,8.030912650087373,0.09565333333333334,0.14280569134835455,-1.0196866666666669,0.02771577168328536,-0.09741333333333335,0.038228808218119734,-12.43355333333334,7.636737452574598,0.18391333333333568,24.50032350101464,10.483966666666666,4.770108613019212,100.0,0.0,-1.46299043408705,7.8696766355805705,-3.230259999999999,4.033857779732835,1.7672695659129496,10.350177347108467
89.0,20.0,0.0,0.2,0.42163702135578396,-3.536279999999999,3.8756500641254448,-0.020231499999999993,0.10140015812090457,-2.6413796666666665,1.9963982497615804,-2.9135245,2.1533123422125073,36.4,0.8432740427115678,28.06988,0.10596928066399541,19.2,0.4216370213557839,0.0,0.0,34.2,9.531235200352809,4.43935,7.365955118727723,0.08056666666666668,0.13441620548243544,-1.0321983333333333,0.01387922875165407,-0.08561666666666669,0.03577252721997295,-10.55523666666667,6.227612200226294,0.35709166666666425,25.44559294487457,10.123438333333336,5.57230847660089,100.0,0.0,1.1591795632189248,5.809801102287032,-3.536279999999999,3.8756500641254448,4.695459563218925,8.22816062492979
90.0,20.0,0.0,0.2549999999999989,0.4284662569366841,-3.8057333333333334,3.7635817613111686,-0.08545666666666651,0.08463764419461846,-2.1059099999999975,2.0531589831011305,-1.8511016666666678,1.6665094148121138,36.4,0.8432740427115678,28.110333333333337,0.049778769831384254,19.255,0.42846625693668416,0.0,0.0,34.2,9.531235200352809,3.580516666666668,6.932641848731103,0.06593333333333333,0.1268979905278252,-1.0405000000000002,0.013572848714334883,-0.08488333333333331,0.05125667978149015,-7.959566666666672,5.913729695785462,2.715716666666664,25.903721856617434,12.30028333333333,7.129875775955391,100.0,0.0,4.896306331256295,4.849379800281572,-3.8057333333333334,3.7635817613111686,8.702039664589627,7.045610165488015
91.0,20.0,0.0,0.1,0.31622776601683794,-4.065910000000001,3.655507377901034,-0.13696149999999999,0.05500368028343396,-1.1268635000000011,1.4296033537237012,-1.0912425000000001,1.2423268626547546,36.4,0.8432740427115678,28.10394,0.04179678881870681,19.1,0.3162277660168379,0.0,0.0,34.2,9.531235200352809,2.7362200000000003,6.355107356169875,0.052129999999999996,0.11752176205093064,-1.04699,0.019457672008747623,-0.08858999999999999,0.056385684747499935,-5.271445000000004,4.982489548322088,5.8063749999999965,24.124896319423154,15.662839999999994,7.778534840501058,100.0,0.0,7.847315905781024,3.1514787379277056,-4.065910000000001,3.655507377901034,11.913225905781022,5.1736913282195465
92.0,20.0,0.0,0.2,0.42163702135578396,-4.247240000000001,3.560879999600598,-0.15059066666666668,0.04900173856326142,-0.6186466666666677,0.911784941748879,-1.0941360000000002,1.0638527303177097,36.4,0.8432740427115678,28.102140000000002,0.04599613993466077,19.2,0.4216370213557839,0.0,0.0,34.2,9.531235200352809,2.0995800000000004,5.6963731919334215,0.04045333333333334,0.10559476137398874,-1.0444400000000003,0.021794555895146565,-0.09988666666666668,0.05938018998759574,-3.0001133333333327,4.69543606600345,8.390033333333331,21.355055597506475,18.584806666666662,8.246437690910787,100.0,0.0,8.62820963406141,2.8075928084783297,-4.247240000000001,3.560879999600598,12.875449634061411,4.80857191362692
93.0,20.0,0.0,0.1364999999999998,0.3243630510537363,-4.427255,3.4984752143255213,-0.15981599999999999,0.04748773197129737,-0.3226780000000021,0.550764742649304,-1.1222756666666656,1.011957138353058,36.4,0.8432740427115678,28.096835,0.04715458060700194,19.1365,0.3243630510537364,0.0,0.0,34.2,9.531235200352809,1.4780500000000028,5.277104564373661,0.028360000000000052,0.09937551900633163,-1.04065,0.024331552446246536,-0.10676,0.053722568193761304,-1.552088333333336,3.5668666496725567,9.252904999999995,18.043816690974015,20.75451166666665,8.330490363799786,100.0,0.0,9.156782298662765,2.7208466206038047,-4.427255,3.4984752143255213,13.584037298662764,4.5465896709489355
94.0,20.0,0.0,0.1,0.31622776601683794,-4.54897,3.4657795583068727,-0.168553,0.039351236617587146,-0.22581100000000037,0.35423479145429515,-1.1844466666666666,0.9487523215020637,36.434,0.7854255746621293,28.086309999999997,0.04408508062069727,19.1,0.3162277660168379,0.0,0.0,34.2,9.531235200352809,0.737930000000002,4.483583438389433,0.015070000000000036,0.08178263942372559,-1.0375900000000002,0.02229650944281042,-0.11645000000000001,0.048702116084530775,-0.5036233333333298,2.5669522532820093,10.165009999999997,14.984966771805363,22.716476666666665,7.16488556758275,100.0,0.0,9.657375524268565,2.2546597768084045,-4.54897,3.4657795583068727,14.206345524268565,4.194611510405937
95.0,20.0,0.0,0.05499999999999999,0.17392527130926083,-4.7722999999999995,3.4559787643219755,-0.17046250000000002,0.04121615151652725,0.002419999999999101,0.3312024435044732,-1.1315050000000004,0.9236626071876388,36.4525,0.758511883741961,28.089925,0.0446287230006268,19.055,0.17392527130926108,0.0,0.0,34.2,9.531235200352809,-0.17367499999999714,4.17456946391215,-0.0019249999999999532,0.07435015224523006,-1.0304250000000001,0.02141392654325686,-0.12309999999999999,0.04459636881082486,-0.10657499999999928,1.8156131771464366,9.642675,12.246461633564252,23.011300000000006,6.323871477935371,100.0,0.0,9.766781815248796,2.3615115296687392,-4.7722999999999995,3.4559787643219755,14.539081815248796,4.228079003444991
96.0,20.0,0.0,0.0,0.0,-4.997893333333334,3.4432192767600296,-0.16272133333333336,0.04377138337958904,0.4615826666666664,0.38006779548839426,-1.0279146666666665,0.9275757529228386,36.5,0.7071067811865476,28.08724,0.042065536170757895,19.0,0.0,0.0,0.0,34.2,9.531235200352809,-1.7419066666666656,3.3322947348191914,-0.03225333333333332,0.05933359800190657,-1.02232,0.015503175301996838,-0.13576,0.03959537571204218,0.12825333333333444,1.1742712925233432,9.476199999999993,10.128705650772941,21.803919999999998,5.158296307201531,100.0,0.0,9.323245636741438,2.507915531099529,-4.997893333333334,3.4432192767600296,14.321138970074774,4.46915893036928
97.0,20.0,0.0,0.05399999999999977,0.17076299364909175,-5.293833333333333,3.3656646096193907,-0.15091183333333333,0.04444715230952292,0.6234316666666664,0.29739781011796795,-1.0236206666666667,0.8941198982937439,36.5,0.7071067811865476,28.086054999999998,0.04067304902102439,19.054,0.17076299364909223,0.0,0.0,34.2,9.531235200352809,-3.040276666666666,2.7578035286558493,-0.05421333333333332,0.048440988536263045,-1.01406,0.011524654730909188,-0.14270999999999998,0.03681177951568101,-0.005146666666666688,1.1350319672933347,8.425825,8.18772634802476,18.714665000000004,4.723855853481589,100.0,0.0,8.646611128581693,2.546634238710813,-5.293833333333333,3.3656646096193907,13.940444461915027,4.609471255652
98.0,20.0,0.0,0.1859999999999991,0.39350843560067117,-5.603369999999998,3.360877851610268,-0.13701800000000003,0.04387102050328899,0.5679340000000004,0.26816166352076176,-1.078925,0.8281583896983585,36.571999999999996,0.7948836392831319,28.08784,0.04231330759938273,19.186,0.3935084356006714,0.0,0.0,34.2,9.531235200352809,-4.341849999999995,2.281161879028611,-0.0779199999999999,0.03859720197112743,-1.0076699999999998,0.009139420112895574,-0.15111,0.03506313195112813,0.05556000000000113,1.3835672920228892,7.1061900000000024,6.18836011457532,14.233740000000017,5.320879279926935,100.0,0.0,7.850553117323517,2.51362431777036,-5.603369999999998,3.360877851610268,13.453923117323512,4.617287839861323
99.0,20.0,0.0,0.26299999999999957,0.4352789654667193,-5.887526666666667,3.3129562664216117,-0.12682,0.04200149691629902,0.5078818333333335,0.22960104730270736,-1.093377166666667,0.8318216460312894,36.564,0.7823497370812577,28.08879,0.04336123332604322,19.262999999999998,0.4352789654667193,0.0,0.0,34.2,9.531235200352809,-5.251656666666665,1.9402520232952312,-0.09202333333333332,0.035409379381007924,-1.0013033333333332,0.007188849390240127,-0.1580766666666667,0.03641690287235883,0.11328500000000026,1.6563242966228973,6.113296666666666,5.376377242392732,10.05374166666667,3.4993177273740486,100.0,0.0,7.2662507578491,2.406508506535676,-5.887526666666667,3.3129562664216117,13.153777424515766,4.610635638669214
100.0,20.0,0.0,0.2,0.42163702135578396,-6.235000000000001,3.272230805497138,-0.1155,0.03765707842565001,0.4908,0.22703196054985542,-1.0726,0.8399342831436278,36.6,0.8432740427115678,28.089999999999996,0.0447213595499959,19.2,0.4216370213557839,0.0,0.0,34.2,9.531235200352809,-6.148999999999999,2.0307002076459573,-0.10700000000000001,0.03622460796505909,-0.9970000000000001,0.006749485577105536,-0.16699999999999998,0.03529242915351047,0.508,1.9133612076947495,5.053999999999999,4.561679028116243,4.9350000000000005,1.2205941176328845,100.0,0.0,6.617662533761009,2.1575916625828926,-6.235000000000001,3.272230805497138,12.85266253376101,4.58456489742195
