cycle_index,gait_percent,segment_id,walk_dt_ms,walk_exec_ms,walk_out,walk_state,walk_tilt_forward_deg,walk_pos_rad,walk_vel_rad_s,walk_tq_nm,walk_temp_c,walk_vbus_v,walk_err_code,walk_fb_age_ms,walk_typical_stride_ms,walk_effective_step_count,walk_tilt_accel_deg,walk_acc_x,walk_acc_y,walk_acc_z,walk_gyr_x,walk_gyr_y,walk_gyr_z,cfg_gait_model,cfg_gait_mode,cfg_side_is_left,cfg_assist_pct
5,0.0,1,20.0,0.0,0,1,-5.5,-0.15,-0.072,0.0,34.0,28.18,0,13.0,0.0,5.0,-7.23,-0.13,-0.99,-0.13,3.3,-0.75,2.49,0,1,0,100.0
5,1.0,1,20.0,0.0,0,1,-5.537333333333334,-0.15023333333333333,-0.04936666666666666,0.0,34.0,28.18,0,13.0,0.0,5.0,-7.232333333333334,-0.13,-0.99,-0.13,3.314,-0.764,2.378,0,1,0,100.0
5,2.0,1,20.0,0.0,0,1,-5.574666666666666,-0.15046666666666667,-0.026733333333333328,0.0,34.0,28.18,0,13.0,0.0,5.0,-7.234666666666667,-0.13,-0.99,-0.13,3.328,-0.778,2.266,0,1,0,100.0
5,3.0,1,20.0,0.0,0,1,-5.612,-0.1507,-0.004099999999999996,0.0,34.0,28.18,0,13.0,0.0,5.0,-7.237,-0.13,-0.99,-0.13,3.3419999999999996,-0.792,2.154,0,1,0,100.0
5,4.0,1,20.0,0.0,0,1,-5.649333333333334,-0.15093333333333334,0.01853333333333334,0.0,34.0,28.18,0,13.0,0.0,5.0,-7.239333333333334,-0.13,-0.99,-0.13,3.356,-0.806,2.042,0,1,0,100.0
5,5.0,1,20.0,0.5,0,1,-6.02,-0.151,-0.019,0.0,34.0,28.16,0,13.5,0.0,5.0,-7.25,-0.13,-0.99,-0.12,3.515,-0.99,1.24,0,1,0,100.0
5,6.0,1,20.0,0.9333333333333333,0,1,-6.098,-0.151,-0.009466666666666667,0.0,34.0,28.18,0,13.933333333333334,0.0,5.0,-7.261333333333333,-0.13,-0.99,-0.12,3.542,-1.0213333333333334,1.092,0,1,0,100.0
5,7.0,1,20.0,0.7,0,1,-6.1259999999999994,-0.151,-0.0076,0.0,34.0,28.18,0,13.7,0.0,5.0,-7.266,-0.13,-0.99,-0.12,3.549,-1.026,1.0290000000000001,0,1,0,100.0
5,8.0,1,20.0,0.4666666666666667,0,1,-6.154,-0.151,-0.005733333333333333,0.0,34.0,28.18,0,13.466666666666667,0.0,5.0,-7.270666666666667,-0.13,-0.99,-0.12,3.556,-1.0306666666666666,0.966,0,1,0,100.0
5,9.0,1,20.0,0.23333333333333334,0,1,-6.182,-0.151,-0.0038666666666666667,0.0,34.0,28.18,0,13.233333333333333,0.0,5.0,-7.275333333333333,-0.13,-0.99,-0.12,3.5629999999999997,-1.0353333333333334,0.903,0,1,0,100.0
5,10.0,1,20.0,1.0,0,1,-6.43,-0.15,0.042,0.0,34.0,28.18,0,14.0,0.0,5.0,-7.31,-0.13,-0.99,-0.12,3.55,-1.0,0.23,0,1,0,100.0
5,11.0,1,20.0,1.0,0,1,-6.4615,-0.15,0.02415,0.0,34.0,28.18,0,14.0,0.0,5.0,-7.31,-0.13,-0.99,-0.12,3.5324999999999998,-0.986,0.1285,0,1,0,100.0
5,12.0,1,20.0,1.0,0,1,-6.492999999999999,-0.15,0.0063,0.0,34.0,28.18,0,14.0,0.0,5.0,-7.31,-0.13,-0.99,-0.12,3.515,-0.972,0.026999999999999975,0,1,0,100.0
5,13.0,1,20.0,1.0,0,1,-6.608,-0.15,0.029500000000000002,0.0,34.0,28.144000000000002,0,14.0,0.0,5.0,-7.276,-0.13,-0.99,-0.12,3.409,-0.929,-0.316,0,1,0,100.0
5,14.0,1,20.0,1.0,0,1,-6.664,-0.15,-0.058,0.0,34.0,28.172,0,14.0,0.0,5.0,-7.248,-0.13,-0.99,-0.12,3.332,-0.922,-0.42800000000000005,0,1,0,100.0
5,15.0,1,20.0,1.0,0,1,-6.694999999999999,-0.15,-0.0805,0.0,34.0,28.18,0,14.0,0.0,5.0,-7.23,-0.13,-0.99,-0.1175,3.2775000000000003,-0.925,-0.48000000000000004,0,1,0,100.0
5,16.0,1,20.0,1.0,0,1,-6.716,-0.15,-0.077,0.0,34.0,28.18,0,14.0,0.0,5.0,-7.216,-0.13,-0.99,-0.114,3.232,-0.9319999999999999,-0.508,0,1,0,100.0
5,17.0,1,20.0,1.0,0,1,-6.737,-0.15,-0.0735,0.0,34.0,28.18,0,14.0,0.0,5.0,-7.202,-0.13,-0.99,-0.1105,3.1865,-0.939,-0.536,0,1,0,100.0
5,18.0,1,20.0,1.0,0,1,-6.8149999999999995,-0.15,0.0244,0.0,34.0,28.18,0,14.0,0.0,5.0,-7.154,-0.12,-0.99,-0.11,3.049,-0.963,-0.618,0,1,0,100.0
5,19.0,1,20.0,1.0,0,1,-6.8325,-0.15,0.0237,0.0,34.0,28.18,0,14.0,0.0,5.0,-7.147,-0.12,-0.99,-0.11,3.0244999999999997,-0.9664999999999999,-0.639,0,1,0,100.0
5,20.0,1,20.0,1.0,0,1,-6.85,-0.15,0.023,0.0,34.0,28.18,0,14.0,0.0,5.0,-7.14,-0.12,-0.99,-0.11,3.0,-0.97,-0.66,0,1,0,100.0
5,21.0,1,20.0,1.0,0,1,-6.878,-0.15,0.0489,0.0,34.0,28.18,0,14.0,0.0,5.0,-7.119,-0.12,-0.99,-0.11,2.979,-0.97,-0.709,0,1,0,100.0
5,22.0,1,20.0,1.0,0,1,-6.932,-0.15,0.0046,0.0,34.0,28.164,0,14.0,0.0,5.0,-7.05,-0.12,-0.99,-0.11,2.952,-0.974,-0.768,0,1,0,100.0
5,23.0,1,20.0,1.0,0,1,-6.9510000000000005,-0.15005,0.00415,0.0,34.0,28.142,0,14.0,0.0,5.0,-7.0165,-0.12,-0.99,-0.11,2.937,-0.983,-0.742,0,1,0,100.0
5,24.0,1,20.0,1.0,0,1,-6.958,-0.1504,-0.0158,0.0,34.0,28.156,0,14.0,0.0,5.0,-6.992,-0.12,-0.99,-0.11,2.916,-1.004,-0.6859999999999999,0,1,0,100.0
5,25.0,1,20.0,1.0,0,1,-6.965,-0.15075,-0.035750000000000004,0.0,34.0,28.17,0,14.0,0.0,5.0,-6.9675,-0.12,-0.99,-0.11,2.895,-1.025,-0.63,0,1,0,100.0
5,26.0,1,20.0,1.0,0,1,-6.992,-0.1536,-0.21660000000000001,0.0,34.0,28.172,0,14.0,0.0,5.0,-6.868,-0.12,-0.99,-0.11,2.754,-1.16,-0.192,0,1,0,100.0
5,27.0,1,20.0,1.0,0,1,-6.999,-0.1557,-0.10670000000000002,0.0,34.0,28.144000000000002,0,14.0,0.0,5.0,-6.8260000000000005,-0.12,-0.99,-0.11,2.663,-1.23,0.11600000000000002,0,1,0,100.0
5,28.0,1,20.0,1.0,0,1,-7.003,-0.1563,-0.06219999999999999,0.0,34.0,28.14,0,14.0,0.0,5.0,-6.811,-0.12,-0.99,-0.11,2.605,-1.2730000000000001,0.298,0,1,0,100.0
5,29.0,1,20.0,1.0,0,1,-7.0065,-0.15665,-0.028599999999999993,0.0,34.0,28.14,0,14.0,0.0,5.0,-6.8005,-0.12,-0.99,-0.11,2.5524999999999998,-1.3115,0.459,0,1,0,100.0
5,30.0,1,20.0,1.0,0,1,-7.01,-0.157,0.005,0.0,34.0,28.14,0,14.0,0.0,5.0,-6.79,-0.12,-0.99,-0.11,2.5,-1.35,0.62,0,1,0,100.0
5,31.0,1,20.0,1.0,0,1,-7.0135,-0.157,-0.01145,0.0,34.0,28.154,0,14.0,0.0,5.0,-6.79,-0.12,-0.99,-0.1065,2.4475000000000002,-1.3780000000000001,0.7705,0,1,0,100.0
5,32.0,1,20.0,1.0,0,1,-7.0169999999999995,-0.157,-0.0279,0.0,34.0,28.168,0,14.0,0.0,5.0,-6.79,-0.12,-0.99,-0.10300000000000001,2.395,-1.406,0.921,0,1,0,100.0
5,33.0,1,20.0,1.0,0,1,-7.021,-0.157,-0.0177,0.0,34.0,28.144000000000002,0,14.0,0.0,5.0,-6.824,-0.12,-0.99,-0.1,2.173,-1.472,1.4129999999999998,0,1,0,100.0
5,34.0,1,20.0,1.0,6,2,-7.0280000000000005,-0.157,0.033400000000000006,0.0,34.0,28.172,0,14.0,0.0,5.0,-6.852,-0.12,-0.99,-0.1,2.054,-1.486,1.574,0,1,0,100.0
5,35.0,1,20.0,0.0,6,2,-7.03,-0.1315,1.9020000000000001,1.3399999999999999,34.0,28.0,0,17.0,0.0,5.0,-6.9750000000000005,-0.12,-0.99,-0.1,1.78,-1.565,0.31000000000000005,0,1,0,100.0
5,36.0,1,20.0,0.0,6,2,-7.031000000000001,-0.1022,3.5932,2.8278999999999996,34.0,27.852999999999998,0,17.0,0.0,5.0,-7.038,-0.12,-0.99,-0.1,1.683,-1.686,-0.736,0,1,0,100.0
5,37.0,1,20.0,0.0,6,2,-7.0345,-0.0889,2.8764,3.2510499999999998,34.0,27.8285,0,17.0,0.0,5.0,-7.066000000000001,-0.12,-0.99,-0.1,1.6235,-1.8119999999999998,-1.597,0,1,0,100.0
5,38.0,1,20.0,0.0,6,2,-7.038,-0.0756,2.1596,3.6742,34.0,27.804,0,17.0,0.0,5.0,-7.094,-0.12,-0.99,-0.1,1.564,-1.9379999999999997,-2.458,0,1,0,100.0
5,39.0,1,20.0,0.0,6,2,-7.04,-0.050199999999999995,0.4854,4.6705,34.0,27.748,0,17.0,0.0,5.0,-7.128,-0.12,-0.99,-0.1,1.3050000000000002,-2.659,-6.675,0,1,0,100.0
5,40.0,1,20.0,0.0,6,2,-7.04,-0.046,0.19,4.926,34.0,27.72,0,17.0,0.0,5.0,-7.1,-0.12,-0.99,-0.1,1.2,-3.03,-8.67,0,1,0,100.0
5,41.0,1,20.0,0.35000000000000003,6,2,-7.0365,-0.04495,0.13155,4.941050000000001,34.0,27.72,0,17.35,0.0,5.0,-7.0545,-0.12,-0.99,-0.1,1.1615,-3.2085,-9.531,0,1,0,100.0
5,42.0,1,20.0,0.7000000000000001,6,2,-7.033,-0.043899999999999995,0.0731,4.9561,34.0,27.72,0,17.7,0.0,5.0,-7.0089999999999995,-0.12,-0.99,-0.1,1.123,-3.387,-10.392000000000001,0,1,0,100.0
5,43.0,1,20.0,1.0,6,2,-7.029,-0.042899999999999994,0.0284,4.9792000000000005,34.0,27.72,0,18.0,0.0,5.0,-6.949,-0.12,-0.99,-0.1,1.086,-3.583,-11.314,0,1,0,100.0
5,44.0,1,20.0,1.0,6,2,-7.021999999999999,-0.0422,0.06620000000000001,5.0506,34.0,27.72,0,18.0,0.0,5.0,-6.802,-0.12,-0.99,-0.1,1.058,-3.8840000000000003,-12.602,0,1,0,100.0
5,45.0,1,20.0,1.0,6,2,-7.005,-0.042499999999999996,0.0415,5.093999999999999,34.0,27.72,0,18.0,0.0,5.0,-6.62,-0.11499999999999999,-0.99,-0.1,1.065,-4.135,-13.54,0,1,0,100.0
5,46.0,1,20.0,1.0,6,2,-6.982,-0.043,0.0092,5.1176,34.0,27.72,0,18.0,0.0,5.0,-6.42,-0.11,-0.99,-0.1,1.096,-4.346,-14.2,0,1,0,100.0
5,47.0,1,20.0,1.0,6,2,-6.954000000000001,-0.043,0.0204,5.1197,34.0,27.72,0,18.0,0.0,5.0,-6.21,-0.11,-0.99,-0.1,1.152,-4.507000000000001,-14.515,0,1,0,100.0
5,48.0,1,20.0,1.0,6,2,-6.852,-0.0424,0.033,5.130199999999999,34.0,27.72,0,18.0,0.0,5.0,-5.674,-0.1,-0.99,-0.1,1.404,-4.64,-14.097999999999999,0,1,0,100.0
5,49.0,1,20.0,1.0,6,2,-6.806500000000001,-0.042,0.0424,5.1265,34.0,27.72,0,18.0,0.0,5.0,-5.508,-0.0985,-0.9915,-0.1,1.5145,-4.6235,-13.7425,0,1,0,100.0
5,50.0,1,20.0,1.0,6,2,-6.775,-0.042,0.027,5.102,34.0,27.72,0,18.0,0.0,5.0,-5.41,-0.095,-0.995,-0.1,1.595,-4.585,-13.445,0,1,0,100.0
5,51.0,1,20.0,1.0,6,2,-6.7435,-0.042,0.0116,5.0775,34.0,27.72,0,18.0,0.0,5.0,-5.311999999999999,-0.0915,-0.9984999999999999,-0.1,1.6755,-4.5465,-13.147499999999999,0,1,0,100.0
5,52.0,1,20.0,1.0,6,2,-6.686,-0.041600000000000005,0.0054,5.0194,34.0,27.72,0,18.0,0.0,5.0,-5.162,-0.09,-1.0,-0.1,1.818,-4.458,-12.616,0,1,0,100.0
5,53.0,1,20.0,1.0,6,2,-6.485,-0.041,0.046400000000000004,4.926566666666667,34.0,27.72,0,18.0,0.0,5.0,-4.742666666666667,-0.08,-1.0,-0.1,2.2906666666666666,-4.111666666666666,-10.903666666666666,0,1,0,100.0
5,54.0,1,20.0,1.0,6,2,-6.45,-0.041,0.0212,4.930533333333333,34.0,27.72,0,18.0,0.0,5.0,-4.691333333333334,-0.08,-1.0,-0.1,2.365333333333333,-4.053333333333334,-10.649333333333333,0,1,0,100.0
5,55.0,1,20.0,1.0,6,2,-6.415,-0.041,-0.004000000000000002,4.9345,34.0,27.72,0,18.0,0.0,5.0,-4.64,-0.08,-1.0,-0.1,2.44,-3.995,-10.395,0,1,0,100.0
5,56.0,1,20.0,1.0,6,2,-6.38,-0.041,-0.029200000000000004,4.938466666666667,34.0,27.72,0,18.0,0.0,5.0,-4.588666666666667,-0.08,-1.0,-0.1,2.514666666666667,-3.936666666666667,-10.140666666666666,0,1,0,100.0
5,57.0,1,20.0,1.0,6,2,-6.345,-0.041,-0.054400000000000004,4.942433333333333,34.0,27.72,0,18.0,0.0,5.0,-4.537333333333334,-0.08,-1.0,-0.1,2.5893333333333333,-3.8783333333333334,-9.886333333333333,0,1,0,100.0
5,58.0,1,20.0,1.0,6,2,-5.984,-0.041,-0.0348,4.9894,34.0,27.72,0,18.0,0.0,5.0,-4.072,-0.07,-1.0,-0.09,3.434,-3.316,-7.561999999999999,0,1,0,100.0
5,59.0,1,20.0,1.0,6,2,-5.941999999999999,-0.041,-0.031066666666666666,5.0062,34.0,27.72,0,18.0,0.0,5.0,-4.027666666666667,-0.07,-1.0,-0.09,3.532,-3.264666666666667,-7.3309999999999995,0,1,0,100.0
5,60.0,1,20.0,1.0,6,2,-5.8999999999999995,-0.041,-0.02733333333333333,5.023,34.0,27.72,0,18.0,0.0,5.0,-3.9833333333333334,-0.07,-1.0,-0.09,3.63,-3.2133333333333334,-7.1,0,1,0,100.0
5,61.0,1,20.0,1.0,6,2,-5.858,-0.041,-0.0236,5.0398,34.0,27.72,0,18.0,0.0,5.0,-3.939,-0.07,-1.0,-0.09,3.728,-3.162,-6.869,0,1,0,100.0
5,62.0,1,20.0,1.0,6,2,-5.4319999999999995,-0.042,0.0112,5.0474,34.0,27.72,0,18.0,0.0,5.0,-3.59,-0.06,-1.0,-0.09,4.835999999999999,-2.778,-4.826,0,1,0,100.0
5,63.0,1,20.0,1.0,6,2,-5.3655,-0.042,0.05355,5.0376,34.0,27.72,0,18.0,0.0,5.0,-3.5549999999999997,-0.06,-1.0,-0.09,5.039,-2.722,-4.574,0,1,0,100.0
5,64.0,1,20.0,1.0,6,2,-5.299,-0.042,0.0959,5.0278,34.0,27.72,0,18.0,0.0,5.0,-3.5199999999999996,-0.06,-1.0,-0.09,5.242,-2.666,-4.322,0,1,0,100.0
5,65.0,1,20.0,1.0,6,2,-5.1899999999999995,-0.0415,0.06999999999999999,4.947,34.0,27.74,0,18.0,0.0,5.0,-3.48,-0.06,-1.005,-0.09,5.63,-2.54,-3.995,0,1,0,100.0
5,66.0,1,20.0,1.0,6,2,-5.064,-0.040600000000000004,0.0458,4.8308,34.0,27.76,0,18.0,0.0,5.0,-3.442,-0.06,-1.01,-0.09,6.112,-2.37,-3.692,0,1,0,100.0
5,67.0,1,20.0,1.0,6,2,-4.938,-0.0392,0.0941,4.6971,34.0,27.76,0,18.0,0.0,5.0,-3.414,-0.06,-1.01,-0.09,6.644,-2.16,-3.524,0,1,0,100.0
5,68.0,1,20.0,1.0,6,2,-4.818,-0.0384,0.1124,4.5016,34.0,27.778,0,18.0,0.0,5.0,-3.404,-0.06,-1.01,-0.09,7.247999999999999,-1.878,-3.536,0,1,0,100.0
5,69.0,1,20.0,1.0,6,2,-4.542,-0.033100000000000004,0.2723,3.7505,34.0,27.881,0,18.0,0.0,5.0,-3.355,-0.06,-1.01,-0.09,8.841000000000001,-0.8610000000000001,-4.188,0,1,0,100.0
5,70.0,1,20.0,1.0,6,2,-4.43,-0.031,0.189,3.432,34.0,27.93,0,18.0,0.0,5.0,-3.32,-0.06,-1.01,-0.09,9.52,-0.28,-4.72,0,1,0,100.0
5,71.0,1,20.0,1.0,6,2,-4.381,-0.0296,0.2303,3.2465,34.0,27.944,0,18.0,0.0,5.0,-3.2815,-0.06,-1.0135,-0.09,9.8315,0.13300000000000006,-5.1015,0,1,0,100.0
5,72.0,1,20.0,1.0,6,2,-4.332,-0.0282,0.2716,3.061,34.0,27.958,0,18.0,0.0,5.0,-3.243,-0.06,-1.017,-0.09,10.143,0.5460000000000002,-5.483,0,1,0,100.0
5,73.0,1,20.0,1.0,6,2,-4.1370000000000005,-0.0226,0.1993,2.5133,34.0,28.007,0,18.0,0.0,5.0,-2.973,-0.05,-1.0190000000000001,-0.091,10.894,3.173,-7.386,0,1,0,100.0
5,74.0,1,20.0,1.0,6,2,-4.045999999999999,-0.019799999999999998,0.1804,2.1654,34.0,28.056,0,18.0,0.0,5.0,-2.784,-0.05,-1.012,-0.098,10.712,5.504,-8.478,0,1,0,100.0
5,75.0,1,20.0,1.0,6,2,-3.9875,-0.018,0.18875,1.98325,34.0,28.07,0,18.0,0.0,5.0,-2.6825,-0.0475,-1.01,-0.10250000000000001,10.31,7.427499999999999,-9.147499999999999,0,1,0,100.0
5,76.0,1,20.0,1.0,6,2,-3.9419999999999997,-0.0166,0.208,1.8674,34.0,28.07,0,18.0,0.0,5.0,-2.616,-0.044000000000000004,-1.01,-0.106,9.82,9.187999999999999,-9.648,0,1,0,100.0
5,77.0,1,20.0,1.0,6,2,-3.8965,-0.0152,0.22725,1.7515500000000002,34.0,28.07,0,18.0,0.0,5.0,-2.5495,-0.0405,-1.01,-0.1095,9.33,10.9485,-10.1485,0,1,0,100.0
5,78.0,1,20.0,1.0,6,2,-3.851,-0.0144,0.20600000000000002,1.6474000000000002,34.0,28.082,0,18.0,0.0,5.0,-2.561,-0.043000000000000003,-1.01,-0.116,8.465,13.132,-10.511000000000001,0,1,0,100.0
5,79.0,1,20.0,1.0,6,2,-3.8055,-0.013699999999999999,0.178,1.5452000000000001,34.0,28.096,0,18.0,0.0,5.0,-2.5855,-0.0465,-1.01,-0.123,7.5375,15.386,-10.8505,0,1,0,100.0
5,80.0,1,20.0,1.0,6,2,-3.63,-0.012,0.029,1.401,34.0,28.11,0,18.0,0.0,5.0,-3.12,-0.05,-1.01,-0.15,3.01,24.56,-11.45,0,1,0,100.0
5,81.0,1,20.0,1.0,6,2,-3.539,-0.0113,0.0458,1.3653,34.0,28.11,0,18.0,0.0,5.0,-3.813,-0.064,-1.01,-0.164,0.14699999999999996,28.872,-11.016,0,1,0,100.0
5,82.0,1,20.0,1.0,6,2,-3.314,-0.0106,0.0572,1.23,34.0,28.11,0,18.0,0.0,5.0,-6.264,-0.112,-1.01,-0.198,-6.8020000000000005,35.44,-8.408,0,1,0,100.0
5,83.0,1,20.0,1.0,6,2,-3.2235,-0.01,0.06345,1.2234500000000001,34.0,28.11,0,18.0,0.0,5.0,-7.4135,-0.1315,-1.01,-0.2105,-9.337,36.1625,-6.8975,0,1,0,100.0
5,84.0,1,20.0,1.0,6,2,-3.178,-0.01,0.0736,1.2406000000000001,34.0,28.11,0,18.0,0.0,5.0,-8.068,-0.14200000000000002,-1.01,-0.214,-10.576,35.55,-5.9,0,1,0,100.0
5,85.0,1,20.0,1.0,6,2,-3.1325000000000003,-0.01,0.08374999999999999,1.25775,34.0,28.11,0,18.0,0.0,5.0,-8.7225,-0.1525,-1.01,-0.2175,-11.815,34.9375,-4.9025,0,1,0,100.0
5,86.0,1,20.0,1.0,6,2,-2.936,-0.0102,0.1314,1.287,34.0,28.11,0,18.0,0.0,5.0,-11.274000000000001,-0.20400000000000001,-1.01,-0.24,-16.25,28.622,-0.33599999999999997,0,1,0,100.0
5,87.0,1,20.0,1.0,6,2,-2.852,-0.0109,0.0488,1.329,34.0,28.11,0,18.0,0.0,5.0,-12.338000000000001,-0.218,-1.01,-0.24,-18.0,24.009,2.023,0,1,0,100.0
5,88.0,1,20.0,1.0,6,2,-2.804,-0.011,0.037,1.3449,34.3,28.11,0,18.0,0.0,5.0,-12.832,-0.226,-1.01,-0.243,-18.838,21.076,3.41,0,1,0,100.0
5,89.0,1,20.0,1.0,6,2,-2.762,-0.011,0.037,1.3564500000000002,34.65,28.11,0,18.0,0.0,5.0,-13.231,-0.23299999999999998,-1.01,-0.2465,-19.524,18.423,4.635,0,1,0,100.0
5,90.0,1,20.0,1.0,6,2,-2.72,-0.011,0.037,1.368,35.0,28.11,0,18.0,0.0,5.0,-13.63,-0.24,-1.01,-0.25,-20.21,15.77,5.86,0,1,0,100.0
5,91.0,1,20.0,1.0,1,5,-2.657,-0.0117,0.0433,1.389,35.0,28.11,0,18.0,0.0,5.7,-14.127,-0.254,-1.0030000000000001,-0.243,-21.26,10.533999999999999,8.38,0,1,0,100.0
5,92.0,1,20.0,0.6,1,5,-2.606,-0.012,0.0116,1.3956,35.0,28.066,0,18.4,0.0,6.0,-14.448,-0.26,-1.0,-0.24,-22.142,5.629999999999999,10.84,0,1,0,100.0
5,93.0,1,20.0,0.0,1,6,-2.5669999999999997,-0.0087,0.2736,1.4951999999999999,35.0,27.99,0,19.0,0.0,6.0,-14.594999999999999,-0.26,-1.0,-0.239,-22.868,1.1079999999999999,13.216000000000001,0,1,0,100.0
5,94.0,1,20.0,0.0,1,6,-2.546,0.0144,2.4688,2.2176,35.0,27.919999999999998,0,19.0,0.0,6.0,-14.49,-0.26,-1.0,-0.232,-23.414,-2.6160000000000005,15.358,0,1,0,100.0
5,95.0,1,20.0,0.0,1,6,-2.565,0.0825,2.4155,3.372,35.0,27.81,0,19.0,0.0,6.0,-13.52,-0.24,-0.985,-0.225,-24.41,-8.275,19.315,0,1,0,100.0
5,96.0,1,20.0,0.0,1,6,-2.5999999999999996,0.1038,2.1749,3.6992000000000003,35.0,27.782999999999998,0,19.0,0.0,6.0,-12.988999999999999,-0.228,-0.979,-0.219,-24.71,-9.263,20.307,0,1,0,100.0
5,97.0,1,20.0,0.0,1,6,-2.635,0.1136,2.00305,3.8924,35.0,27.758499999999998,0,19.0,0.0,6.0,-12.6005,-0.221,-0.9755,-0.2155,-24.885,-9.3785,20.6815,0,1,0,100.0
5,98.0,1,20.0,0.0,1,6,-2.67,0.12340000000000001,1.8312000000000002,4.0855999999999995,35.0,27.733999999999998,0,19.0,0.0,6.0,-12.212,-0.214,-0.972,-0.212,-25.06,-9.494,21.056,0,1,0,100.0
5,99.0,1,20.0,0.0,1,6,-2.884,0.1551,1.179,4.8037,35.0,27.628999999999998,0,19.0,0.0,6.0,-10.242,-0.174,-0.96,-0.197,-25.735,-8.205,21.653,0,1,0,100.0
5,100.0,1,20.0,0.0,3,7,-3.01,0.167,1.039,5.286,35.0,27.58,0,19.0,0.0,6.0,-9.22,-0.16,-0.96,-0.19,-25.98,-7.12,21.52,0,1,0,100.0
6,0.0,1,20.0,0.0,0,1,-5.49,0.147,-2.697,5.058,35.0,27.93,0,19.0,0.0,6.0,1.1,0.02,-0.99,-0.12,-14.44,-8.79,1.73,0,1,0,100.0
6,1.0,1,20.0,0.0,0,1,-5.7008,0.10755999999999999,-4.2385600000000005,4.2161599999999995,35.0,27.93,0,19.0,0.0,6.0,1.0932000000000002,0.02,-1.0036,-0.1132,-12.5224,-9.809999999999999,1.6280000000000001,0,1,0,100.0
6,2.0,1,20.0,0.0,0,1,-5.8336,0.05264,-0.4362800000000007,3.3615999999999997,35.0,27.9552,0,17.92,0.0,6.0,1.0516,0.0188,-1.0112,-0.11,-11.303199999999999,-10.436399999999999,1.9712,0,1,0,100.0
6,3.0,1,20.0,0.0,0,1,-5.8970666666666665,-0.016039999999999985,8.116079999999998,2.4957333333333334,35.0,28.0028,0,15.88,0.0,6.0,0.9790666666666668,0.016533333333333334,-1.0134666666666667,-0.11,-10.7048,-10.712933333333332,2.7101333333333333,0,1,0,100.0
6,4.0,1,20.0,0.0,0,1,-5.960533333333333,-0.08471999999999999,16.66844,1.6298666666666668,35.0,28.0504,0,13.84,0.0,6.0,0.9065333333333334,0.014266666666666667,-1.0157333333333334,-0.11,-10.1064,-10.989466666666667,3.4490666666666665,0,1,0,100.0
6,5.0,1,20.0,0.0,0,1,-6.024,-0.15339999999999998,25.2208,0.764,35.0,28.098,0,11.8,0.0,6.0,0.8340000000000001,0.012,-1.018,-0.11,-9.508000000000001,-11.266,4.188,0,1,0,100.0
6,6.0,1,20.0,0.9600000000000002,0,1,-6.568,-0.2652,3.4281200000000007,0.0,35.0,28.1416,0,10.96,0.0,6.0,0.2028,0.0,-1.03,-0.1104,-4.8512,-13.745600000000001,15.824,0,1,0,100.0
6,7.0,1,20.0,0.6199999999999999,0,1,-6.636,-0.2584,1.9756399999999998,0.0,35.0,28.1552,0,10.62,0.0,6.0,0.14159999999999998,0.0,-1.03,-0.1138,-4.2664,-14.048200000000001,17.473000000000003,0,1,0,100.0
6,8.0,1,20.0,0.28,0,1,-6.704,-0.2516,0.5231600000000003,0.0,35.0,28.1688,0,10.28,0.0,6.0,0.08040000000000001,0.0,-1.03,-0.1172,-3.6816,-14.3508,19.122,0,1,0,100.0
6,9.0,1,20.0,0.11999999999999958,0,1,-6.780399999999999,-0.24708,-0.5911600000000004,0.0,35.0,28.18,0,10.12,0.0,6.0,0.0072000000000000805,0.0,-1.03,-0.1224,-2.996000000000001,-14.6744,20.904799999999998,0,1,0,100.0
6,10.0,1,20.0,0.8,0,1,-6.896,-0.2532,-0.12739999999999996,0.0,35.0,28.18,0,10.8,0.0,6.0,-0.122,0.0,-1.03,-0.136,-1.84,-15.096,23.312,0,1,0,100.0
6,11.0,1,20.0,1.0,0,1,-7.126,-0.24532,0.5039199999999999,0.0,35.0,28.18,0,11.0,0.0,6.0,-0.5039999999999999,-0.01,-1.03,-0.1524,0.35279999999999984,-15.4784,26.0688,0,1,0,100.0
6,12.0,1,20.0,1.0,0,1,-7.177,-0.24294,0.53214,0.0,35.0,28.18,0,11.0,0.0,6.0,-0.6229999999999999,-0.01,-1.03,-0.1558,0.7675999999999996,-15.4478,26.1946,0,1,0,100.0
6,13.0,1,20.0,1.0,0,1,-7.228,-0.24056,0.56036,0.0,35.0,28.18,0,11.0,0.0,6.0,-0.7419999999999999,-0.01,-1.03,-0.1592,1.1823999999999995,-15.4172,26.320400000000003,0,1,0,100.0
6,14.0,1,20.0,0.2600000000000002,0,1,-7.428999999999999,-0.23096,0.21539999999999998,0.0,35.0,28.18,0,10.26,0.0,6.0,-1.3678000000000001,-0.022600000000000002,-1.03,-0.1626,2.1076,-14.7902,24.8804,0,1,0,100.0
6,15.0,1,20.0,0.6000000000000001,0,1,-7.4799999999999995,-0.2296,0.161,0.0,35.0,28.18,0,10.6,0.0,6.0,-1.548,-0.026,-1.03,-0.166,2.1959999999999997,-14.542,24.214,0,1,0,100.0
6,16.0,1,20.0,0.94,0,1,-7.531,-0.22824,0.10660000000000003,0.0,35.0,28.18,0,10.94,0.0,6.0,-1.7282,-0.029399999999999996,-1.03,-0.16940000000000002,2.2843999999999998,-14.293800000000001,23.5476,0,1,0,100.0
6,17.0,1,20.0,1.0,0,1,-7.6296,-0.228,0.045480000000000055,0.0,35.0,28.18,0,11.0,0.0,6.0,-2.0959999999999996,-0.03559999999999999,-1.03,-0.17,2.2216,-13.7124,22.002000000000002,0,1,0,100.0
6,18.0,1,20.0,1.0,0,1,-7.9132,-0.228,-0.001479999999999958,0.0,35.0,28.18,0,11.0,0.0,6.0,-3.1607999999999996,-0.05479999999999999,-1.0276,-0.1724,1.6968000000000005,-11.941200000000002,17.501600000000003,0,1,0,100.0
6,19.0,1,20.0,1.0,0,1,-8.0356,-0.228,-0.03683999999999995,0.0,35.0,28.18,0,11.0,0.0,6.0,-3.616399999999999,-0.06839999999999999,-1.0208,-0.17919999999999997,1.4044000000000005,-11.1796,15.692800000000004,0,1,0,100.0
6,20.0,1,20.0,1.0,0,1,-8.110000000000001,-0.228,0.018100000000000005,0.0,35.0,28.18,0,11.0,0.0,6.0,-3.883,-0.07300000000000001,-1.02,-0.18,1.247,-10.763,14.763,0,1,0,100.0
6,21.0,1,20.0,1.0,0,1,-8.178,-0.228,0.08507999999999985,0.0,35.0,28.18,0,11.0,0.0,6.0,-4.1244,-0.0764,-1.02,-0.18,1.1076000000000004,-10.3924,13.950400000000002,0,1,0,100.0
6,22.0,1,20.0,1.0,0,1,-8.246,-0.228,0.15205999999999997,0.0,35.0,28.18,0,11.0,0.0,6.0,-4.365799999999999,-0.0798,-1.02,-0.18,0.9682000000000001,-10.0218,13.1378,0,1,0,100.0
6,23.0,1,20.0,0.0,0,1,-8.568,-0.21395999999999998,0.8383600000000001,0.0,35.0,28.18,0,10.0,0.0,6.0,-5.642,-0.09640000000000001,-1.01,-0.1864,0.3723999999999998,-8.414,9.660799999999998,0,1,0,100.0
6,24.0,1,20.0,0.0,0,1,-8.6736,-0.20808000000000001,0.9138400000000001,0.0,35.0,28.18,0,10.0,0.0,6.0,-6.062799999999999,-0.10319999999999999,-1.0084,-0.19,0.20360000000000017,-7.962000000000001,8.5844,0,1,0,100.0
6,25.0,1,20.0,0.0,0,1,-8.745000000000001,-0.204,0.8454999999999999,0.0,35.0,28.18,0,10.0,0.0,6.0,-6.345,-0.11,-1.005,-0.19,0.10500000000000001,-7.6899999999999995,7.85,0,1,0,100.0
6,26.0,1,20.0,0.0,0,1,-8.8164,-0.19992000000000001,0.7771600000000002,0.0,35.0,28.18,0,10.0,0.0,6.0,-6.627199999999999,-0.11679999999999999,-1.0016,-0.19,0.006400000000000264,-7.418000000000001,7.1156000000000015,0,1,0,100.0
6,27.0,1,20.0,0.35999999999999943,0,1,-8.922,-0.19332000000000002,0.7989999999999999,0.0,35.0,28.1656,0,10.36,0.0,6.0,-7.0516,-0.12359999999999999,-1.0,-0.1936,-0.11919999999999988,-7.041600000000001,5.909600000000001,0,1,0,100.0
6,28.0,1,20.0,0.9599999999999994,0,1,-9.0576,-0.18464,0.8763599999999998,0.0,35.0,28.14,0,10.959999999999999,0.0,6.0,-7.599200000000001,-0.13040000000000002,-0.9996,-0.2,-0.2644000000000001,-6.5756,4.275599999999998,0,1,0,100.0
6,29.0,1,20.0,0.2800000000000011,0,1,-9.1868,-0.17852,0.5594800000000005,0.0,35.0,28.14,0,10.280000000000001,0.0,6.0,-8.0956,-0.1372,-0.9928,-0.2,-0.3391999999999999,-6.160800000000001,2.5008000000000026,0,1,0,100.0
6,30.0,1,20.0,0.0,0,1,-9.312,-0.1736,0.4746,0.0,35.0,28.14,0,10.0,0.0,6.0,-8.552,-0.14800000000000002,-0.99,-0.2,-0.35,-5.7700000000000005,0.69,0,1,0,100.0
6,31.0,1,20.0,0.0,0,1,-9.602,-0.16136000000000003,0.5663600000000003,0.0,35.0,28.18,0,10.0,0.0,6.0,-9.4704,-0.1608,-0.98,-0.21,-0.08120000000000062,-4.9388000000000005,-3.8363999999999954,0,1,0,100.0
6,32.0,1,20.0,0.0,0,1,-9.704,-0.15592,0.42492000000000013,0.0,35.0,28.18,0,10.0,0.0,6.0,-9.7288,-0.1676,-0.98,-0.21,0.16359999999999977,-4.6736,-5.590799999999999,0,1,0,100.0
6,33.0,1,20.0,0.0,0,1,-9.7686,-0.15267999999999998,0.42384000000000005,0.0,35.0,28.18,0,10.0,0.0,6.0,-9.8772,-0.17,-0.98,-0.21,0.35560000000000014,-4.4986,-6.733600000000001,0,1,0,100.0
6,34.0,1,20.0,0.0,0,1,-9.8128,-0.15064,0.4993199999999999,0.0,35.0,28.18,0,10.0,0.0,6.0,-9.9656,-0.17,-0.98,-0.21,0.5187999999999997,-4.3728,-7.542799999999999,0,1,0,100.0
6,35.0,1,20.0,0.0,0,1,-9.857,-0.14859999999999998,0.5748,0.0,35.0,28.18,0,10.0,0.0,6.0,-10.054,-0.17,-0.98,-0.21,0.682,-4.247,-8.352,0,1,0,100.0
6,36.0,1,20.0,0.0,0,1,-10.0092,-0.13608,0.6238400000000003,0.0,35.0,28.14,0,10.0,0.0,6.0,-10.2396,-0.18,-0.98,-0.22,1.4583999999999995,-3.8132,-11.252799999999997,0,1,0,100.0
6,37.0,1,20.0,0.0,0,1,-10.0364,-0.13336,0.5102800000000001,0.0,35.0,28.14,0,10.0,0.0,6.0,-10.2532,-0.18,-0.98,-0.22,1.6827999999999999,-3.7044,-11.9226,0,1,0,100.0
6,38.0,1,20.0,0.0,0,1,-10.063600000000001,-0.13064,0.39672000000000035,0.0,35.0,28.14,0,10.0,0.0,6.0,-10.2668,-0.18,-0.98,-0.22,1.9071999999999991,-3.5956,-12.592399999999998,0,1,0,100.0
6,39.0,1,20.0,0.0,0,1,-10.1064,-0.12636,0.42875999999999986,0.0,35.0,28.160800000000002,0,10.0,0.0,6.0,-10.244,-0.18,-0.98,-0.22,2.339599999999999,-3.4088000000000003,-13.649599999999998,0,1,0,100.0
6,40.0,1,20.0,0.0,0,1,-10.146,-0.1214,0.5138,0.0,35.0,28.18,0,10.0,0.0,6.0,-10.196,-0.178,-0.978,-0.22,2.85,-3.198,-14.786000000000001,0,1,0,100.0
6,41.0,1,20.0,0.0,0,1,-10.1664,-0.11596,0.6185200000000002,0.0,35.0,28.18,0,10.0,0.0,6.0,-10.1144,-0.1712,-0.9712,-0.22,3.394000000000001,-2.9871999999999996,-15.826400000000003,0,1,0,100.0
6,42.0,1,20.0,0.0,0,1,-10.17,-0.10940000000000004,0.5541200000000005,0.0,35.0,28.18,0,10.0,0.0,6.0,-9.9936,-0.17,-0.97,-0.22,3.971599999999997,-2.776400000000001,-16.771599999999996,0,1,0,100.0
6,43.0,1,20.0,0.0,0,1,-10.1652,-0.10308000000000002,0.5045999999999998,0.0,35.0,28.18,0,10.0,0.0,6.0,-9.852400000000001,-0.17,-0.97,-0.22,4.561199999999998,-2.560800000000001,-17.6652,0,1,0,100.0
6,44.0,1,20.0,0.0,0,1,-10.1516,-0.09764000000000002,0.5488,0.0,35.0,28.18,0,10.0,0.0,6.0,-9.6892,-0.17,-0.97,-0.22,5.159599999999999,-2.3364000000000003,-18.5016,0,1,0,100.0
6,45.0,1,20.0,0.0,0,1,-10.042,-0.08059999999999999,0.5976,0.0,35.0,28.18,0,10.0,0.0,6.0,-9.182,-0.16,-0.98,-0.22,6.586,-1.798,-20.349999999999998,0,1,0,100.0
6,46.0,1,20.0,0.0,0,1,-9.9932,-0.07601999999999999,0.47847999999999996,0.0,35.0,28.18,0,10.0,0.0,6.0,-8.999600000000001,-0.1586,-0.98,-0.22,7.016400000000001,-1.6251999999999998,-20.901600000000002,0,1,0,100.0
6,47.0,1,20.0,0.0,0,1,-9.9524,-0.07364000000000001,0.4553600000000001,0.0,35.0,28.18,0,10.0,0.0,6.0,-8.8772,-0.1552,-0.98,-0.22,7.274799999999999,-1.5164000000000006,-21.2212,0,1,0,100.0
6,48.0,1,20.0,0.0,0,1,-9.9116,-0.07126000000000002,0.43224000000000007,0.0,35.0,28.18,0,10.0,0.0,6.0,-8.7548,-0.15180000000000002,-0.98,-0.22,7.533199999999999,-1.4076000000000004,-21.5408,0,1,0,100.0
6,49.0,1,20.0,0.0,0,1,-9.7128,-0.06288,0.44888,0.0,35.0,28.1736,0,10.0,0.0,6.0,-8.232800000000001,-0.14,-0.98,-0.21,8.502,-1.0116000000000003,-22.6156,0,1,0,100.0
6,50.0,1,20.0,0.0,0,1,-9.655,-0.060500000000000005,0.4635,0.0,35.0,28.16,0,10.0,0.0,6.0,-8.09,-0.14,-0.98,-0.21,8.74,-0.93,-22.840000000000003,0,1,0,100.0
6,51.0,1,20.0,0.0,0,1,-9.5972,-0.05812,0.47812,0.0,35.0,28.1464,0,10.0,0.0,6.0,-7.9472,-0.14,-0.98,-0.21,8.978,-0.8483999999999999,-23.064400000000003,0,1,0,100.0
6,52.0,1,20.0,0.0,0,1,-9.4944,-0.05484000000000002,0.4313600000000005,0.0,35.0,28.14,0,10.0,0.0,6.0,-7.721600000000001,-0.13640000000000005,-0.98,-0.21,9.338399999999996,-0.7560000000000006,-23.3536,0,1,0,100.0
6,53.0,1,20.0,0.0,0,1,-9.119600000000002,-0.045840000000000006,0.30148000000000014,0.0,35.0,28.18,0,10.0,0.0,6.0,-6.971600000000001,-0.11960000000000001,-0.9803999999999999,-0.2,10.497599999999998,-0.6015999999999999,-24.0276,0,1,0,100.0
6,54.0,1,20.0,0.0,0,1,-8.9428,-0.043120000000000006,0.25864000000000004,0.0,35.0,28.18,0,10.0,0.0,6.0,-6.658800000000001,-0.11280000000000001,-0.9872,-0.2,10.9668,-0.6287999999999999,-24.1568,0,1,0,100.0
6,55.0,1,20.0,0.0,0,1,-8.814,-0.0408,0.283,0.0,35.0,28.18,0,10.0,0.0,6.0,-6.44,-0.11,-0.99,-0.2,11.312,-0.664,-24.23,0,1,0,100.0
6,56.0,1,20.0,0.0,0,1,-8.7188,-0.038759999999999996,0.3544000000000001,0.0,35.0,28.18,0,10.0,0.0,6.0,-6.287,-0.11,-0.99,-0.2,11.570400000000001,-0.7048000000000001,-24.264,0,1,0,100.0
6,57.0,1,20.0,0.0,0,1,-8.6236,-0.03672000000000001,0.4257999999999996,0.0,35.0,28.18,0,10.0,0.0,6.0,-6.134000000000001,-0.11,-0.99,-0.2,11.8288,-0.7455999999999998,-24.298,0,1,0,100.0
6,58.0,1,20.0,0.0,0,1,-8.1492,-0.02680000000000001,0.6030799999999995,-0.06687999999999965,35.0,28.1624,0,13.519999999999982,0.0,6.0,-5.492800000000001,-0.09560000000000002,-0.99,-0.19560000000000002,13.305199999999997,-1.0963999999999994,-24.6052,0,1,0,100.0
6,59.0,1,20.0,0.0,6,2,-7.949,-0.023400000000000008,0.72212,-0.14762000000000003,35.0,28.14,0,18.0,0.0,6.0,-5.2602,-0.09,-0.9906,-0.19,13.984399999999999,-1.2927999999999997,-24.8284,0,1,0,100.0
6,60.0,1,20.0,0.0,6,2,-7.83,-0.02,0.7398,-0.12279999999999999,35.0,28.14,0,18.0,0.0,6.0,-5.148000000000001,-0.09,-0.994,-0.19,14.406,-1.422,-25.046,0,1,0,100.0
6,61.0,1,20.0,0.0,6,2,-7.710999999999999,-0.016599999999999993,0.75748,-0.09797999999999996,35.0,28.14,0,18.0,0.0,6.0,-5.0358,-0.09,-0.9974,-0.19,14.8276,-1.5512000000000001,-25.2636,0,1,0,100.0
6,62.0,1,20.0,0.0,6,2,-7.562400000000001,-0.012720000000000028,0.7158000000000012,-0.11243999999999928,35.0,28.14,0,18.0,0.0,6.0,-4.898800000000001,-0.08840000000000003,-1.0,-0.19,15.364399999999996,-1.701199999999999,-25.581999999999997,0,1,0,100.0
6,63.0,1,20.0,0.0,6,2,-7.3176000000000005,-0.007280000000000018,0.4812000000000008,-0.2545599999999995,35.0,28.14,0,18.0,0.0,6.0,-4.6812000000000005,-0.08160000000000002,-1.0,-0.19,16.275599999999997,-1.9187999999999992,-26.227999999999998,0,1,0,100.0
6,64.0,1,20.0,0.0,6,2,-7.0676000000000005,-0.003920000000000004,0.2897600000000003,-0.26876000000000005,35.0,28.14,0,18.0,0.0,6.0,-4.468800000000001,-0.08,-1.0,-0.18480000000000002,17.1816,-2.0012,-27.003999999999998,0,1,0,100.0
6,65.0,1,20.0,0.0,6,2,-6.811999999999999,-0.0018,0.1416,-0.20679999999999998,35.0,28.14,0,18.0,0.0,6.0,-4.26,-0.078,-1.002,-0.18,18.06,-1.9499999999999997,-27.863999999999997,0,1,0,100.0
6,66.0,1,20.0,0.0,6,2,-6.546799999999999,-0.0011199999999999988,0.06543999999999986,-0.05651999999999974,35.0,28.14,0,18.0,0.0,6.0,-4.055999999999999,-0.0712,-1.0088,-0.18,18.876,-1.6779999999999995,-28.829600000000003,0,1,0,100.0
6,67.0,1,20.0,0.2799999999999983,6,2,-6.385200000000001,-0.001,0.032400000000000116,0.03299999999999961,35.0,28.14,0,18.279999999999998,0.0,6.0,-3.9332000000000003,-0.07,-1.0128,-0.18,19.285999999999998,-1.3444000000000016,-29.453599999999998,0,1,0,100.0
6,68.0,1,20.0,0.6199999999999989,6,2,-6.2458,-0.001,0.008600000000000082,0.10949999999999974,35.0,28.14,0,18.619999999999997,0.0,6.0,-3.8278000000000003,-0.07,-1.0162,-0.18,19.608999999999998,-0.997600000000001,-30.0044,0,1,0,100.0
6,69.0,1,20.0,0.9599999999999995,6,2,-6.1064,-0.001,-0.015199999999999955,0.18599999999999986,35.0,28.14,0,18.96,0.0,6.0,-3.7224,-0.07,-1.0196,-0.18,19.932,-0.6508000000000004,-30.5552,0,1,0,100.0
6,70.0,1,20.0,0.6000000000000001,6,2,-5.412,-0.0042,-0.0892,0.6348,35.0,28.14,0,18.6,0.0,6.0,-3.33,-0.06,-1.026,-0.18,20.486,2.9459999999999997,-33.268,0,1,0,100.0
6,71.0,1,20.0,0.8599999999999994,6,2,-4.7256,-0.006,0.025899999999999937,0.67384,35.0,28.14,0,18.86,0.0,6.0,-3.5906000000000002,-0.06280000000000001,-1.0314,-0.1814,19.4076,8.310400000000001,-34.507600000000004,0,1,0,100.0
6,72.0,1,20.0,0.5200000000000017,6,2,-4.569200000000001,-0.006,-0.0131999999999998,0.6418800000000001,35.0,28.14,0,18.520000000000003,0.0,6.0,-3.8591999999999986,-0.06959999999999997,-1.0348,-0.1848,18.843200000000003,9.622799999999993,-34.2832,0,1,0,100.0
6,73.0,1,20.0,0.1800000000000011,6,2,-4.412800000000001,-0.006,-0.05229999999999987,0.6099200000000001,35.0,28.14,0,18.18,0.0,6.0,-4.127799999999999,-0.07639999999999998,-1.0382,-0.18819999999999998,18.278800000000004,10.935199999999996,-34.0588,0,1,0,100.0
6,74.0,1,20.0,0.0,6,2,-4.179600000000001,-0.005680000000000001,-0.06692000000000002,0.6118799999999999,35.0,28.14,0,18.0,0.0,6.0,-4.740399999999998,-0.08639999999999998,-1.04,-0.19,17.237600000000004,12.644399999999997,-33.175200000000004,0,1,0,100.0
6,75.0,1,20.0,0.0,6,2,-3.86,-0.005,-0.054,0.652,35.0,28.14,0,18.0,0.0,6.0,-5.74,-0.1,-1.04,-0.19,15.66,14.8,-31.55,0,1,0,100.0
6,76.0,1,20.0,0.33999999999999775,6,2,-3.693400000000001,-0.005,-0.03598000000000012,0.6435000000000001,35.0,28.14,0,18.339999999999996,0.0,6.0,-6.440399999999995,-0.11359999999999992,-1.04,-0.1934,14.752200000000006,15.354199999999997,-30.12880000000001,0,1,0,100.0
6,77.0,1,20.0,0.6800000000000012,6,2,-3.5267999999999997,-0.005,-0.017959999999999938,0.635,35.0,28.14,0,18.68,0.0,6.0,-7.140800000000002,-0.12720000000000006,-1.04,-0.19680000000000003,13.844399999999997,15.908400000000002,-28.707599999999996,0,1,0,100.0
6,78.0,1,20.0,1.0,6,2,-2.860400000000001,-0.006,0.007679999999999905,0.6346799999999999,35.0,28.14,0,19.0,0.0,6.0,-10.319199999999995,-0.1919999999999999,-1.0404,-0.21039999999999998,10.124400000000007,15.932000000000007,-21.386000000000017,0,1,0,100.0
6,79.0,1,20.0,1.0,6,2,-2.527200000000003,-0.006,0.03623999999999972,0.6632399999999997,35.0,28.14,0,19.0,0.0,6.0,-12.005599999999983,-0.22599999999999965,-1.0472,-0.21719999999999992,8.329200000000018,14.266000000000018,-16.728000000000048,0,1,0,100.0
6,80.0,1,20.0,1.0,6,2,-2.198,-0.006,-0.0003999999999999976,0.6746000000000001,35.0,28.14,0,19.0,0.0,6.4,-13.604,-0.256,-1.05,-0.22,6.646,11.92,-11.81,0,1,0,100.0
6,81.0,1,20.0,0.0,1,5,-1.432800000000001,-0.004560000000000082,0.12363999999999246,0.7155199999999974,35.0,28.066,0,19.0,0.0,7.0,-16.831599999999998,-0.3208,-1.05,-0.22,3.221200000000003,3.907200000000013,0.41399999999998444,0,1,0,100.0
6,82.0,1,20.0,0.0,1,5,-1.2865999999999995,0.00768000000000004,1.2510800000000037,1.1194400000000015,35.0,28.032,0,19.0,0.0,7.0,-17.270200000000003,-0.32760000000000006,-1.05,-0.22,2.7213999999999983,1.9283999999999932,2.743000000000008,0,1,0,100.0
6,83.0,1,20.0,0.0,1,6,-1.1404000000000005,0.01991999999999996,2.3785199999999964,1.5233599999999987,35.0,27.998,0,19.0,0.0,7.0,-17.7088,-0.3344,-1.05,-0.22,2.221600000000002,-0.05039999999999343,5.071999999999993,0,1,0,100.0
6,84.0,1,20.0,0.0,1,6,-0.6016000000000022,0.08055999999999974,2.8158400000000037,2.4021999999999966,35.0,27.9264,0,19.0,0.0,7.0,-18.7744,-0.36,-1.0488000000000002,-0.22,0.634400000000006,-7.856399999999968,13.614399999999966,0,1,0,100.0
6,85.0,1,20.0,0.0,1,6,-0.384,0.1064,2.4466,2.749,35.0,27.906,0,19.0,0.0,7.0,-18.855999999999998,-0.36,-1.042,-0.22,0.03600000000000003,-11.065999999999999,17.096,0,1,0,100.0
6,86.0,1,20.0,0.0,1,6,-0.28000000000000036,0.11911999999999995,2.269520000000001,2.926999999999999,35.0,27.8936,0,19.0,0.0,7.0,-18.8112,-0.3584,-1.04,-0.22,-0.27759999999999874,-12.547599999999994,18.815999999999995,0,1,0,100.0
6,87.0,1,20.0,0.0,1,6,-0.22333333333333316,0.12637333333333337,2.172506666666666,3.034666666666667,35.0,27.884533333333334,0,19.0,0.0,7.0,-18.713733333333334,-0.3561333333333333,-1.04,-0.22,-0.47253333333333397,-13.309200000000002,19.802000000000003,0,1,0,100.0
6,88.0,1,20.0,0.0,1,6,-0.16666666666666685,0.13362666666666664,2.0754933333333336,3.1423333333333328,35.0,27.875466666666664,0,19.0,0.0,7.0,-18.616266666666665,-0.35386666666666666,-1.04,-0.22,-0.667466666666666,-14.070799999999997,20.787999999999997,0,1,0,100.0
6,89.0,1,20.0,0.0,1,6,-0.11000000000000058,0.14087999999999992,1.978480000000001,3.249999999999999,35.0,27.8664,0,19.0,0.0,7.0,-18.5188,-0.3516,-1.04,-0.22,-0.8623999999999981,-14.832399999999991,21.77399999999999,0,1,0,100.0
6,90.0,1,20.0,0.0,1,6,0.18,0.1906,1.2668,4.266299999999999,35.0,27.756,0,19.0,0.0,7.0,-15.974999999999998,-0.296,-1.029,-0.231,-3.461,-17.861,29.607,0,1,0,100.0
6,91.0,1,20.0,0.0,1,6,0.18,0.19603999999999996,1.1573200000000008,4.369319999999999,35.0,27.7424,0,19.0,0.0,7.0,-15.380000000000003,-0.2824000000000001,-1.0256,-0.23439999999999997,-4.008399999999996,-17.762400000000003,30.514799999999994,0,1,0,100.0
6,92.0,1,20.0,0.0,1,6,0.18,0.20148000000000002,1.0478399999999997,4.47234,35.0,27.7288,0,19.0,0.0,7.0,-14.784999999999998,-0.2688,-1.0222,-0.2378,-4.555800000000002,-17.663800000000002,31.422600000000003,0,1,0,100.0
6,93.0,1,20.0,0.0,1,6,0.036800000000000416,0.21816,0.6608000000000002,4.996439999999999,35.0,27.680400000000002,0,19.0,0.0,7.0,-11.748800000000006,-0.2104000000000001,-1.01,-0.24239999999999998,-7.335999999999996,-16.5748,34.578799999999994,0,1,0,100.0
6,94.0,1,20.0,0.0,1,6,-0.08559999999999876,0.22427999999999995,0.6064000000000005,5.238519999999998,35.0,27.6532,0,19.0,0.0,7.0,-10.130400000000016,-0.18320000000000025,-1.01,-0.24919999999999992,-8.797999999999986,-15.908400000000007,35.68039999999999,0,1,0,100.0
6,95.0,1,20.0,0.0,1,6,-0.17800000000000002,0.2271,0.5459999999999999,5.2895,35.0,27.641,0,19.0,0.0,7.0,-9.151,-0.165,-1.0070000000000001,-0.253,-9.654,-15.539,36.098,0,1,0,100.0
6,96.0,1,20.0,0.0,1,6,-0.2663999999999994,0.22948,0.4848000000000004,5.3149999999999995,35.0,27.6308,0,19.0,0.0,7.0,-8.256800000000005,-0.1480000000000001,-1.0036,-0.25639999999999996,-10.429199999999994,-15.209200000000003,36.4244,0,1,0,100.0
6,97.0,1,20.0,0.0,1,6,-0.35480000000000034,0.23186,0.4235999999999998,5.3405,35.0,27.6206,0,19.0,0.0,7.0,-7.362599999999996,-0.13099999999999995,-1.0002,-0.25980000000000003,-11.204400000000003,-14.879399999999999,36.750800000000005,0,1,0,100.0
6,98.0,1,20.0,0.0,1,6,-0.8211999999999995,0.24023999999999998,0.37716000000000005,5.2449200000000005,35.0,27.6296,0,19.0,0.0,7.0,-3.5460000000000034,-0.06400000000000006,-0.9868,-0.26,-14.240799999999997,-13.707600000000001,36.6672,0,1,0,100.0
6,99.0,1,20.0,0.0,3,7,-0.9605999999999987,0.24261999999999997,0.3645800000000001,5.24696,35.0,27.6398,0,19.0,0.0,7.0,-2.54300000000001,-0.047000000000000174,-0.9834,-0.26,-14.985399999999993,-13.428800000000003,36.3986,0,1,0,100.0
6,100.0,1,20.0,0.0,3,7,-1.1,0.245,0.352,5.249,35.0,27.65,0,19.0,0.0,7.0,-1.54,-0.03,-0.98,-0.26,-15.73,-13.15,36.13,0,1,0,100.0
7,0.0,1,20.0,0.0,0,1,-5.67,0.174,-3.492,4.799,35.0,28.04,0,19.0,0.0,7.0,11.93,0.2,-0.95,-0.18,-23.3,-16.23,2.52,0,1,0,100.0
7,1.0,1,20.0,0.0,0,1,-5.9196,0.12855999999999998,-4.97808,4.03036,35.0,28.04,0,19.0,0.0,7.0,10.7652,0.18080000000000002,-0.9628,-0.1672,-22.0776,-19.0908,0.8175999999999999,0,1,0,100.0
7,2.0,1,20.0,0.0,0,1,-6.4528,-0.20156000000000002,-24.63764,0.0,35.0,28.18,0,14.0,0.0,7.0,7.327999999999999,0.1288,-0.9956,-0.13440000000000002,-17.9632,-27.4096,0.5132000000000001,0,1,0,100.0
7,3.0,1,20.0,0.0,0,1,-6.6192,-0.28284000000000004,-6.053959999999995,0.0,35.0,28.18,0,14.0,0.0,7.0,5.952,0.1032,-1.0084,-0.12159999999999999,-16.1648,-30.8144,2.0748000000000006,0,1,0,100.0
7,4.0,1,20.0,0.2800000000000001,0,1,-6.696,-0.29244,-2.1207199999999995,0.0,35.0,28.18,0,14.28,0.0,7.0,5.2620000000000005,0.0916,-1.0156,-0.1172,-15.189599999999999,-32.5952,3.236,0,1,0,100.0
7,5.0,1,20.0,0.6000000000000001,0,1,-6.76,-0.2918,-0.2804000000000002,0.0,35.0,28.18,0,14.6,0.0,7.0,4.67,0.082,-1.022,-0.114,-14.331999999999999,-34.144,4.34,0,1,0,100.0
7,6.0,1,20.0,0.9200000000000004,0,1,-6.824,-0.29116,1.5599200000000013,0.0,35.0,28.18,0,14.92,0.0,7.0,4.077999999999999,0.07239999999999999,-1.0284,-0.1108,-13.4744,-35.6928,5.444000000000001,0,1,0,100.0
7,7.0,1,20.0,0.4800000000000004,0,1,-7.0232,-0.26668000000000003,0.7624800000000002,0.0,35.0,28.14,0,14.48,0.0,7.0,1.9267999999999996,0.035199999999999995,-1.0548,-0.0852,-9.7884,-41.3356,10.040000000000003,0,1,0,100.0
7,8.0,1,20.0,1.0,0,1,-7.0736,-0.26092,1.00618,0.0,35.0,28.142400000000002,0,15.0,0.0,7.0,1.3126,0.028799999999999996,-1.0606,-0.0794,-8.5472,-42.834,11.2634,0,1,0,100.0
7,9.0,1,20.0,1.0,0,1,-7.0928,-0.25516,1.05514,0.0,35.0,28.1552,0,15.0,0.0,7.0,1.0598,0.0224,-1.0638,-0.0762,-7.9456,-43.282,11.548200000000001,0,1,0,100.0
7,10.0,1,20.0,1.0,0,1,-7.112,-0.2494,1.1040999999999999,0.0,35.0,28.168,0,15.0,0.0,7.0,0.8069999999999999,0.016,-1.0670000000000002,-0.07300000000000001,-7.344,-43.73,11.833,0,1,0,100.0
7,11.0,1,20.0,1.0,0,1,-7.1308,-0.24367999999999998,1.1093599999999992,0.0,35.0,28.1784,0,15.0,0.0,7.0,0.5463999999999997,0.009599999999999994,-1.0704,-0.07,-6.717599999999999,-44.154399999999995,12.0856,0,1,0,100.0
7,12.0,1,20.0,1.0,0,1,-7.1436,-0.23856,0.4591199999999988,0.0,35.0,28.1528,0,15.0,0.0,7.0,0.1687999999999993,0.003199999999999989,-1.0768,-0.07,-5.719199999999998,-44.224799999999995,11.8552,0,1,0,100.0
7,13.0,1,20.0,1.0,0,1,-7.1532,-0.23535999999999999,0.08407999999999996,0.0,35.0,28.14,0,15.0,0.0,7.0,-0.16720000000000013,-0.0032000000000000028,-1.0832000000000002,-0.07,-4.8392,-43.9176,11.3528,0,1,0,100.0
7,14.0,1,20.0,1.0,0,1,-7.1596,-0.23408,-0.015760000000000118,0.0,35.0,28.14,0,15.0,0.0,7.0,-0.4616000000000004,-0.00960000000000001,-1.0896000000000001,-0.07,-4.0775999999999994,-43.2328,10.578399999999998,0,1,0,100.0
7,15.0,1,20.0,1.0,0,1,-7.154,-0.234,-0.0562,0.0,35.0,28.164,0,15.0,0.0,7.0,-0.726,-0.016,-1.09,-0.064,-3.532,-41.978,9.575999999999999,0,1,0,100.0
7,16.0,1,20.0,1.0,0,1,-7.1452,-0.23448000000000002,-0.1219600000000001,0.0,35.0,28.1704,0,15.0,0.0,7.0,-0.9884000000000003,-0.02,-1.09,-0.062400000000000004,-3.0704,-40.5172,8.565599999999998,0,1,0,100.0
7,17.0,1,20.0,1.0,0,1,-7.1324,-0.23576,-0.2365200000000002,0.0,35.0,28.1448,0,15.0,0.0,7.0,-1.2508000000000006,-0.02,-1.09,-0.06880000000000001,-2.7247999999999997,-38.7764,7.567199999999998,0,1,0,100.0
7,18.0,1,20.0,1.0,0,1,-7.1148,-0.23878,-0.13895999999999994,0.0,35.0,28.1504,0,15.0,0.0,7.0,-1.9360000000000002,-0.032600000000000004,-1.08,-0.07260000000000001,-2.2502,-34.3808,5.8755999999999995,0,1,0,100.0
7,19.0,1,20.0,1.0,0,1,-7.1084,-0.23973999999999998,-0.057679999999999884,0.0,35.0,28.1632,0,15.0,0.0,7.0,-2.128,-0.035800000000000005,-1.08,-0.0758,-2.1766,-33.2864,5.5748,0,1,0,100.0
7,20.0,1,20.0,1.0,0,1,-7.101999999999999,-0.2407,0.023600000000000003,0.0,35.0,28.176,0,15.0,0.0,7.0,-2.32,-0.039,-1.08,-0.079,-2.103,-32.192,5.274,0,1,0,100.0
7,21.0,1,20.0,1.0,0,1,-7.0756000000000006,-0.23867999999999998,0.15756000000000028,0.0,35.0,28.18,0,15.0,0.0,7.0,-3.4840000000000004,-0.06440000000000001,-1.0656,-0.09440000000000001,-1.8816,-26.892799999999998,4.166399999999999,0,1,0,100.0
7,22.0,1,20.0,1.0,0,1,-7.069733333333334,-0.23676,0.40396000000000015,0.0,35.0,28.18,0,15.0,0.0,7.0,-3.985066666666667,-0.07053333333333335,-1.0597333333333334,-0.10026666666666667,-1.8176,-24.914133333333332,3.7565333333333326,0,1,0,100.0
7,23.0,1,20.0,1.0,0,1,-7.0676000000000005,-0.23484,0.4756400000000002,0.0,35.0,28.18,0,15.0,0.0,7.0,-4.185600000000001,-0.07480000000000002,-1.0576,-0.1024,-1.7984,-24.2272,3.5687999999999995,0,1,0,100.0
7,24.0,1,20.0,1.0,0,1,-7.065466666666667,-0.23292,0.5473200000000003,0.0,35.0,28.18,0,15.0,0.0,7.0,-4.386133333333334,-0.07906666666666669,-1.0554666666666668,-0.10453333333333334,-1.7792,-23.540266666666664,3.381066666666666,0,1,0,100.0
7,25.0,1,20.0,1.0,0,1,-7.0633333333333335,-0.231,0.619,0.0,35.0,28.18,0,15.0,0.0,7.0,-4.586666666666667,-0.08333333333333333,-1.0533333333333335,-0.10666666666666667,-1.76,-22.853333333333335,3.1933333333333334,0,1,0,100.0
7,26.0,1,20.0,1.0,0,1,-7.0611999999999995,-0.22908,0.6906800000000001,0.0,35.0,28.18,0,15.0,0.0,7.0,-4.7872,-0.0876,-1.0512000000000001,-0.10880000000000001,-1.7408,-22.1664,3.0056,0,1,0,100.0
7,27.0,1,20.0,0.0,0,1,-7.06,-0.20515999999999998,0.50796,0.0,35.0,28.1744,0,14.0,0.0,7.0,-6.953200000000001,-0.1228,-1.0286,-0.13140000000000002,-1.482,-15.7882,-0.16620000000000104,0,1,0,100.0
7,28.0,1,20.0,0.0,0,1,-7.06,-0.20324,0.44843999999999984,0.0,35.0,28.1616,0,14.0,0.0,7.0,-7.234800000000001,-0.1292,-1.0254,-0.13460000000000003,-1.418,-15.029799999999998,-0.7518000000000016,0,1,0,100.0
7,29.0,1,20.0,0.0,0,1,-7.06,-0.20132,0.38891999999999977,0.0,35.0,28.1488,0,14.0,0.0,7.0,-7.516400000000001,-0.13560000000000003,-1.0222,-0.13780000000000003,-1.3539999999999999,-14.271399999999998,-1.3374000000000021,0,1,0,100.0
7,30.0,1,20.0,0.0,0,1,-7.06,-0.1904,0.5434,0.0,35.0,28.172,0,14.0,0.0,7.0,-8.610000000000001,-0.152,-1.01,-0.152,-0.93,-11.374,-4.128,0,1,0,100.0
7,31.0,1,20.0,0.0,0,1,-7.06,-0.18528,0.5542800000000001,0.0,35.0,28.1464,0,14.0,0.0,7.0,-9.026000000000002,-0.1584,-1.01,-0.1584,-0.6739999999999998,-10.2668,-5.433600000000001,0,1,0,100.0
7,32.0,1,20.0,0.0,0,1,-7.06,-0.1828,0.5054,0.0,35.0,28.1496,0,14.0,0.0,7.0,-9.254800000000001,-0.16240000000000002,-1.0076,-0.16,-0.4875999999999997,-9.634799999999998,-6.232800000000001,0,1,0,100.0
7,33.0,1,20.0,0.0,0,1,-7.06,-0.1812,0.4365999999999999,0.0,35.0,28.1624,0,14.0,0.0,7.0,-9.4212,-0.16560000000000002,-1.0044,-0.16,-0.3243999999999995,-9.1612,-6.863200000000002,0,1,0,100.0
7,34.0,1,20.0,0.0,0,1,-7.06,-0.17959999999999998,0.3677999999999998,0.0,35.0,28.1752,0,14.0,0.0,7.0,-9.5876,-0.16880000000000003,-1.0012,-0.16,-0.16119999999999937,-8.687599999999998,-7.4936000000000025,0,1,0,100.0
7,35.0,1,20.0,0.0,0,1,-7.06,-0.177,0.33080000000000004,0.0,35.0,28.164,0,14.0,0.0,7.0,-9.802,-0.17400000000000002,-1.0,-0.164,0.13999999999999999,-8.006,-8.462,0,1,0,100.0
7,36.0,1,20.0,0.0,0,1,-7.0596,-0.17371999999999999,0.3221600000000001,0.0,35.0,28.1416,0,14.0,0.0,7.0,-10.040799999999999,-0.18,-0.9996,-0.17,0.5276000000000004,-7.208399999999999,-9.625600000000002,0,1,0,100.0
7,37.0,1,20.0,0.0,0,1,-7.0531999999999995,-0.16924,0.45272000000000023,0.0,35.0,28.1672,0,14.0,0.0,7.0,-10.213600000000001,-0.18,-0.9932,-0.17,0.9692000000000007,-6.542799999999999,-10.675200000000002,0,1,0,100.0
7,38.0,1,20.0,0.0,0,1,-7.0468,-0.16444,0.5019999999999999,0.0,35.0,28.1672,0,14.0,0.0,7.0,-10.348,-0.18,-0.99,-0.17320000000000002,1.4364000000000012,-5.928399999999998,-11.667200000000003,0,1,0,100.0
7,39.0,1,20.0,0.0,0,1,-7.0404,-0.15932,0.4699999999999999,0.0,35.0,28.1416,0,14.0,0.0,7.0,-10.443999999999999,-0.18,-0.99,-0.1796,1.9292000000000016,-5.365199999999998,-12.601600000000003,0,1,0,100.0
7,40.0,1,20.0,0.0,0,1,-7.034,-0.1575,0.402,0.0,35.0,28.14,0,14.0,0.0,7.0,-10.465,-0.18,-0.99,-0.18,2.203,-5.102,-13.035,0,1,0,100.0
7,41.0,1,20.0,0.0,0,1,-7.0276,-0.15589999999999998,0.3315999999999996,0.0,35.0,28.14,0,14.0,0.0,7.0,-10.481,-0.18,-0.99,-0.18,2.4622000000000015,-4.858799999999999,-13.435000000000002,0,1,0,100.0
7,42.0,1,20.0,0.0,0,1,-7.021199999999999,-0.1543,0.2611999999999999,0.0,35.0,28.14,0,14.0,0.0,7.0,-10.497,-0.18,-0.99,-0.18,2.7214000000000005,-4.6156,-13.835,0,1,0,100.0
7,43.0,1,20.0,0.0,0,1,-6.9592,-0.14384000000000002,0.5165999999999997,0.0,35.0,28.14,0,14.0,0.0,7.0,-10.418,-0.18,-0.9848,-0.18,4.061999999999999,-3.634000000000001,-15.407599999999999,0,1,0,100.0
7,44.0,1,20.0,0.0,0,1,-6.8671999999999995,-0.13119999999999998,0.4134399999999999,0.0,35.0,28.1736,0,14.0,0.0,7.0,-10.176400000000001,-0.17839999999999998,-0.98,-0.18,5.472400000000002,-2.807999999999999,-16.6444,0,1,0,100.0
7,45.0,1,20.0,0.0,0,1,-6.816,-0.128,0.3872,0.0,35.0,28.148,0,14.0,0.0,7.0,-10.042,-0.17200000000000001,-0.98,-0.18,6.042,-2.52,-17.022000000000002,0,1,0,100.0
7,46.0,1,20.0,0.0,0,1,-6.7802,-0.12589999999999998,0.4040800000000002,0.0,35.0,28.14,0,14.0,0.0,7.0,-9.949399999999999,-0.17,-0.98,-0.18,6.422400000000001,-2.341999999999999,-17.2478,0,1,0,100.0
7,47.0,1,20.0,0.0,0,1,-6.7514,-0.1243,0.44056000000000006,0.0,35.0,28.14,0,14.0,0.0,7.0,-9.8758,-0.17,-0.98,-0.18,6.7168,-2.2139999999999995,-17.4046,0,1,0,100.0
7,48.0,1,20.0,0.0,0,1,-6.7226,-0.12269999999999999,0.47704000000000024,0.0,35.0,28.14,0,14.0,0.0,7.0,-9.8022,-0.17,-0.98,-0.18,7.011200000000001,-2.085999999999999,-17.5614,0,1,0,100.0
7,49.0,1,20.0,0.0,0,1,-6.6739999999999995,-0.11839999999999998,0.5196400000000001,0.0,35.0,28.1544,0,14.0,0.0,7.0,-9.68,-0.1664,-0.98,-0.18,7.478400000000002,-1.9147999999999992,-17.8064,0,1,0,100.0
7,50.0,1,20.0,0.0,0,1,-6.61,-0.112,0.567,0.0,35.0,28.18,0,14.0,0.0,7.0,-9.52,-0.16,-0.98,-0.18,8.08,-1.71,-18.12,0,1,0,100.0
7,51.0,1,20.0,0.0,0,1,-6.5684000000000005,-0.10943999999999998,0.5186799999999997,0.0,35.0,28.1672,0,14.0,0.0,7.0,-9.4368,-0.16,-0.98,-0.18,8.387200000000002,-1.6299999999999994,-18.292800000000003,0,1,0,100.0
7,52.0,1,20.0,0.0,0,1,-6.526800000000001,-0.10687999999999999,0.4703599999999999,0.0,35.0,28.1544,0,14.0,0.0,7.0,-9.3536,-0.16,-0.98,-0.18,8.6944,-1.5499999999999998,-18.465600000000002,0,1,0,100.0
7,53.0,1,20.0,0.0,0,1,-6.4852,-0.10431999999999998,0.42203999999999964,0.0,35.0,28.1416,0,14.0,0.0,7.0,-9.270399999999999,-0.16,-0.98,-0.18,9.001600000000002,-1.4699999999999993,-18.6384,0,1,0,100.0
7,54.0,1,20.0,0.0,6,2,-6.1004,-0.07771999999999997,0.8926000000000002,0.0,35.0,28.1576,0,14.0,0.0,7.0,-8.656799999999999,-0.15,-0.99,-0.17,11.669200000000004,-1.3060000000000003,-20.930000000000003,0,1,0,100.0
7,55.0,1,20.0,0.0,6,2,-6.011,-0.0708,0.9717,-0.0221,35.0,28.14,0,14.4,0.0,7.0,-8.538,-0.149,-0.99,-0.17,12.251000000000001,-1.3760000000000001,-21.655,0,1,0,100.0
7,56.0,1,20.0,0.0,6,2,-5.9502,-0.06695999999999998,1.1051400000000007,-0.09282000000000039,35.0,28.14,0,15.680000000000007,0.0,7.0,-8.4676,-0.14579999999999999,-0.99,-0.17,12.606200000000003,-1.4592000000000005,-22.215000000000003,0,1,0,100.0
7,57.0,1,20.0,0.0,6,2,-5.8894,-0.06312,1.2385800000000002,-0.16354000000000013,35.0,28.14,0,16.96,0.0,7.0,-8.3972,-0.1426,-0.99,-0.17,12.961400000000001,-1.5424000000000002,-22.775000000000002,0,1,0,100.0
7,58.0,1,20.0,0.0,6,2,-5.614799999999999,-0.03371999999999991,1.5884799999999968,0.28091999999999917,35.0,28.14,0,18.0,0.0,7.0,-8.092399999999998,-0.14,-0.99,-0.16,14.626000000000007,-2.0584000000000016,-25.946800000000014,0,1,0,100.0
7,59.0,1,20.0,0.0,6,2,-5.4803999999999995,-0.021559999999999958,1.1430399999999983,0.16315999999999958,35.0,28.14,0,18.0,0.0,7.0,-7.945199999999999,-0.14,-0.99,-0.16,15.458000000000002,-2.2632000000000008,-27.796400000000006,0,1,0,100.0
7,60.0,1,20.0,0.0,6,2,-5.399333333333333,-0.01566666666666667,0.9270666666666666,0.0698,35.0,28.14,0,18.0,0.0,7.0,-7.852666666666666,-0.1386666666666667,-0.9913333333333333,-0.16,15.936666666666666,-2.316,-28.920666666666666,0,1,0,100.0
7,61.0,1,20.0,0.0,6,2,-5.350266666666666,-0.013533333333333323,0.8487733333333329,-0.008920000000000426,35.0,28.14,0,18.0,0.0,7.0,-7.792933333333333,-0.13653333333333334,-0.9934666666666667,-0.16,16.203333333333333,-2.2775999999999996,-29.609733333333335,0,1,0,100.0
7,62.0,1,20.0,0.0,6,2,-5.3012,-0.011399999999999997,0.7704799999999998,-0.08764000000000015,35.0,28.14,0,18.0,0.0,7.0,-7.7332,-0.1344,-0.9956,-0.16,16.47,-2.2392,-30.2988,0,1,0,100.0
7,63.0,1,20.0,0.0,6,2,-5.252133333333333,-0.009266666666666652,0.6921866666666661,-0.16636000000000056,35.0,28.14,0,18.0,0.0,7.0,-7.673466666666666,-0.13226666666666667,-0.9977333333333334,-0.16,16.736666666666668,-2.2007999999999996,-30.98786666666667,0,1,0,100.0
7,64.0,1,20.0,0.0,6,2,-5.2030666666666665,-0.007133333333333326,0.6138933333333331,-0.2450800000000003,35.0,28.14,0,18.0,0.0,7.0,-7.613733333333333,-0.13013333333333332,-0.9998666666666667,-0.16,17.003333333333334,-2.1624,-31.676933333333334,0,1,0,100.0
7,65.0,1,20.0,0.6000000000000001,6,2,-4.7780000000000005,-0.002,0.0696,-0.019999999999999976,35.0,28.14,0,18.6,0.0,7.0,-7.058,-0.124,-1.006,-0.16,18.45,0.20000000000000007,-37.088,0,1,0,100.0
7,66.0,1,20.0,1.0,6,2,-4.597999999999999,-0.002,-0.035999999999999914,0.13608000000000073,35.0,28.14,0,19.0,0.0,7.0,-6.821199999999999,-0.12,-1.0124,-0.16,18.729200000000002,1.9728000000000128,-39.15440000000001,0,1,0,100.0
7,67.0,1,20.0,1.0,6,2,-4.406,-0.002,-0.019999999999999973,0.2749600000000002,35.0,28.14,0,19.0,0.0,7.0,-6.5844,-0.12,-1.0188,-0.16,18.7804,4.353600000000005,-41.1128,0,1,0,100.0
7,68.0,1,20.0,1.0,6,2,-3.8627999999999982,-0.004,-0.04023999999999937,0.5393999999999995,35.0,28.14,0,19.0,0.0,7.0,-6.377600000000001,-0.11520000000000004,-1.03,-0.17520000000000005,17.354799999999994,13.919600000000031,-43.9048,0,1,0,100.0
7,69.0,1,20.0,0.9199999999999988,6,2,-3.6595999999999997,-0.004,0.026560000000000007,0.4833199999999999,35.0,28.14,0,18.919999999999998,0.0,7.0,-6.496800000000001,-0.1208,-1.0308,-0.18,16.444399999999998,17.87560000000001,-44.001599999999996,0,1,0,100.0
7,70.0,1,20.0,0.6,6,2,-3.538,-0.004,0.0288,0.4606,35.0,28.14,0,18.6,0.0,7.0,-6.724,-0.124,-1.034,-0.18,15.702,20.298,-43.448,0,1,0,100.0
7,71.0,1,20.0,0.27999999999999825,6,2,-3.4163999999999994,-0.004,0.031040000000000012,0.4378799999999999,35.0,28.14,0,18.279999999999998,0.0,7.0,-6.951200000000002,-0.1272,-1.0372000000000001,-0.18,14.959599999999996,22.720400000000012,-42.8944,0,1,0,100.0
7,72.0,1,20.0,0.08000000000000114,6,2,-3.2763999999999998,-0.004,0.026039999999999904,0.42112000000000005,35.0,28.14,0,18.080000000000002,0.0,7.0,-7.2604000000000015,-0.13240000000000005,-1.04,-0.18080000000000002,14.077199999999998,25.39120000000001,-42.08359999999999,0,1,0,100.0
7,73.0,1,20.0,0.7200000000000046,6,2,-3.0075999999999983,-0.004,-0.029640000000000388,0.4460800000000002,35.0,28.14,0,18.720000000000006,0.0,7.0,-8.143600000000006,-0.15160000000000015,-1.04,-0.18720000000000003,12.214799999999988,29.80080000000003,-39.47239999999998,0,1,0,100.0
7,74.0,1,20.0,1.0,6,2,-2.727999999999999,-0.004,-0.022679999999999804,0.45267999999999997,35.0,28.14,0,19.0,0.0,7.0,-9.235600000000003,-0.17080000000000006,-1.04,-0.19360000000000002,10.237199999999993,33.48680000000001,-36.115999999999985,0,1,0,100.0
7,75.0,1,20.0,1.0,6,2,-2.44,-0.004,0.033,0.445,35.0,28.14,0,19.0,0.0,7.0,-10.49,-0.19,-1.04,-0.2,8.17,36.61,-32.18,0,1,0,100.0
7,76.0,1,20.0,1.0,6,2,-2.2927999999999993,-0.004,0.02083999999999994,0.45620000000000005,35.0,28.14,0,19.0,0.0,7.0,-11.232400000000004,-0.20600000000000007,-1.04,-0.20320000000000002,7.1139999999999946,37.2372,-29.722399999999986,0,1,0,100.0
7,77.0,1,20.0,1.0,6,2,-2.1455999999999995,-0.004,0.00867999999999998,0.46740000000000004,35.0,28.14,0,19.0,0.0,7.0,-11.974800000000002,-0.22200000000000003,-1.04,-0.2064,6.057999999999998,37.8644,-27.264799999999994,0,1,0,100.0
7,78.0,1,20.0,1.0,6,2,-1.9983999999999988,-0.004,-0.0034800000000000846,0.4786000000000001,35.0,28.14,0,19.0,0.0,7.0,-12.717200000000005,-0.2380000000000001,-1.04,-0.2096,5.001999999999993,38.491600000000005,-24.80719999999998,0,1,0,100.0
7,79.0,1,20.0,0.0,6,2,-0.9011999999999994,0.006080000000000042,0.9219600000000038,0.8684400000000013,35.0,28.0504,0,19.0,1440.0,8.0,-17.715200000000003,-0.3284,-1.04,-0.23,-1.9880000000000029,30.80479999999999,-4.883999999999991,0,1,0,100.0
7,80.0,1,20.0,0.0,1,6,-0.754,0.0176,1.9962,1.2438,35.0,28.028,0,19.0,1440.0,8.0,-18.224,-0.33799999999999997,-1.04,-0.23,-2.82,28.535999999999998,-2.26,0,1,0,100.0
7,81.0,1,20.0,0.0,1,6,-0.6068000000000005,0.029119999999999962,3.070439999999996,1.6191599999999988,35.0,28.0056,0,19.0,1440.0,8.0,-18.732799999999997,-0.34759999999999996,-1.04,-0.23,-3.6519999999999966,26.267200000000006,0.3639999999999905,0,1,0,100.0
7,82.0,1,20.0,0.0,1,6,0.042400000000002575,0.09772000000000026,2.719919999999996,2.3845200000000033,35.0,27.950799999999997,0,19.0,1440.0,8.0,-19.9252,-0.3748000000000001,-1.0352,-0.23,-6.791600000000011,12.284399999999934,10.806000000000038,0,1,0,100.0
7,83.0,1,20.0,0.0,1,6,0.2592000000000007,0.11998000000000007,2.401159999999999,2.657800000000001,35.0,27.9282,0,19.0,1440.0,8.0,-20.023,-0.37939999999999996,-1.03,-0.23,-7.736200000000003,6.832599999999981,14.03820000000001,0,1,0,100.0
7,84.0,1,20.0,0.0,1,6,0.36160000000000037,0.13054000000000004,2.28468,2.7314000000000003,35.0,27.918599999999998,0,19.0,1440.0,8.0,-19.879,-0.3762,-1.03,-0.23,-8.142600000000002,4.01979999999999,15.468600000000004,0,1,0,100.0
7,85.0,1,20.0,0.0,1,6,0.464,0.1411,2.1682,2.805,35.0,27.909,0,19.0,1440.0,8.0,-19.735,-0.373,-1.03,-0.23,-8.549,1.2069999999999994,16.898999999999997,0,1,0,100.0
7,86.0,1,20.0,0.0,1,6,0.8121333333333333,0.1772933333333333,1.7150133333333337,3.4220666666666664,35.0,27.8596,0,19.0,1440.0,8.0,-18.498933333333333,-0.33960000000000007,-1.02,-0.22,-9.941733333333332,-8.594266666666663,21.7156,0,1,0,100.0
7,87.0,1,20.0,0.0,1,6,0.8462666666666671,0.1819866666666667,1.651226666666666,3.455133333333334,35.0,27.853199999999998,0,19.0,1440.0,8.0,-18.16186666666666,-0.33319999999999994,-1.02,-0.22,-10.12946666666667,-9.622533333333344,22.285200000000007,0,1,0,100.0
7,88.0,1,20.0,0.0,1,6,0.8804000000000003,0.18668000000000004,1.5874399999999995,3.4882000000000004,35.0,27.846799999999998,0,19.0,1440.0,8.0,-17.824799999999996,-0.3268,-1.02,-0.22,-10.317200000000001,-10.650800000000007,22.854800000000004,0,1,0,100.0
7,89.0,1,20.0,0.0,1,6,0.9145333333333334,0.19137333333333334,1.523653333333333,3.521266666666667,35.0,27.8404,0,19.0,1440.0,8.0,-17.48773333333333,-0.32039999999999996,-1.02,-0.22,-10.504933333333334,-11.67906666666667,23.424400000000002,0,1,0,100.0
7,90.0,1,20.0,0.0,1,6,0.9486666666666667,0.19606666666666667,1.4598666666666666,3.5543333333333336,35.0,27.834,0,19.0,1440.0,8.0,-17.150666666666666,-0.314,-1.02,-0.22,-10.692666666666668,-12.707333333333333,23.994,0,1,0,100.0
7,91.0,1,20.0,0.0,1,6,1.0160000000000002,0.2314,0.8124400000000003,4.37032,35.0,27.7732,0,19.0,1440.0,8.0,-12.208400000000005,-0.2204000000000001,-1.0176,-0.21,-13.020799999999998,-16.328400000000002,28.4272,0,1,0,100.0
7,92.0,1,20.0,0.0,1,6,0.9519999999999993,0.23780000000000007,0.720279999999999,4.3978399999999995,35.0,27.728399999999997,0,19.0,1440.0,8.0,-10.710799999999983,-0.19479999999999972,-1.0111999999999999,-0.21,-13.769600000000008,-15.950799999999996,29.24640000000001,0,1,0,100.0
7,93.0,1,20.0,0.0,1,6,0.8931999999999995,0.2416,0.6840199999999999,4.43888,35.0,27.72,0,19.0,1440.0,8.0,-9.798199999999994,-0.17699999999999988,-1.01,-0.21,-14.248000000000003,-15.606999999999998,29.634,0,1,0,100.0
7,94.0,1,20.0,0.0,1,6,0.8355999999999998,0.24480000000000002,0.6606599999999999,4.48304,35.0,27.72,0,19.0,1440.0,8.0,-9.020599999999996,-0.16099999999999995,-1.01,-0.21,-14.664000000000001,-15.270999999999999,29.922,0,1,0,100.0
7,95.0,1,20.0,0.0,1,6,0.778,0.248,0.6373,4.527200000000001,35.0,27.72,0,19.0,1440.0,8.0,-8.243,-0.14500000000000002,-1.01,-0.21,-15.08,-14.935,30.21,0,1,0,100.0
7,96.0,1,20.0,0.0,1,6,0.354799999999997,0.25764000000000004,0.3822799999999983,4.865480000000001,35.0,27.72,0,19.0,1440.0,8.0,-4.421199999999977,-0.07799999999999956,-1.0,-0.21,-17.15960000000001,-13.508799999999994,30.845200000000002,0,1,0,100.0
7,97.0,1,20.0,0.0,1,6,0.15439999999999868,0.26116,0.2766,4.91968,35.0,27.718799999999998,0,19.0,1440.0,8.0,-2.907599999999991,-0.04839999999999987,-0.9995999999999999,-0.20959999999999995,-17.958800000000004,-13.080799999999998,30.874,0,1,0,100.0
7,98.0,1,20.0,0.0,1,6,0.029599999999999127,0.26244,0.2734,4.94112,35.0,27.7092,0,19.0,1440.0,8.0,-2.0883999999999943,-0.03559999999999991,-0.9964,-0.20639999999999997,-18.349200000000003,-12.9272,30.746,0,1,0,100.0
7,99.0,1,20.0,0.0,3,7,-0.09520000000000044,0.26372,0.2702,4.96256,35.0,27.6996,0,19.0,1440.0,8.0,-1.2691999999999972,-0.022799999999999956,-0.9932,-0.2032,-18.7396,-12.773599999999998,30.618,0,1,0,100.0
7,100.0,1,20.0,0.0,3,7,-0.22,0.265,0.267,4.984,35.0,27.69,0,19.0,1440.0,8.0,-0.45,-0.01,-0.99,-0.2,-19.13,-12.62,30.49,0,1,0,100.0
8,0.0,1,20.0,0.0,0,1,-5.03,0.082,-6.155,3.174,35.0,28.11,0,19.0,1440.0,8.0,8.5,0.15,-0.99,-0.12,-15.94,-10.44,2.34,0,1,0,100.0
8,1.0,1,20.0,0.0,0,1,-5.1836,-0.07736,-23.18732,1.1426399999999997,35.0,28.174,0,14.52,1440.0,8.0,7.1368,0.1244,-1.0028,-0.11359999999999999,-14.448799999999999,-10.664,4.0488,0,1,0,100.0
8,2.0,1,20.0,0.2800000000000001,0,1,-5.4992,-0.26076,-1.3620799999999995,0.0,35.0,28.18,0,12.28,1440.0,8.0,3.88,0.0716,-1.0256,-0.1,-10.8768,-9.3692,11.078000000000001,0,1,0,100.0
8,3.0,1,20.0,0.9200000000000004,0,1,-5.5888,-0.25564,1.2708800000000013,0.0,35.0,28.18,0,12.92,1440.0,8.0,2.76,0.052399999999999995,-1.0384,-0.1,-9.6352,-8.178799999999999,14.342000000000002,0,1,0,100.0
8,4.0,1,20.0,0.7199999999999999,0,1,-5.628,-0.25276,1.11224,0.0,35.0,28.18,0,12.72,1440.0,8.0,2.2168,0.0416,-1.0428,-0.1,-8.959200000000001,-7.408399999999999,15.9792,0,1,0,100.0
8,5.0,1,20.0,0.39999999999999997,0,1,-5.66,-0.2502,0.5548000000000002,0.0,35.0,28.18,0,12.4,1440.0,8.0,1.756,0.032,-1.046,-0.1,-8.364,-6.6979999999999995,17.384,0,1,0,100.0
8,6.0,1,20.0,0.07999999999999967,0,1,-5.692,-0.24764,-0.0026400000000003487,0.0,35.0,28.18,0,12.08,1440.0,8.0,1.2951999999999995,0.022399999999999993,-1.0492000000000001,-0.1,-7.7688,-5.987599999999999,18.788800000000002,0,1,0,100.0
8,7.0,1,20.0,1.0,0,1,-5.7944,-0.24031999999999998,0.5291199999999999,0.0,35.0,28.1704,0,13.0,1440.0,8.0,-0.13920000000000018,-0.0024000000000000024,-1.0524,-0.1024,-5.2912,-3.1171999999999995,22.537200000000002,0,1,0,100.0
8,8.0,1,20.0,1.0,0,1,-5.8136,-0.23807999999999999,0.3812799999999999,0.0,35.0,28.1576,0,13.0,1440.0,8.0,-0.40480000000000016,-0.005600000000000002,-1.0556,-0.1056,-4.6928,-2.4867999999999997,23.0268,0,1,0,100.0
8,9.0,1,20.0,1.0,0,1,-5.8328,-0.23584,0.23343999999999993,0.0,35.0,28.1448,0,13.0,1440.0,8.0,-0.6704000000000001,-0.0088,-1.0588,-0.10880000000000001,-4.0944,-1.8563999999999998,23.5164,0,1,0,100.0
8,10.0,1,20.0,1.0,0,1,-5.859999999999999,-0.2342,0.1136,0.0,35.0,28.156,0,13.0,1440.0,8.0,-1.018,-0.018,-1.064,-0.11,-3.206,-0.9680000000000001,23.8,0,1,0,100.0
8,11.0,1,20.0,0.9599999999999994,0,1,-5.9524,-0.23404000000000003,-0.057880000000000084,0.0,35.0,28.18,0,12.959999999999999,1440.0,8.0,-1.8660000000000003,-0.030400000000000003,-1.07,-0.12,-0.9195999999999995,1.3276000000000006,23.276,0,1,0,100.0
8,12.0,1,20.0,0.31999999999999884,0,1,-5.9908,-0.23468,-0.15196000000000018,0.0,35.0,28.18,0,12.319999999999999,1440.0,8.0,-2.1220000000000003,-0.03680000000000001,-1.07,-0.12,-0.4331999999999991,1.9292000000000011,22.572,0,1,0,100.0
8,13.0,1,20.0,0.16000000000000014,0,1,-6.0244,-0.23548,-0.21596,0.0,35.0,28.18,0,12.16,1440.0,8.0,-2.3156,-0.041600000000000005,-1.07,-0.12,-0.14039999999999997,2.3324000000000003,22.0152,0,1,0,100.0
8,14.0,1,20.0,0.4800000000000004,0,1,-6.0531999999999995,-0.23643999999999998,-0.24988000000000005,0.0,35.0,28.18,0,12.48,1440.0,8.0,-2.4468,-0.044800000000000006,-1.07,-0.12,-0.04119999999999987,2.5372000000000003,21.6056,0,1,0,100.0
8,15.0,1,20.0,0.8,0,1,-6.082,-0.2374,-0.2838,0.0,35.0,28.18,0,12.8,1440.0,8.0,-2.5780000000000003,-0.048,-1.07,-0.12,0.057999999999999996,2.742,21.196,0,1,0,100.0
8,16.0,1,20.0,1.0,0,1,-6.2312,-0.24076,-0.038359999999999936,0.0,35.0,28.14,0,13.0,1440.0,8.0,-3.326,-0.062400000000000004,-1.06,-0.13,0.11119999999999994,3.3476,19.212799999999998,0,1,0,100.0
8,17.0,1,20.0,1.0,0,1,-6.3144,-0.24012,0.032680000000000126,0.0,35.0,28.14,0,13.0,1440.0,8.0,-3.7420000000000004,-0.06880000000000001,-1.06,-0.13,0.034399999999999875,3.5012000000000003,18.2336,0,1,0,100.0
8,18.0,1,20.0,1.0,0,1,-6.3664,-0.2387,0.16976000000000008,0.0,35.0,28.1504,0,13.0,1440.0,8.0,-4.0254,-0.07260000000000001,-1.0574000000000001,-0.1326,-0.016400000000000015,3.5638,17.5664,0,1,0,100.0
8,19.0,1,20.0,1.0,0,1,-6.4112,-0.23709999999999998,0.3220800000000002,0.0,35.0,28.1632,0,13.0,1440.0,8.0,-4.2782,-0.0758,-1.0542,-0.1358,-0.06120000000000005,3.6054,16.9712,0,1,0,100.0
8,20.0,1,20.0,1.0,0,1,-6.4559999999999995,-0.2355,0.47440000000000004,0.0,35.0,28.176,0,13.0,1440.0,8.0,-4.531000000000001,-0.079,-1.0510000000000002,-0.139,-0.10599999999999998,3.6470000000000002,16.376,0,1,0,100.0
8,21.0,1,20.0,1.0,0,1,-6.5404,-0.23015999999999998,0.6997600000000003,0.0,35.0,28.1624,0,13.0,1440.0,8.0,-5.001600000000001,-0.08880000000000002,-1.0456,-0.1444,-0.16400000000000006,3.6644,15.1648,0,1,0,100.0
8,22.0,1,20.0,1.0,0,1,-6.6444,-0.22288,0.9273600000000001,0.0,35.0,28.14,0,13.0,1440.0,8.0,-5.574400000000001,-0.10160000000000002,-1.0392000000000001,-0.15,-0.22320000000000004,3.6612,13.632799999999996,0,1,0,100.0
8,23.0,1,20.0,1.0,0,1,-6.7596,-0.21391999999999997,0.93824,0.0,35.0,28.14,0,13.0,1440.0,8.0,-6.169600000000002,-0.11440000000000003,-1.0328,-0.15,-0.24880000000000008,3.5907999999999998,11.815199999999995,0,1,0,100.0
8,24.0,1,20.0,1.0,0,1,-6.882000000000001,-0.20639999999999997,0.786039999999999,0.0,35.0,28.1544,0,13.0,1440.0,8.0,-6.754000000000002,-0.12360000000000002,-1.0264,-0.15360000000000001,-0.24199999999999988,3.4879999999999995,9.860799999999992,0,1,0,100.0
8,25.0,1,20.0,1.0,0,1,-7.01,-0.2,0.507,0.0,35.0,28.18,0,13.0,1440.0,8.0,-7.33,-0.13,-1.02,-0.16,-0.21,3.36,7.8,0,1,0,100.0
8,26.0,1,20.0,1.0,0,1,-7.138,-0.19424,0.56908,0.0,35.0,28.1544,0,13.0,1440.0,8.0,-7.8612,-0.1428,-1.02,-0.16640000000000002,-0.0947999999999999,3.1807999999999996,5.591999999999998,0,1,0,100.0
8,27.0,1,20.0,1.0,0,1,-7.266,-0.18847999999999998,0.58776,0.0,35.0,28.1512,0,13.0,1440.0,8.0,-8.364400000000002,-0.15280000000000002,-1.0172,-0.1728,0.05680000000000037,2.9875999999999996,3.3671999999999955,0,1,0,100.0
8,28.0,1,20.0,1.0,0,1,-7.394,-0.18272,0.5506399999999999,0.0,35.0,28.1768,0,13.0,1440.0,8.0,-8.831600000000002,-0.1592,-1.0108,-0.1792,0.2552000000000006,2.7763999999999993,1.1207999999999938,0,1,0,100.0
8,29.0,1,20.0,0.43999999999999767,0,1,-7.522000000000001,-0.17808,0.4446399999999996,0.0,35.0,28.18,0,12.439999999999998,1440.0,8.0,-9.220400000000001,-0.16560000000000002,-1.0044,-0.18,0.526400000000001,2.5427999999999993,-1.0696000000000077,0,1,0,100.0
8,30.0,1,20.0,0.0,0,1,-7.846,-0.164,0.6629999999999999,0.0,35.0,28.14,0,12.0,1440.0,8.0,-10.006,-0.17200000000000001,-0.998,-0.19,1.392,1.8739999999999999,-6.394,0,1,0,100.0
8,31.0,1,20.0,0.0,0,1,-7.9612,-0.1576,0.5605999999999999,0.0,35.0,28.14,0,12.0,1440.0,8.0,-10.2172,-0.1784,-0.9916,-0.19,1.7824000000000002,1.5987999999999998,-8.294800000000002,0,1,0,100.0
8,32.0,1,20.0,0.0,0,1,-8.030800000000001,-0.15456,0.48915999999999993,0.0,35.0,28.1496,0,12.0,1440.0,8.0,-10.3156,-0.18,-0.99,-0.19240000000000002,2.0384,1.4339999999999997,-9.394,0,1,0,100.0
8,33.0,1,20.0,0.0,0,1,-8.0852,-0.15264,0.4280399999999998,0.0,35.0,28.1624,0,12.0,1440.0,8.0,-10.3764,-0.18,-0.99,-0.19560000000000002,2.2496000000000005,1.3059999999999996,-10.226,0,1,0,100.0
8,34.0,1,20.0,0.0,0,1,-8.1396,-0.15072,0.36691999999999975,0.0,35.0,28.1752,0,12.0,1440.0,8.0,-10.4372,-0.18,-0.99,-0.19880000000000003,2.4608000000000008,1.1779999999999995,-11.058000000000002,0,1,0,100.0
8,35.0,1,20.0,0.0,0,1,-8.188,-0.1488,0.3702,0.0,35.0,28.172,0,12.0,1440.0,8.0,-10.474,-0.18,-0.988,-0.2,2.678,1.0559999999999998,-11.819999999999999,0,1,0,100.0
8,36.0,1,20.0,0.0,0,1,-8.232800000000001,-0.14687999999999998,0.41212,0.0,35.0,28.1592,0,12.0,1440.0,8.0,-10.4964,-0.18,-0.9848,-0.2,2.8988,0.9375999999999999,-12.54,0,1,0,100.0
8,37.0,1,20.0,0.0,0,1,-8.277600000000001,-0.14495999999999998,0.45404000000000005,0.0,35.0,28.1464,0,12.0,1440.0,8.0,-10.518799999999999,-0.18,-0.9816,-0.2,3.1196,0.8191999999999997,-13.26,0,1,0,100.0
8,38.0,1,20.0,0.0,0,1,-8.4488,-0.13176,0.6102799999999998,0.0,35.0,28.1528,0,12.0,1440.0,8.0,-10.4648,-0.18,-0.98,-0.2,4.196800000000001,0.3763999999999996,-16.051600000000004,0,1,0,100.0
8,39.0,1,20.0,0.0,0,1,-8.5064,-0.12727999999999998,0.5168399999999996,0.0,35.0,28.1784,0,12.0,1440.0,8.0,-10.394400000000001,-0.18,-0.98,-0.2,4.670400000000002,0.2291999999999995,-17.094800000000003,0,1,0,100.0
8,40.0,1,20.0,0.0,0,1,-8.582,-0.1114,0.6910000000000001,0.0,35.0,28.156,0,12.0,1440.0,8.0,-10.098,-0.17400000000000002,-0.98,-0.2,5.878,-0.028000000000000004,-19.342,0,1,0,100.0
8,41.0,1,20.0,0.0,0,1,-8.588799999999999,-0.10603999999999998,0.6456799999999998,0.0,35.0,28.1448,0,12.0,1440.0,8.0,-9.9788,-0.17,-0.98,-0.2,6.257600000000001,-0.08960000000000014,-19.984400000000004,0,1,0,100.0
8,42.0,1,20.0,0.0,0,1,-8.5856,-0.10348,0.5941599999999999,0.0,35.0,28.1576,0,12.0,1440.0,8.0,-9.8956,-0.17,-0.98,-0.2,6.4912,-0.11520000000000005,-20.3428,0,1,0,100.0
8,43.0,1,20.0,0.0,0,1,-8.5824,-0.10092000000000001,0.5426400000000001,0.0,35.0,28.1704,0,12.0,1440.0,8.0,-9.8124,-0.17,-0.98,-0.2,6.7248,-0.14079999999999995,-20.7012,0,1,0,100.0
8,44.0,1,20.0,0.0,0,1,-8.527199999999999,-0.09071999999999998,0.5997599999999997,0.0,35.0,28.1736,0,12.0,1440.0,8.0,-9.382399999999999,-0.16,-0.98,-0.2,7.7368000000000015,-0.24120000000000016,-22.058000000000003,0,1,0,100.0
8,45.0,1,20.0,0.0,0,1,-8.476,-0.08560000000000001,0.5268,0.0,35.0,28.148,0,12.0,1440.0,8.0,-9.152,-0.16,-0.98,-0.2,8.204,-0.286,-22.57,0,1,0,100.0
8,46.0,1,20.0,0.0,0,1,-8.4358,-0.08245999999999999,0.47165999999999975,0.0,35.0,28.14,0,12.0,1440.0,8.0,-8.9964,-0.1578,-0.98,-0.1978,8.5172,-0.3176000000000001,-22.8774,0,1,0,100.0
8,47.0,1,20.0,0.0,0,1,-8.4006,-0.08022,0.4246199999999999,0.0,35.0,28.14,0,12.0,1440.0,8.0,-8.874799999999999,-0.1546,-0.98,-0.1946,8.7604,-0.34320000000000006,-23.0918,0,1,0,100.0
8,48.0,1,20.0,0.0,0,1,-8.3654,-0.07797999999999998,0.37757999999999964,0.0,35.0,28.14,0,12.0,1440.0,8.0,-8.753199999999998,-0.15139999999999998,-0.98,-0.1914,9.0036,-0.3688000000000002,-23.3062,0,1,0,100.0
8,49.0,1,20.0,0.0,0,1,-8.2996,-0.07447999999999999,0.42792000000000047,0.0,35.0,28.1544,0,12.0,1440.0,8.0,-8.556,-0.14639999999999997,-0.98,-0.19,9.390800000000002,-0.41960000000000025,-23.6268,0,1,0,100.0
8,50.0,1,20.0,0.0,0,1,-8.21,-0.07,0.554,0.0,35.0,28.18,0,12.0,1440.0,8.0,-8.3,-0.14,-0.98,-0.19,9.89,-0.49,-24.03,0,1,0,100.0
8,51.0,1,20.0,0.0,0,1,-8.1556,-0.06679999999999998,0.6256800000000005,0.0,35.0,28.1672,0,12.0,1440.0,8.0,-8.172,-0.14,-0.98,-0.19,10.149200000000002,-0.5412000000000002,-24.254,0,1,0,100.0
8,52.0,1,20.0,0.0,0,1,-8.1012,-0.06359999999999999,0.6973600000000002,0.0,35.0,28.1544,0,12.0,1440.0,8.0,-8.044,-0.14,-0.98,-0.19,10.4084,-0.5924000000000001,-24.478,0,1,0,100.0
8,53.0,1,20.0,0.0,0,1,-8.0468,-0.060399999999999975,0.7690400000000005,0.0,35.0,28.1416,0,12.0,1440.0,8.0,-7.9159999999999995,-0.14,-0.98,-0.19,10.667600000000002,-0.6436000000000004,-24.702,0,1,0,100.0
8,54.0,1,20.0,0.0,0,1,-7.454399999999999,-0.03171999999999997,0.7870800000000008,0.0,35.0,28.14,0,12.0,1440.0,8.0,-6.928399999999999,-0.12,-0.99,-0.18,12.766000000000002,-1.2468000000000008,-27.199600000000004,0,1,0,100.0
8,55.0,1,20.0,0.0,0,1,-7.311,-0.0248,0.9403999999999999,0.0,35.0,28.144000000000002,0,12.0,1440.0,8.0,-6.734,-0.119,-0.99,-0.18,13.236,-1.3980000000000001,-27.851,0,1,0,100.0
8,56.0,1,20.0,0.0,0,1,-7.2181999999999995,-0.02095999999999998,0.9128799999999998,0.0,35.0,28.1568,0,12.0,1440.0,8.0,-6.618799999999999,-0.11579999999999999,-0.99,-0.18,13.543200000000002,-1.4876000000000005,-28.302200000000003,0,1,0,100.0
8,57.0,1,20.0,0.0,0,1,-7.1254,-0.017119999999999993,0.8853599999999999,0.0,35.0,28.1696,0,12.0,1440.0,8.0,-6.5036,-0.11259999999999999,-0.99,-0.18,13.8504,-1.5772000000000002,-28.753400000000003,0,1,0,100.0
8,58.0,1,20.0,0.0,0,1,-6.700399999999998,0.006440000000000055,1.3911200000000012,-0.02988000000000113,35.0,28.14,0,12.720000000000027,1440.0,8.0,-6.0055999999999985,-0.10879999999999995,-1.0,-0.18,15.296000000000005,-1.8552,-31.17880000000001,0,1,0,100.0
8,59.0,1,20.0,0.0,6,2,-6.489199999999999,0.014120000000000028,1.5677600000000005,-0.18924000000000055,35.0,28.14,0,16.560000000000013,1440.0,8.0,-5.768799999999999,-0.10239999999999998,-1.0,-0.18,15.968000000000002,-1.8296,-32.6124,0,1,0,100.0
8,60.0,1,20.0,0.0,6,2,-6.338,0.0158,1.1938,-0.2964,35.0,28.14,0,18.0,1440.0,8.0,-5.608,-0.098,-1.002,-0.18,16.407999999999998,-1.708,-33.653999999999996,0,1,0,100.0
8,61.0,1,20.0,0.0,6,2,-6.222799999999999,0.01387999999999999,0.48947999999999636,-0.3722400000000004,35.0,28.14,0,18.0,1440.0,8.0,-5.492799999999999,-0.09479999999999998,-1.0052,-0.18,16.7088,-1.528799999999999,-34.46040000000001,0,1,0,100.0
8,62.0,1,20.0,0.0,6,2,-6.1076,0.011959999999999997,-0.21484000000000103,-0.44808000000000014,35.0,28.14,0,18.0,1440.0,8.0,-5.3776,-0.09159999999999999,-1.0084,-0.18,17.0096,-1.3495999999999997,-35.2668,0,1,0,100.0
8,63.0,1,20.0,0.16000000000000228,6,2,-5.989199999999999,0.010199999999999989,-0.5202799999999993,-0.4232799999999991,35.0,28.14,0,18.160000000000004,1440.0,8.0,-5.263999999999999,-0.09,-1.0116,-0.17839999999999998,17.272000000000002,-1.0599999999999972,-36.09400000000001,0,1,0,100.0
8,64.0,1,20.0,0.48000000000000115,6,2,-5.8675999999999995,0.008599999999999995,-0.42683999999999966,-0.29783999999999955,35.0,28.14,0,18.48,1440.0,8.0,-5.151999999999999,-0.09,-1.0148,-0.1752,17.496000000000002,-0.6599999999999986,-36.94200000000001,0,1,0,100.0
8,65.0,1,20.0,0.8,6,2,-5.7459999999999996,0.007,-0.33340000000000003,-0.1724,35.0,28.14,0,18.8,1440.0,8.0,-5.04,-0.09,-1.018,-0.17200000000000001,17.72,-0.26,-37.79,0,1,0,100.0
8,66.0,1,20.0,1.0,6,2,-5.1667999999999985,0.0012799999999999897,-0.24107999999999957,0.20232000000000083,35.0,28.14,0,19.0,1440.0,8.0,-4.5924,-0.08,-1.03,-0.17,18.168799999999997,2.7740000000000102,-41.5632,0,1,0,100.0
8,67.0,1,20.0,1.0,6,2,-4.8915999999999995,-0.0006400000000000036,-0.15595999999999985,0.35784000000000027,35.0,28.14,0,19.0,1440.0,8.0,-4.4388,-0.08,-1.03,-0.17,18.0856,4.758000000000004,-43.1184,0,1,0,100.0
8,68.0,1,20.0,0.5200000000000046,6,2,-4.1351999999999975,-0.002,-0.06756000000000013,0.3109199999999994,35.0,28.14,0,18.520000000000003,1440.0,8.0,-4.643600000000002,-0.08520000000000004,-1.04,-0.17,16.693999999999996,12.918800000000028,-44.9792,0,1,0,100.0
8,69.0,1,20.0,0.9199999999999988,6,2,-3.8591999999999995,-0.002,-0.0730799999999999,0.24355999999999992,35.0,28.14,0,18.919999999999998,1440.0,8.0,-4.9308000000000005,-0.09160000000000001,-1.0408,-0.17,15.922799999999999,16.48360000000001,-44.782399999999996,0,1,0,100.0
8,70.0,1,20.0,0.6,6,2,-3.696,-0.002,-0.0414,0.2218,35.0,28.14,0,18.6,1440.0,8.0,-5.254,-0.098,-1.044,-0.17,15.334,18.858,-44.072,0,1,0,100.0
8,71.0,1,20.0,0.27999999999999825,6,2,-3.532799999999999,-0.002,-0.009719999999999828,0.20003999999999988,35.0,28.14,0,18.279999999999998,1440.0,8.0,-5.577200000000002,-0.10440000000000003,-1.0472000000000001,-0.17,14.745199999999997,21.232400000000013,-43.361599999999996,0,1,0,100.0
8,72.0,1,20.0,0.08000000000000114,6,2,-3.3475999999999995,-0.002,0.023280000000000075,0.18067999999999998,35.0,28.14,0,18.080000000000002,1440.0,8.0,-5.987200000000002,-0.11240000000000004,-1.05,-0.17,14.052399999999999,23.92440000000001,-42.3784,0,1,0,100.0
8,73.0,1,20.0,0.7200000000000046,6,2,-3.0083999999999977,-0.002,0.0655200000000003,0.17811999999999997,35.0,28.14,0,18.720000000000006,1440.0,8.0,-7.0048000000000075,-0.13160000000000013,-1.05,-0.17,12.63159999999999,28.839600000000033,-39.48559999999998,0,1,0,100.0
8,74.0,1,20.0,1.0,6,2,-2.1991999999999994,-0.002,0.06453999999999983,0.2001,35.0,28.14,0,19.0,1443.6,8.180000000000001,-9.922200000000002,-0.18720000000000003,-1.05,-0.18,9.118199999999998,38.4284,-30.21099999999999,0,1,0,100.0
8,75.0,1,20.0,1.0,6,2,-2.02,-0.002,0.0175,0.1985,35.0,28.14,0,19.0,1450.0,8.5,-10.655000000000001,-0.2,-1.05,-0.18,8.315,39.830000000000005,-27.635,0,1,0,100.0
8,76.0,1,20.0,1.0,1,5,-1.840799999999999,-0.002,-0.02954000000000025,0.1969,35.0,28.14,0,19.0,1456.4,8.820000000000002,-11.387800000000004,-0.21280000000000007,-1.05,-0.18,7.511799999999996,41.23160000000001,-25.058999999999987,0,1,0,100.0
8,77.0,1,20.0,0.7199999999999989,1,5,-1.5803999999999994,-0.002,-0.030239999999999895,0.17723999999999993,35.0,28.1204,0,19.0,1460.0,9.0,-12.427200000000003,-0.23120000000000004,-1.05,-0.18280000000000002,6.362799999999997,42.28040000000001,-21.16279999999999,0,1,0,100.0
8,78.0,1,20.0,0.07999999999999541,1,5,-1.2155999999999973,-0.002,0.028640000000000415,0.1343599999999997,35.0,28.0756,0,19.0,1460.0,9.0,-13.86080000000001,-0.2568000000000002,-1.05,-0.18920000000000003,4.769199999999989,42.875600000000006,-15.56919999999996,0,1,0,100.0
8,79.0,1,20.0,0.0,1,5,-0.8563999999999987,0.02040000000000009,1.9377600000000077,0.7388400000000025,35.0,28.07,0,19.0,1460.0,9.0,-15.126400000000004,-0.2824000000000001,-1.0444,-0.19,3.2539999999999947,41.331599999999995,-10.126799999999982,0,1,0,100.0
8,80.0,1,20.0,0.0,1,5,-0.504,0.048,3.3494,1.3094,35.0,28.056,0,19.0,1460.0,9.0,-16.27,-0.306,-1.04,-0.192,1.806,38.804,-4.884,0,1,0,100.0
8,81.0,1,20.0,0.0,1,6,-0.16480000000000114,0.07999999999999988,3.085080000000001,1.6018799999999989,35.0,28.0112,0,19.0,1460.0,9.0,-17.197999999999997,-0.32519999999999993,-1.04,-0.1984,0.48120000000000474,34.78480000000002,-0.03280000000001753,0,1,0,100.0
8,82.0,1,20.0,0.0,1,6,0.626400000000003,0.14584000000000022,2.334239999999995,2.2862800000000045,35.0,27.950799999999997,0,19.0,1460.0,9.0,-18.3564,-0.34480000000000005,-1.04,-0.2,-2.2176000000000093,20.610799999999937,10.183200000000037,0,1,0,100.0
8,83.0,1,20.0,0.0,1,6,0.8722000000000009,0.16462000000000007,1.9225799999999993,2.6477000000000004,35.0,27.93,0,19.0,1460.0,9.0,-18.4224,-0.34939999999999993,-1.04,-0.2,-2.9972000000000025,15.102799999999979,13.22880000000001,0,1,0,100.0
8,84.0,1,20.0,0.0,1,6,0.9906000000000004,0.17326000000000003,1.8403399999999996,2.7421,35.0,27.93,0,19.0,1460.0,9.0,-18.275199999999998,-0.3462,-1.04,-0.2,-3.3556000000000012,12.18439999999999,14.662400000000007,0,1,0,100.0
8,85.0,1,20.0,0.0,1,6,1.109,0.1819,1.7581,2.8365,35.0,27.93,0,19.0,1460.0,9.0,-18.128,-0.343,-1.04,-0.2,-3.714,9.266,16.096,0,1,0,100.0
8,86.0,1,20.0,0.0,1,6,1.5179999999999996,0.21271999999999996,1.2985200000000006,3.3165999999999993,35.0,27.8984,0,19.0,1460.0,9.0,-16.900000000000006,-0.3188000000000001,-1.04,-0.2004,-5.123999999999998,-1.2899999999999876,21.513999999999992,0,1,0,100.0
8,87.0,1,20.0,0.0,1,6,1.6460000000000015,0.22424000000000013,1.130839999999998,3.5182000000000024,35.0,27.872799999999998,0,19.0,1460.0,9.0,-15.93999999999999,-0.2995999999999998,-1.04,-0.20680000000000007,-5.828000000000007,-4.810000000000038,23.818000000000023,0,1,0,100.0
8,88.0,1,20.0,0.0,1,6,1.7217333333333336,0.23160000000000003,1.039853333333333,3.6179333333333337,35.0,27.86,0,19.0,1460.0,9.0,-15.260533333333331,-0.28573333333333323,-1.04,-0.21,-6.314400000000002,-6.924133333333339,25.329466666666672,0,1,0,100.0
8,89.0,1,20.0,0.0,1,6,1.7452,0.2348,1.0255599999999998,3.6158,35.0,27.86,0,19.0,1460.0,9.0,-14.8616,-0.27719999999999995,-1.04,-0.21,-6.583200000000001,-7.632400000000003,26.0484,0,1,0,100.0
8,90.0,1,20.0,0.0,1,6,1.7686666666666666,0.238,1.0112666666666665,3.6136666666666666,35.0,27.86,0,19.0,1460.0,9.0,-14.462666666666667,-0.26866666666666666,-1.04,-0.21,-6.852,-8.340666666666667,26.767333333333333,0,1,0,100.0
8,91.0,1,20.0,0.0,1,6,1.7921333333333334,0.2412,0.9969733333333334,3.6115333333333335,35.0,27.86,0,19.0,1460.0,9.0,-14.063733333333335,-0.2601333333333334,-1.04,-0.21,-7.120799999999999,-9.04893333333333,27.486266666666666,0,1,0,100.0
8,92.0,1,20.0,0.0,1,6,1.8156000000000003,0.24440000000000003,0.9826799999999998,3.6094,35.0,27.86,0,19.0,1460.0,9.0,-13.664799999999996,-0.25159999999999993,-1.04,-0.21,-7.389600000000003,-9.757200000000008,28.20520000000001,0,1,0,100.0
8,93.0,1,20.0,0.0,1,6,1.7183999999999997,0.26882000000000006,0.4464399999999996,4.24156,35.0,27.79,0,19.0,1460.0,9.0,-8.541199999999995,-0.1569999999999999,-1.03,-0.21,-10.893800000000004,-11.744,34.656000000000006,0,1,0,100.0
8,94.0,1,20.0,0.0,1,6,1.6671999999999998,0.27106,0.3965199999999998,4.29148,35.0,27.79,0,19.0,1460.0,9.0,-7.779599999999998,-0.14099999999999993,-1.03,-0.21,-11.415400000000002,-11.712,35.328,0,1,0,100.0
8,95.0,1,20.0,0.0,1,6,1.616,0.27330000000000004,0.3466,4.3414,35.0,27.79,0,19.0,1460.0,9.0,-7.018000000000001,-0.125,-1.03,-0.21,-11.937,-11.68,36.0,0,1,0,100.0
8,96.0,1,20.0,0.0,1,6,1.204799999999997,0.28120000000000006,0.42931999999999887,4.2968399999999995,35.0,27.79,0,19.0,1460.0,9.0,-3.305199999999978,-0.057999999999999545,-1.0255999999999998,-0.21,-14.364400000000014,-11.651600000000002,37.808800000000005,0,1,0,100.0
8,97.0,1,20.0,0.0,1,6,1.0043999999999986,0.2842,0.35567999999999955,4.2820800000000006,35.0,27.7888,0,19.0,1460.0,9.0,-1.8543999999999918,-0.028399999999999863,-1.0196,-0.20959999999999995,-15.264800000000005,-11.742,38.086800000000004,0,1,0,100.0
8,98.0,1,20.0,0.0,1,6,0.8795999999999992,0.2858,0.3131199999999997,4.33872,35.0,27.7792,0,19.0,1460.0,9.0,-1.0895999999999944,-0.015599999999999907,-1.0164,-0.20639999999999997,-15.703200000000002,-11.838000000000001,37.9812,0,1,0,100.0
8,99.0,1,20.0,0.0,3,7,0.7547999999999996,0.2874,0.27055999999999986,4.39536,35.0,27.7696,0,19.0,1460.0,9.0,-0.3247999999999971,-0.0027999999999999527,-1.0132,-0.2032,-16.1416,-11.934,37.875600000000006,0,1,0,100.0
8,100.0,1,20.0,0.0,3,7,0.63,0.289,0.228,4.452,35.0,27.76,0,19.0,1460.0,9.0,0.44,0.01,-1.01,-0.2,-16.58,-12.03,37.77,0,1,0,100.0
11,0.0,1,20.0,0.0,0,1,-8.38,-0.093,0.359,0.0,35.0,28.14,0,11.0,2160.0,9.0,-4.14,-0.07,-0.99,-0.19,3.72,22.47,0.73,0,1,0,100.0
11,1.0,1,20.0,0.0,0,1,-8.2708,-0.0909,0.3359,0.0,35.0,28.14,0,11.0,2160.0,9.0,-4.1442,-0.07,-0.99,-0.19,3.8586,22.3566,0.373,0,1,0,100.0
11,2.0,1,20.0,0.0,0,1,-8.1616,-0.08879999999999999,0.31279999999999997,0.0,35.0,28.14,0,11.0,2160.0,9.0,-4.1484000000000005,-0.07,-0.99,-0.19,3.9972,22.243199999999998,0.016000000000000018,0,1,0,100.0
11,3.0,1,20.0,0.0,0,1,-8.088799999999999,-0.08774,0.29074,0.0,35.0,28.1452,0,11.0,2160.0,9.0,-4.1487,-0.07,-0.99,-0.19,4.0877,22.0856,-0.2552000000000001,0,1,0,100.0
11,4.0,1,20.0,0.0,0,1,-8.0384,-0.08732,0.26932,0.0,35.0,28.1536,0,11.0,2160.0,9.0,-4.1466,-0.07,-0.99,-0.19,4.1486,21.9008,-0.4736000000000001,0,1,0,100.0
11,5.0,1,20.0,0.0,0,1,-7.9879999999999995,-0.08689999999999999,0.2479,0.0,35.0,28.162,0,11.0,2160.0,9.0,-4.1445,-0.07,-0.99,-0.19,4.2095,21.716,-0.6920000000000001,0,1,0,100.0
11,6.0,1,20.0,0.0,0,1,-7.9376,-0.08647999999999999,0.22648,0.0,35.0,28.1704,0,11.0,2160.0,9.0,-4.142399999999999,-0.07,-0.99,-0.19,4.2703999999999995,21.5312,-0.9104000000000002,0,1,0,100.0
11,7.0,1,20.0,0.0,0,1,-7.8872,-0.08606,0.20506000000000002,0.0,35.0,28.1788,0,11.0,2160.0,9.0,-4.1403,-0.07,-0.99,-0.19,4.3313,21.3464,-1.1288000000000002,0,1,0,100.0
11,8.0,1,20.0,0.0,0,1,-7.4512,-0.07746,0.19634000000000001,0.0,35.0,28.14,0,11.0,2160.0,9.0,-4.0492,-0.07,-0.99,-0.18,4.7842,18.0932,-3.6044,0,1,0,100.0
11,9.0,1,20.0,0.0,0,1,-7.4176,-0.07683,0.19907,0.0,35.0,28.14,0,11.0,2160.0,9.0,-4.0366,-0.07,-0.99,-0.18,4.8241000000000005,17.723599999999998,-3.8312000000000004,0,1,0,100.0
11,10.0,1,20.0,0.0,0,1,-7.384,-0.0762,0.2018,0.0,35.0,28.14,0,11.0,2160.0,9.0,-4.024,-0.07,-0.99,-0.18,4.864,17.354,-4.058,0,1,0,100.0
11,11.0,1,20.0,0.0,0,1,-7.3504000000000005,-0.07557,0.20453,0.0,35.0,28.14,0,11.0,2160.0,9.0,-4.0114,-0.07,-0.99,-0.18,4.9039,16.984399999999997,-4.284800000000001,0,1,0,100.0
11,12.0,1,20.0,0.0,0,1,-7.1644,-0.06972,0.2847600000000002,0.0,35.0,28.1784,0,11.0,2160.0,9.0,-3.9272,-0.07,-0.99,-0.18,5.1499999999999995,14.766799999999998,-5.5952,0,1,0,100.0
11,13.0,1,20.0,0.0,0,1,-7.1056,-0.06678,0.41874000000000006,0.0,35.0,28.1616,0,11.0,2160.0,9.0,-3.8978,-0.07,-0.99,-0.18,5.255,13.998199999999999,-6.0698,0,1,0,100.0
11,14.0,1,20.0,0.0,0,1,-7.0468,-0.06384,0.5527200000000001,0.0,35.0,28.1448,0,11.0,2160.0,9.0,-3.8684,-0.07,-0.99,-0.18,5.359999999999999,13.2296,-6.5444,0,1,0,100.0
11,15.0,1,20.0,0.0,0,1,-7.009,-0.0615,0.6,0.0,35.0,28.146,0,11.0,2160.0,9.0,-3.851,-0.07,-0.99,-0.18,5.438,12.746,-6.872,0,1,0,100.0
11,16.0,1,20.0,0.0,0,1,-6.9796,-0.0594,0.6126,0.0,35.0,28.1544,0,11.0,2160.0,9.0,-3.8384,-0.07,-0.99,-0.18,5.505199999999999,12.3764,-7.1408,0,1,0,100.0
11,17.0,1,20.0,0.0,0,1,-6.9502,-0.0573,0.6252,0.0,35.0,28.1628,0,11.0,2160.0,9.0,-3.8257999999999996,-0.07,-0.99,-0.18,5.5724,12.0068,-7.4096,0,1,0,100.0
11,18.0,1,20.0,0.0,0,1,-6.9208,-0.05519999999999999,0.6378,0.0,35.0,28.1712,0,11.0,2160.0,9.0,-3.8131999999999997,-0.07,-0.99,-0.18,5.6396,11.6372,-7.678400000000001,0,1,0,100.0
11,19.0,1,20.0,0.0,0,1,-6.8914,-0.0531,0.6504,0.0,35.0,28.1796,0,11.0,2160.0,9.0,-3.8005999999999998,-0.07,-0.99,-0.18,5.7068,11.2676,-7.9472,0,1,0,100.0
11,20.0,1,20.0,0.0,0,1,-6.744,-0.0428,0.4198,0.0,35.0,28.14,0,11.0,2160.0,9.0,-3.702,-0.06,-0.99,-0.17,6.1979999999999995,9.268,-9.692,0,1,0,100.0
11,21.0,1,20.0,0.0,0,1,-6.7166999999999994,-0.04154,0.45529000000000003,0.0,35.0,28.14,0,11.0,2160.0,9.0,-3.6831,-0.06,-0.99,-0.17,6.3008999999999995,8.9404,-10.0196,0,1,0,100.0
11,22.0,1,20.0,0.0,6,2,-6.6894,-0.040279999999999996,0.4907800000000001,0.0,35.0,28.14,0,11.0,2160.0,9.0,-3.6642,-0.06,-0.99,-0.17,6.4037999999999995,8.6128,-10.3472,0,1,0,100.0
11,23.0,1,20.0,0.0,6,2,-6.6621,-0.03902,0.5262700000000001,0.0,35.0,28.14,0,11.0,2160.0,9.0,-3.6452999999999998,-0.06,-0.99,-0.17,6.5067,8.2852,-10.674800000000001,0,1,0,100.0
11,24.0,1,20.0,0.0,6,2,-6.6296,-0.03751999999999999,0.5727600000000003,-0.008320000000000117,35.0,28.14,0,11.560000000000008,2160.0,9.0,-3.6195999999999997,-0.06,-0.99,-0.17,6.639600000000001,7.907199999999998,-11.077600000000002,0,1,0,100.0
11,25.0,1,20.0,0.0,6,2,-6.575,-0.035,0.666,-0.052,35.0,28.14,0,14.5,2160.0,9.0,-3.565,-0.06,-0.99,-0.17,6.9,7.3149999999999995,-11.8,0,1,0,100.0
11,26.0,1,20.0,0.0,6,2,-6.5203999999999995,-0.03248,0.7592400000000001,-0.09568000000000003,35.0,28.14,0,17.44,2160.0,9.0,-3.5103999999999997,-0.06,-0.99,-0.17,7.1604,6.722799999999999,-12.522400000000001,0,1,0,100.0
11,27.0,1,20.0,0.0,6,2,-6.3324,-0.015939999999999996,0.7144799999999998,0.16943999999999995,35.0,28.14,0,18.0,2160.0,9.0,-3.2922,-0.06,-0.99,-0.17,8.249,4.992999999999999,-15.2134,0,1,0,100.0
11,28.0,1,20.0,0.0,6,2,-6.2736,-0.012159999999999992,0.5557199999999997,0.13415999999999992,35.0,28.14,0,18.0,2160.0,9.0,-3.2208,-0.06,-0.99,-0.17,8.606000000000002,4.551999999999999,-16.0576,0,1,0,100.0
11,29.0,1,20.0,0.0,6,2,-6.2256,-0.009549999999999998,0.45653999999999995,0.09635999999999989,35.0,28.14,0,18.0,2160.0,9.0,-3.162,-0.05909999999999999,-0.9909,-0.17,8.887400000000001,4.232499999999999,-16.726300000000002,0,1,0,100.0
11,30.0,1,20.0,0.0,6,2,-6.192,-0.0085,0.4368,0.055200000000000006,35.0,28.14,0,18.0,2160.0,9.0,-3.12,-0.057,-0.993,-0.17,9.068,4.075,-17.160999999999998,0,1,0,100.0
11,31.0,1,20.0,0.0,6,2,-6.1584,-0.007449999999999996,0.41705999999999993,0.01403999999999984,35.0,28.14,0,18.0,2160.0,9.0,-3.078,-0.05489999999999999,-0.9951,-0.17,9.248600000000001,3.917499999999999,-17.5957,0,1,0,100.0
11,32.0,1,20.0,0.0,6,2,-6.1248000000000005,-0.006399999999999999,0.39732,-0.027120000000000047,35.0,28.14,0,18.0,2160.0,9.0,-3.036,-0.0528,-0.9972,-0.17,9.4292,3.76,-18.0304,0,1,0,100.0
11,33.0,1,20.0,0.0,6,2,-6.0912,-0.0053500000000000015,0.37758,-0.06827999999999994,35.0,28.14,0,18.0,2160.0,9.0,-2.994,-0.0507,-0.9993,-0.17,9.6098,3.6025,-18.4651,0,1,0,100.0
11,34.0,1,20.0,0.28000000000000114,6,2,-5.8596,-0.00043999999999999774,0.15327999999999992,-0.32400000000000007,35.0,28.14,0,18.28,2160.0,9.0,-2.6771999999999996,-0.04719999999999999,-1.0,-0.1672,10.534400000000002,3.3920000000000003,-21.2768,0,1,0,100.0
11,35.0,1,20.0,0.7000000000000001,6,2,-5.784000000000001,0.0004000000000000001,0.1222,-0.3555,35.0,28.14,0,18.7,2160.0,9.0,-2.568,-0.043000000000000003,-1.0,-0.163,10.736,3.56,-22.142,0,1,0,100.0
11,36.0,1,20.0,1.0,6,2,-5.7174000000000005,0.001,0.09489999999999993,-0.37379999999999997,35.0,28.14,0,19.0,2160.0,9.0,-2.4756,-0.04,-1.0006,-0.16,10.889000000000001,3.7466000000000013,-22.883600000000005,0,1,0,100.0
11,37.0,1,20.0,1.0,6,2,-5.6733,0.001,0.07704999999999998,-0.3591,35.0,28.14,0,19.0,2160.0,9.0,-2.4252000000000002,-0.04,-1.0027,-0.16,10.9205,3.9797000000000002,-23.316200000000002,0,1,0,100.0
11,38.0,1,20.0,1.0,6,2,-5.6292,0.001,0.05920000000000002,-0.34440000000000004,35.0,28.14,0,19.0,2160.0,9.0,-2.3748,-0.04,-1.0048,-0.16,10.952,4.2128,-23.7488,0,1,0,100.0
11,39.0,1,20.0,1.0,6,2,-5.5851,0.001,0.041349999999999956,-0.32969999999999994,35.0,28.14,0,19.0,2160.0,9.0,-2.3244,-0.04,-1.0069,-0.16,10.9835,4.445900000000001,-24.181400000000004,0,1,0,100.0
11,40.0,1,20.0,1.0,6,2,-5.5409999999999995,0.001,0.0235,-0.315,35.0,28.14,0,19.0,2160.0,9.0,-2.274,-0.04,-1.009,-0.16,11.014999999999999,4.679,-24.614,0,1,0,100.0
11,41.0,1,20.0,1.0,6,2,-5.4716,0.001,0.009499999999999956,-0.26311999999999963,35.0,28.14,0,19.0,2160.0,9.0,-2.1994,-0.04,-1.01,-0.16,10.981599999999998,5.192600000000003,-25.284200000000002,0,1,0,100.0
11,42.0,1,20.0,1.0,6,2,-5.3792,0.001,-0.0010000000000000152,-0.17743999999999988,35.0,28.14,0,19.0,2160.0,9.0,-2.1028,-0.04,-1.01,-0.16,10.8892,5.961200000000001,-26.1704,0,1,0,100.0
11,43.0,1,20.0,1.0,6,2,-5.285,0.0009400000000000006,-0.015819999999999945,-0.0932000000000001,35.0,28.14,0,19.0,2160.0,9.0,-2.0056000000000003,-0.039400000000000004,-1.0106,-0.16,10.771600000000001,6.773599999999998,-27.057199999999998,0,1,0,100.0
11,44.0,1,20.0,1.0,6,2,-5.18,0.0005199999999999989,-0.05656000000000011,-0.017599999999999796,35.0,28.14,0,19.0,2160.0,9.0,-1.9047999999999998,-0.03519999999999999,-1.0148,-0.16,10.502799999999999,7.848800000000002,-27.9476,0,1,0,100.0
11,45.0,1,20.0,1.0,6,2,-5.075,9.999999999999998e-05,-0.0973,0.057999999999999996,35.0,28.14,0,19.0,2160.0,9.0,-1.804,-0.031,-1.0190000000000001,-0.16,10.234,8.924,-28.838,0,1,0,100.0
11,46.0,1,20.0,1.0,6,2,-4.960399999999999,-0.0006400000000000034,-0.12108000000000008,0.16400000000000045,35.0,28.14,0,19.0,2160.0,9.0,-1.6967999999999996,-0.03,-1.0232,-0.16,9.8372,10.232800000000006,-29.706000000000003,0,1,0,100.0
11,47.0,1,20.0,1.0,6,2,-4.8427999999999995,-0.0014800000000000013,-0.13956000000000002,0.27950000000000014,35.0,28.14,0,19.0,2160.0,9.0,-1.5876,-0.03,-1.0274,-0.16,9.4004,11.614600000000003,-30.567000000000004,0,1,0,100.0
11,48.0,1,20.0,1.0,6,2,-4.417199999999999,-0.003160000000000002,-0.04807999999999998,0.5450400000000002,35.0,28.14,0,19.0,2160.0,9.0,-1.2095999999999996,-0.02,-1.03,-0.15839999999999999,7.437999999999996,17.407600000000013,-33.00000000000001,0,1,0,100.0
11,49.0,1,20.0,1.0,6,2,-4.278599999999999,-0.003580000000000001,-0.04303999999999999,0.5740200000000001,35.0,28.14,0,19.0,2160.0,9.0,-1.1297999999999997,-0.02,-1.03,-0.15419999999999998,6.7239999999999975,19.553800000000006,-33.42,0,1,0,100.0
11,50.0,1,20.0,1.0,6,2,-4.14,-0.004,-0.038,0.603,35.0,28.14,0,19.0,2160.0,9.0,-1.05,-0.02,-1.03,-0.15,6.01,21.7,-33.84,0,1,0,100.0
11,51.0,1,20.0,1.0,6,2,-4.064399999999999,-0.004210000000000001,-0.02119999999999993,0.59124,35.0,28.14,0,19.0,2160.0,9.0,-1.0605,-0.02,-1.03,-0.15,5.623599999999998,22.995700000000006,-33.770700000000005,0,1,0,100.0
11,52.0,1,20.0,1.0,6,2,-3.9887999999999995,-0.00442,-0.004399999999999976,0.57948,35.0,28.14,0,19.0,2160.0,9.0,-1.0710000000000002,-0.02,-1.03,-0.15,5.2372,24.291400000000003,-33.7014,0,1,0,100.0
11,53.0,1,20.0,1.0,6,2,-3.9131999999999993,-0.004630000000000001,0.012400000000000093,0.56772,35.0,28.14,0,19.0,2160.0,9.0,-1.0815000000000001,-0.02,-1.03,-0.15,4.850799999999998,25.587100000000007,-33.6321,0,1,0,100.0
11,54.0,1,20.0,1.0,6,2,-3.8375999999999997,-0.0048400000000000006,0.02920000000000005,0.55596,35.0,28.14,0,19.0,2160.0,9.0,-1.092,-0.02,-1.03,-0.15,4.464399999999999,26.882800000000003,-33.562799999999996,0,1,0,100.0
11,55.0,1,20.0,0.9,6,2,-3.358,-0.004,0.0401,0.4828,35.0,28.14,0,18.9,2160.0,9.0,-1.718,-0.032,-1.03,-0.139,2.205,35.596000000000004,-30.913999999999998,0,1,0,100.0
11,56.0,1,20.0,0.47999999999999826,6,2,-3.181599999999999,-0.004,0.05732000000000007,0.47356,35.0,28.14,0,18.479999999999997,2160.0,9.0,-2.171600000000002,-0.04040000000000003,-1.03,-0.1348,1.5119999999999973,38.603200000000015,-29.16679999999999,0,1,0,100.0
11,57.0,1,20.0,0.05999999999999938,6,2,-3.0052,-0.004,0.07454000000000002,0.46432,35.0,28.14,0,18.06,2160.0,9.0,-2.6252000000000004,-0.04880000000000002,-1.03,-0.1306,0.8189999999999991,41.610400000000006,-27.4196,0,1,0,100.0
11,58.0,1,20.0,0.12000000000000076,6,2,-2.9283999999999994,-0.004,0.07519999999999999,0.4458399999999999,35.0,28.14,0,18.12,2160.0,9.0,-2.8880000000000012,-0.05360000000000002,-1.03,-0.13,0.5459999999999989,42.799600000000005,-26.460799999999995,0,1,0,100.0
11,59.0,1,20.0,0.2600000000000004,6,2,-2.8682,-0.004,0.0731,0.42582,35.0,28.14,0,18.26,2160.0,9.0,-3.1190000000000007,-0.05780000000000001,-1.03,-0.13,0.3429999999999994,43.6858,-25.633399999999998,0,1,0,100.0
11,60.0,1,20.0,0.4,6,2,-2.808,-0.004,0.071,0.4058,35.0,28.14,0,18.4,2160.0,9.0,-3.35,-0.062,-1.03,-0.13,0.13999999999999999,44.571999999999996,-24.806,0,1,0,100.0
11,61.0,1,20.0,0.5399999999999996,6,2,-2.7478000000000002,-0.004,0.0689,0.38578000000000007,35.0,28.14,0,18.54,2160.0,9.0,-3.5809999999999995,-0.0662,-1.03,-0.13,-0.06299999999999946,45.4582,-23.978600000000004,0,1,0,100.0
11,62.0,1,20.0,0.6800000000000012,6,2,-2.6875999999999993,-0.004,0.06679999999999998,0.36575999999999986,35.0,28.14,0,18.68,2160.0,9.0,-3.8120000000000016,-0.07040000000000003,-1.03,-0.13,-0.2660000000000017,46.34440000000001,-23.151199999999996,0,1,0,100.0
11,63.0,1,20.0,0.8200000000000007,6,2,-2.6273999999999997,-0.004,0.0647,0.3457399999999999,35.0,28.14,0,18.82,2160.0,9.0,-4.043000000000001,-0.07460000000000003,-1.03,-0.13,-0.4690000000000011,47.2306,-22.3238,0,1,0,100.0
11,64.0,1,20.0,0.9600000000000004,6,2,-2.5671999999999997,-0.004,0.06259999999999999,0.32571999999999995,35.0,28.14,0,18.96,2160.0,9.0,-4.274000000000001,-0.07880000000000001,-1.03,-0.13,-0.6720000000000006,48.1168,-21.496399999999998,0,1,0,100.0
11,65.0,1,20.0,0.85,6,2,-1.5825,-0.003,0.0555,0.29455,35.0,28.1295,0,19.0,2160.0,10.0,-9.053,-0.166,-1.03,-0.12,-3.0925,54.3,-5.0175,0,1,0,100.0
11,66.0,1,20.0,0.6400000000000006,6,2,-1.4880000000000002,-0.003,0.05759999999999999,0.30651999999999996,35.0,28.1148,0,19.0,2160.0,10.0,-9.5192,-0.17439999999999997,-1.03,-0.12,-3.2499999999999996,54.006,-3.390000000000004,0,1,0,100.0
11,67.0,1,20.0,0.4299999999999983,1,6,-1.393499999999999,-0.003,0.05970000000000002,0.3184900000000001,35.0,28.1001,0,19.0,2160.0,10.0,-9.985400000000004,-0.18280000000000007,-1.03,-0.12,-3.407500000000001,53.711999999999996,-1.7624999999999864,0,1,0,100.0
11,68.0,1,20.0,0.2199999999999988,1,6,-1.2989999999999995,-0.003,0.061800000000000015,0.3304600000000001,35.0,28.0854,0,19.0,2160.0,10.0,-10.451600000000003,-0.19120000000000006,-1.03,-0.12,-3.565000000000001,53.418,-0.13499999999999074,0,1,0,100.0
11,69.0,1,20.0,0.009999999999999377,1,6,-1.2044999999999997,-0.003,0.06390000000000001,0.34243000000000007,35.0,28.0707,0,19.0,2160.0,10.0,-10.917800000000002,-0.19960000000000003,-1.03,-0.12,-3.7225000000000006,53.123999999999995,1.4925000000000048,0,1,0,100.0
11,70.0,1,20.0,0.0,1,6,-1.032,0.012200000000000003,1.3896000000000002,0.7854000000000001,35.0,28.058,0,19.0,2160.0,10.0,-11.688,-0.216,-1.03,-0.12,-3.8939999999999997,51.366,4.362,0,1,0,100.0
11,71.0,1,20.0,0.0,1,6,-0.8556000000000005,0.02815999999999996,2.7814799999999966,1.2499199999999988,35.0,28.0454,0,19.0,2160.0,10.0,-12.473399999999998,-0.23279999999999995,-1.03,-0.12,-4.066199999999999,49.534800000000004,7.2935999999999925,0,1,0,100.0
11,72.0,1,20.0,0.0,1,6,-0.34919999999999946,0.08768000000000006,2.9025599999999994,2.040960000000001,35.0,27.9652,0,19.0,2160.0,10.0,-14.220400000000001,-0.26120000000000004,-1.04,-0.13,-4.1499999999999995,40.951199999999986,14.987600000000008,0,1,0,100.0
11,73.0,1,20.0,0.0,1,6,-0.2777999999999996,0.09587000000000005,2.8160399999999997,2.1476400000000004,35.0,27.956799999999998,0,19.0,2160.0,10.0,-14.3611,-0.26330000000000003,-1.04,-0.13,-4.097499999999999,39.22079999999999,15.980900000000005,0,1,0,100.0
11,74.0,1,20.0,0.0,1,6,-0.2063999999999998,0.10406000000000003,2.72952,2.2543200000000003,35.0,27.9484,0,19.0,2160.0,10.0,-14.501800000000001,-0.2654,-1.04,-0.13,-4.045,37.490399999999994,16.974200000000003,0,1,0,100.0
11,75.0,1,20.0,0.0,1,6,-0.135,0.11225,2.643,2.3609999999999998,35.0,27.939999999999998,0,19.0,2160.0,10.0,-14.6425,-0.2675,-1.04,-0.13,-3.9925,35.76,17.967499999999998,0,1,0,100.0
11,76.0,1,20.0,0.0,1,6,-0.06360000000000018,0.12043999999999998,2.55648,2.4676799999999997,35.0,27.9316,0,19.0,2160.0,10.0,-14.7832,-0.2696,-1.04,-0.13,-3.9400000000000004,34.02960000000001,18.960799999999995,0,1,0,100.0
11,77.0,1,20.0,0.0,1,6,-0.0023999999999995184,0.12778000000000006,2.451259999999999,2.5327100000000002,35.0,27.9249,0,19.0,2160.0,10.0,-14.81,-0.27,-1.04,-0.1317,-3.8653999999999993,32.266899999999985,19.792600000000004,0,1,0,100.0
11,78.0,1,20.0,0.0,1,6,0.05640000000000033,0.13492000000000004,2.3416399999999995,2.58794,35.0,27.918599999999998,0,19.0,2160.0,10.0,-14.81,-0.27,-1.04,-0.13380000000000003,-3.7855999999999996,30.496599999999994,20.586400000000005,0,1,0,100.0
11,79.0,1,20.0,0.0,1,6,0.11520000000000018,0.14206000000000002,2.2320199999999994,2.64317,35.0,27.9123,0,19.0,2160.0,10.0,-14.81,-0.27,-1.04,-0.13590000000000002,-3.7057999999999995,28.726299999999995,21.380200000000002,0,1,0,100.0
11,80.0,1,20.0,0.0,1,6,0.17400000000000004,0.1492,2.1224,2.6984,35.0,27.906,0,19.0,2160.0,10.0,-14.81,-0.27,-1.04,-0.138,-3.626,26.956,22.174,0,1,0,100.0
11,81.0,1,20.0,0.0,1,6,0.44239999999999985,0.18243999999999996,1.6072000000000004,3.29712,35.0,27.899199999999997,0,19.0,2160.0,10.0,-14.136600000000001,-0.25960000000000005,-1.04,-0.1402,-3.27,17.791000000000004,26.051999999999996,0,1,0,100.0
11,82.0,1,20.0,0.0,1,6,0.49280000000000046,0.19168000000000007,1.5063999999999993,3.3836400000000006,35.0,27.8824,0,19.0,2160.0,10.0,-13.645199999999996,-0.2511999999999999,-1.04,-0.14440000000000003,-3.27,15.501999999999981,27.14400000000001,0,1,0,100.0
11,83.0,1,20.0,0.0,1,6,0.5432000000000003,0.20092000000000004,1.4055999999999995,3.470160000000001,35.0,27.8656,0,19.0,2160.0,10.0,-13.153799999999997,-0.24279999999999996,-1.04,-0.1486,-3.27,13.212999999999987,28.236000000000008,0,1,0,100.0
11,84.0,1,20.0,0.0,1,6,0.596,0.22492,1.01456,3.92068,35.0,27.8188,0,19.0,2160.0,10.0,-10.891999999999998,-0.19879999999999995,-1.0372000000000001,-0.15280000000000002,-3.8684000000000007,8.846,31.427200000000003,0,1,0,100.0
11,85.0,1,20.0,0.0,1,6,0.5750000000000001,0.2308,0.9314,4.0177,35.0,27.802,0,19.0,2160.0,10.0,-10.115,-0.182,-1.033,-0.157,-4.196,8.3,32.263,0,1,0,100.0
11,86.0,1,20.0,0.0,1,6,0.5528000000000001,0.23565999999999998,0.8611400000000001,4.096959999999999,35.0,27.79,0,19.0,2160.0,10.0,-9.439400000000001,-0.16820000000000002,-1.03,-0.1606,-4.497799999999999,7.9106000000000005,32.9602,0,1,0,100.0
11,87.0,1,20.0,0.0,1,6,0.5275999999999998,0.23797000000000001,0.8231299999999997,4.13182,35.0,27.79,0,19.0,2160.0,10.0,-9.017299999999997,-0.16189999999999996,-1.03,-0.1627,-4.735100000000002,7.9127,33.310900000000004,0,1,0,100.0
11,88.0,1,20.0,0.0,1,6,0.5023999999999998,0.24028,0.7851199999999998,4.16668,35.0,27.79,0,19.0,2160.0,10.0,-8.595199999999998,-0.1556,-1.03,-0.16480000000000003,-4.972400000000001,7.9148,33.6616,0,1,0,100.0
11,89.0,1,20.0,0.0,1,6,0.47719999999999996,0.24259,0.7471099999999998,4.2015400000000005,35.0,27.79,0,19.0,2160.0,10.0,-8.173099999999998,-0.1493,-1.03,-0.16690000000000002,-5.209700000000001,7.9169,34.0123,0,1,0,100.0
11,90.0,1,20.0,0.0,1,6,0.452,0.2449,0.7091,4.2364,35.0,27.79,0,19.0,2160.0,10.0,-7.7509999999999994,-0.14300000000000002,-1.03,-0.169,-5.446999999999999,7.919,34.363,0,1,0,100.0
11,91.0,1,20.0,0.0,1,6,0.16620000000000032,0.25654,0.46942000000000017,4.48756,35.0,27.7512,0,19.0,2160.0,10.0,-5.001400000000002,-0.09120000000000004,-1.0178,-0.17,-7.241199999999998,8.643199999999998,35.9572,0,1,0,100.0
11,92.0,1,20.0,0.0,1,6,0.04439999999999899,0.25948000000000004,0.4110399999999995,4.549720000000001,35.0,27.7344,0,19.0,2160.0,10.0,-4.106799999999993,-0.07439999999999987,-1.0136,-0.17,-7.854400000000005,8.878400000000001,36.2764,0,1,0,100.0
11,93.0,1,20.0,0.0,1,6,-0.07020000000000039,0.26212,0.3553599999999998,4.613020000000001,35.0,27.72,0,19.0,2160.0,10.0,-3.2751999999999972,-0.05879999999999995,-1.0097,-0.17,-8.423500000000002,9.085700000000001,36.556599999999996,0,1,0,100.0
11,94.0,1,20.0,0.0,1,6,-0.1416000000000002,0.26296,0.3158799999999999,4.68316,35.0,27.72,0,19.0,2160.0,10.0,-2.8215999999999988,-0.05039999999999998,-1.0076,-0.17,-8.728000000000002,9.1256,36.6028,0,1,0,100.0
11,95.0,1,20.0,0.0,1,6,-0.21300000000000002,0.26380000000000003,0.2764,4.7533,35.0,27.72,0,19.0,2160.0,10.0,-2.368,-0.042,-1.0055,-0.17,-9.0325,9.1655,36.649,0,1,0,100.0
11,96.0,1,20.0,0.0,1,6,-0.28440000000000076,0.26464000000000004,0.23691999999999955,4.823440000000001,35.0,27.72,0,19.0,2160.0,10.0,-1.9143999999999948,-0.033599999999999915,-1.0034,-0.17,-9.337000000000003,9.205400000000001,36.6952,0,1,0,100.0
11,97.0,1,20.0,0.0,1,6,-0.3558000000000006,0.26548,0.19743999999999967,4.893580000000001,35.0,27.72,0,19.0,2160.0,10.0,-1.4607999999999959,-0.025199999999999938,-1.0013,-0.17,-9.641500000000002,9.2453,36.741400000000006,0,1,0,100.0
11,98.0,1,20.0,0.0,1,6,-0.46560000000000096,0.26648,0.16547999999999988,4.9611600000000005,35.0,27.7152,0,19.0,2160.0,10.0,-0.831199999999995,-0.013599999999999909,-0.9984,-0.17,-10.052400000000004,9.2348,36.714,0,1,0,100.0
11,99.0,1,20.0,0.0,3,7,-0.6378000000000005,0.26774000000000003,0.14573999999999995,5.02458,35.0,27.7026,0,19.0,2160.0,10.0,0.08440000000000238,0.0032000000000000457,-0.9942,-0.17,-10.636200000000002,9.1424,36.567,0,1,0,100.0
11,100.0,1,20.0,0.0,3,7,-0.81,0.269,0.126,5.088,35.0,27.69,0,19.0,2160.0,10.0,1.0,0.02,-0.99,-0.17,-11.22,9.05,36.42,0,1,0,100.0
15,0.0,1,20.0,0.0,0,1,-10.74,-0.252,0.045,0.0,34.0,28.18,0,9.0,2160.0,11.0,-6.34,-0.12,-1.06,-0.1,-7.32,-14.66,1.98,0,1,0,100.0
15,1.0,1,20.0,0.0,0,1,-10.8093,-0.252,-0.014220000000000002,0.0,34.0,28.18,0,9.0,2160.0,11.0,-6.6613,-0.1263,-1.06,-0.1,-6.7089,-14.0048,1.7091,0,1,0,100.0
15,2.0,1,20.0,0.08666666666666666,0,1,-10.856933333333332,-0.25165333333333334,0.0020466666666666645,0.0,34.0,28.18,0,9.086666666666666,2160.0,11.0,-6.900266666666666,-0.13086666666666666,-1.0591333333333335,-0.10086666666666667,-6.272866666666666,-13.515133333333333,1.5196666666666667,0,1,0,100.0
15,3.0,1,20.0,0.29666666666666663,0,1,-10.873733333333332,-0.25081333333333333,0.12573666666666666,0.0,34.0,28.18,0,9.296666666666667,2160.0,11.0,-7.0220666666666665,-0.13296666666666668,-1.0570333333333335,-0.10296666666666666,-6.085966666666667,-13.261033333333334,1.4461666666666666,0,1,0,100.0
15,4.0,1,20.0,0.5066666666666666,0,1,-10.890533333333334,-0.24997333333333333,0.24942666666666669,0.0,34.0,28.18,0,9.506666666666666,2160.0,11.0,-7.143866666666666,-0.13506666666666667,-1.0549333333333333,-0.10506666666666667,-5.899066666666666,-13.006933333333333,1.3726666666666667,0,1,0,100.0
15,5.0,1,20.0,0.7166666666666667,0,1,-10.907333333333334,-0.24913333333333335,0.3731166666666667,0.0,34.0,28.18,0,9.716666666666667,2160.0,11.0,-7.265666666666666,-0.1371666666666667,-1.0528333333333333,-0.10716666666666667,-5.712166666666667,-12.752833333333333,1.2991666666666666,0,1,0,100.0
15,6.0,1,20.0,0.9266666666666665,0,1,-10.924133333333334,-0.24829333333333334,0.4968066666666667,0.0,34.0,28.18,0,9.926666666666666,2160.0,11.0,-7.387466666666667,-0.13926666666666668,-1.0507333333333333,-0.10926666666666666,-5.525266666666667,-12.498733333333334,1.2256666666666667,0,1,0,100.0
15,7.0,1,20.0,0.0,0,1,-11.05615,-0.221335,0.8282799999999999,0.0,34.0,28.1718,0,9.0,2160.0,11.0,-8.92145,-0.16205,-1.03795,-0.13205,-3.88725,-9.722449999999998,-0.4567500000000001,0,1,0,100.0
15,8.0,1,20.0,0.0,0,1,-11.0656,-0.21724,0.83332,0.0,34.0,28.1592,0,9.0,2160.0,11.0,-9.1388,-0.1652,-1.0348,-0.13520000000000001,-3.714,-9.3728,-0.8819999999999999,0,1,0,100.0
15,9.0,1,20.0,0.0,0,1,-11.075050000000001,-0.213145,0.83836,0.0,34.0,28.1466,0,9.0,2160.0,11.0,-9.35615,-0.16835,-1.03165,-0.13835,-3.5407500000000005,-9.02315,-1.3072499999999998,0,1,0,100.0
15,10.0,1,20.0,0.0,0,1,-11.086,-0.208,0.7573,0.0,34.0,28.152,0,9.0,2160.0,11.0,-9.665000000000001,-0.17300000000000001,-1.0270000000000001,-0.14300000000000002,-3.315,-8.543,-2.067,0,1,0,100.0
15,11.0,1,20.0,0.0,0,1,-11.0986,-0.20170000000000002,0.5815300000000001,0.0,34.0,28.1772,0,9.0,2160.0,11.0,-10.074499999999999,-0.1793,-1.0207,-0.1493,-3.0315000000000003,-7.9193,-3.1946999999999997,0,1,0,100.0
15,12.0,1,20.0,0.0,0,1,-11.1,-0.1892,0.6346,0.0,34.0,28.1688,0,9.0,2160.0,11.0,-10.803199999999999,-0.1928,-1.0072,-0.16,-2.5192,-6.7544,-6.0996,0,1,0,100.0
15,13.0,1,20.0,0.0,0,1,-11.1,-0.18605,0.6409,0.0,34.0,28.156200000000002,0,9.0,2160.0,11.0,-10.941799999999999,-0.19595,-1.00405,-0.16,-2.4058,-6.51185,-6.830399999999999,0,1,0,100.0
15,14.0,1,20.0,0.0,0,1,-11.1,-0.1829,0.6472,0.0,34.0,28.1436,0,9.0,2160.0,11.0,-11.0804,-0.1991,-1.0009,-0.16,-2.2923999999999998,-6.2693,-7.5611999999999995,0,1,0,100.0
15,15.0,1,20.0,0.0,0,1,-11.0665,-0.1733,0.4354,0.0,34.0,28.18,0,9.0,2160.0,11.0,-11.506499999999999,-0.2,-0.9955,-0.17450000000000002,-1.738,-5.2455,-11.062,0,1,0,100.0
15,16.0,1,20.0,0.0,0,1,-11.0484,-0.16972,0.51732,0.0,34.0,28.1784,0,9.0,2160.0,11.0,-11.602,-0.2,-0.99,-0.1804,-1.5252000000000001,-4.888,-12.3272,0,1,0,100.0
15,17.0,1,20.0,0.0,0,1,-11.0358,-0.16751500000000002,0.50409,0.0,34.0,28.1658,0,9.0,2160.0,11.0,-11.61775,-0.2,-0.99,-0.18355,-1.4086500000000002,-4.71475,-12.93515,0,1,0,100.0
15,18.0,1,20.0,0.0,0,1,-11.023200000000001,-0.16531,0.49086,0.0,34.0,28.153200000000002,0,9.0,2160.0,11.0,-11.6335,-0.2,-0.99,-0.1867,-1.2921,-4.5415,-13.543099999999999,0,1,0,100.0
15,19.0,1,20.0,0.0,0,1,-11.0106,-0.163105,0.47762999999999994,0.0,34.0,28.1406,0,9.0,2160.0,11.0,-11.64925,-0.2,-0.99,-0.18985,-1.1755499999999999,-4.368250000000001,-14.15105,0,1,0,100.0
15,20.0,1,20.0,0.0,0,1,-10.974,-0.1588,0.3468,0.0,34.0,28.164,0,9.0,2160.0,11.0,-11.62,-0.2,-0.99,-0.19,-0.948,-4.078,-15.145999999999999,0,1,0,100.0
15,21.0,1,20.0,0.0,0,1,-10.86965,-0.152425,0.2973149999999999,0.0,34.0,28.18,0,9.0,2160.0,11.0,-11.4247,-0.19885000000000003,-0.98,-0.2,-0.35055000000000036,-3.39515,-17.15465,0,1,0,100.0
15,22.0,1,20.0,0.0,0,1,-10.8413,-0.15084999999999998,0.32282999999999995,0.0,34.0,28.18,0,9.0,2160.0,11.0,-11.3554,-0.1957,-0.98,-0.2,-0.21510000000000012,-3.2723,-17.441300000000002,0,1,0,100.0
15,23.0,1,20.0,0.0,0,1,-10.812949999999999,-0.149275,0.348345,0.0,34.0,28.18,0,9.0,2160.0,11.0,-11.2861,-0.19255,-0.98,-0.2,-0.07964999999999987,-3.14945,-17.72795,0,1,0,100.0
15,24.0,1,20.0,0.0,0,1,-10.6656,-0.14028,0.38571999999999995,0.0,34.0,28.18,0,9.0,2160.0,11.0,-10.9116,-0.18880000000000002,-0.98,-0.2012,0.5611999999999995,-2.6752000000000002,-18.612,0,1,0,100.0
15,25.0,1,20.0,0.0,0,1,-10.59,-0.1365,0.40525,0.0,34.0,28.18,0,9.0,2160.0,11.0,-10.71,-0.1825,-0.98,-0.2075,0.8825000000000001,-2.4924999999999997,-18.832500000000003,0,1,0,100.0
15,26.0,1,20.0,0.0,0,1,-10.531500000000001,-0.13405,0.3637900000000002,0.0,34.0,28.1724,0,9.0,2160.0,11.0,-10.5654,-0.18,-0.98,-0.21,1.1163999999999996,-2.3687,-18.9466,0,1,0,100.0
15,27.0,1,20.0,0.0,0,1,-10.484250000000001,-0.132475,0.28220500000000004,0.0,34.0,28.1598,0,9.0,2160.0,11.0,-10.4583,-0.18,-0.98,-0.21,1.2928,-2.28365,-18.9907,0,1,0,100.0
15,28.0,1,20.0,0.0,0,1,-10.437,-0.13090000000000002,0.2006199999999999,0.0,34.0,28.1472,0,9.0,2160.0,11.0,-10.351199999999999,-0.18,-0.98,-0.21,1.4692000000000003,-2.1986,-19.0348,0,1,0,100.0
15,29.0,1,20.0,0.0,0,1,-10.3668,-0.12892,0.19827999999999982,0.0,34.0,28.1508,0,9.0,2160.0,11.0,-10.1955,-0.1773,-0.98,-0.21,1.7319999999999993,-2.0825,-19.0519,0,1,0,100.0
15,30.0,1,20.0,0.0,0,1,-10.266,-0.1264,0.30160000000000003,0.0,34.0,28.176,0,9.0,2160.0,11.0,-9.975,-0.171,-0.98,-0.21,2.11,-1.9249999999999998,-19.033,0,1,0,100.0
15,31.0,1,20.0,0.0,0,1,-10.1546,-0.12229000000000001,0.45367999999999953,0.0,34.0,28.18,0,9.0,2160.0,11.0,-9.7545,-0.17,-0.98,-0.21,2.503899999999999,-1.7887000000000002,-18.971700000000002,0,1,0,100.0
15,32.0,1,20.0,0.0,0,1,-10.038,-0.11772,0.55272,0.0,34.0,28.18,0,9.0,2160.0,11.0,-9.5356,-0.16840000000000002,-0.98,-0.21,2.9055999999999993,-1.6628,-18.9024,0,1,0,100.0
15,33.0,1,20.0,0.0,0,1,-9.911999999999999,-0.11268,0.4689299999999999,0.0,34.0,28.18,0,9.0,2160.0,11.0,-9.3214,-0.1621,-0.98,-0.21,3.3214,-1.5556999999999999,-18.833099999999998,0,1,0,100.0
15,34.0,1,20.0,0.0,0,1,-9.5492,-0.1029,0.34514000000000017,0.0,34.0,28.18,0,9.0,2160.0,11.0,-8.7856,-0.15,-0.98,-0.21,4.415599999999999,-1.3138,-18.7316,0,1,0,100.0
15,35.0,1,20.0,0.0,0,1,-9.404,-0.09985000000000001,0.27455,0.0,34.0,28.18,0,9.0,2160.0,11.0,-8.591999999999999,-0.14975,-0.98,-0.21,4.827249999999999,-1.24825,-18.721,0,1,0,100.0
15,36.0,1,20.0,0.0,0,1,-9.3284,-0.09796,0.3570799999999998,0.0,34.0,28.18,0,9.0,2160.0,11.0,-8.4912,-0.1466,-0.98,-0.21,5.044599999999999,-1.2262,-18.7336,0,1,0,100.0
15,37.0,1,20.0,0.0,0,1,-9.2528,-0.09607,0.43960999999999995,0.0,34.0,28.18,0,9.0,2160.0,11.0,-8.3904,-0.14345000000000002,-0.98,-0.21,5.26195,-1.20415,-18.7462,0,1,0,100.0
15,38.0,1,20.0,0.0,0,1,-9.1772,-0.09418,0.52214,0.0,34.0,28.18,0,9.0,2160.0,11.0,-8.2896,-0.1403,-0.98,-0.21,5.4793,-1.1821,-18.7588,0,1,0,100.0
15,39.0,1,20.0,0.4300000000000011,0,1,-8.7504,-0.08315,0.3780700000000001,0.0,34.0,28.18,0,9.430000000000001,2160.0,11.0,-7.756200000000001,-0.13430000000000003,-0.98,-0.21,6.654599999999999,-1.1770999999999998,-18.9612,0,1,0,100.0
15,40.0,1,20.0,0.0,0,1,-8.602,-0.0806,0.3508,0.0,34.0,28.176,0,9.0,2160.0,11.0,-7.575,-0.13,-0.98,-0.21,7.074,-1.197,-19.045,0,1,0,100.0
15,41.0,1,20.0,0.0,0,1,-8.5138,-0.07934,0.33126999999999995,0.0,34.0,28.1634,0,9.0,2160.0,11.0,-7.4647499999999996,-0.13,-0.98,-0.21,7.3386000000000005,-1.21905,-19.09225,0,1,0,100.0
15,42.0,1,20.0,0.0,0,1,-8.425600000000001,-0.07808000000000001,0.3117400000000001,0.0,34.0,28.1508,0,9.0,2160.0,11.0,-7.354500000000001,-0.13,-0.98,-0.21,7.603199999999998,-1.2410999999999999,-19.139499999999998,0,1,0,100.0
15,43.0,1,20.0,0.0,0,1,-8.3239,-0.07664000000000001,0.29086000000000006,0.0,34.0,28.1436,0,9.0,2160.0,11.0,-7.2258000000000004,-0.12910000000000002,-0.98,-0.21,7.912799999999998,-1.2680999999999998,-19.1872,0,1,0,100.0
15,44.0,1,20.0,0.0,0,1,-8.141200000000001,-0.07412,0.26188000000000006,0.0,34.0,28.1688,0,9.0,2160.0,11.0,-6.986400000000001,-0.1228,-0.98,-0.21,8.492399999999998,-1.3248,-19.2376,0,1,0,100.0
15,45.0,1,20.0,0.0,0,1,-7.9585,-0.07229999999999999,0.1979,0.0,34.0,28.18,0,9.0,2160.0,11.0,-6.74,-0.11649999999999999,-0.98,-0.21,9.086,-1.3815,-19.2495,0,1,0,100.0
15,46.0,1,20.0,0.0,0,1,-7.775799999999999,-0.07103999999999999,0.10591999999999982,0.0,34.0,28.18,0,9.0,2160.0,11.0,-6.4879999999999995,-0.11019999999999999,-0.98,-0.21,9.690800000000001,-1.4382000000000001,-19.2306,0,1,0,100.0
15,47.0,1,20.0,0.0,0,1,-7.580900000000001,-0.06917000000000001,0.1902299999999995,0.0,34.0,28.18,0,9.0,2160.0,11.0,-6.2238000000000016,-0.10390000000000003,-0.9861,-0.20390000000000003,10.289499999999997,-1.4887999999999997,-19.1141,0,1,0,100.0
15,48.0,1,20.0,0.0,0,1,-7.0756000000000006,-0.06576,0.06864000000000026,0.0,34.0,28.18,0,9.0,2160.0,11.0,-5.516800000000001,-0.09760000000000002,-0.99,-0.2,11.771599999999998,-1.5896,-18.538000000000004,0,1,0,100.0
15,49.0,1,20.0,0.0,0,1,-6.8803,-0.06513000000000001,-0.003179999999999872,0.0,34.0,28.18,0,9.0,2160.0,11.0,-5.245900000000001,-0.0913,-0.99,-0.2,12.300799999999999,-1.6148,-18.1915,0,1,0,100.0
15,50.0,1,20.0,0.0,0,1,-6.76,-0.06475,0.011750000000000003,0.0,34.0,28.18,0,9.0,2160.0,11.0,-5.0825000000000005,-0.0875,-0.99,-0.1975,12.6,-1.6225,-17.94,0,1,0,100.0
15,51.0,1,20.0,0.0,0,1,-6.659199999999999,-0.064435,0.04923500000000007,0.0,34.0,28.18,0,9.0,2160.0,11.0,-4.94705,-0.08435,-0.99,-0.19435,12.839400000000001,-1.62565,-17.7132,0,1,0,100.0
15,52.0,1,20.0,0.0,0,1,-6.5584,-0.06412,0.08671999999999981,0.0,34.0,28.18,0,9.0,2160.0,11.0,-4.8116,-0.08120000000000002,-0.99,-0.1912,13.0788,-1.6287999999999998,-17.4864,0,1,0,100.0
15,53.0,1,20.0,0.0,0,1,-6.075200000000001,-0.06083,0.1975199999999996,0.0,34.0,28.18,0,9.0,2160.0,11.0,-4.197900000000001,-0.07610000000000003,-0.99,-0.18610000000000002,14.056199999999999,-1.5944000000000003,-16.270200000000003,0,1,0,100.0
15,54.0,1,20.0,0.0,0,1,-5.8778,-0.05898,0.29968666666666666,0.0,34.0,28.18,0,9.0,2160.0,11.0,-3.957666666666667,-0.06993333333333335,-0.99,-0.18,14.413266666666667,-1.5698,-15.764666666666667,0,1,0,100.0
15,55.0,1,20.0,0.0,0,1,-5.8084999999999996,-0.05835,0.28981666666666667,0.0,34.0,28.18,0,9.0,2160.0,11.0,-3.8841666666666668,-0.06783333333333334,-0.99,-0.18,14.516166666666667,-1.5635000000000001,-15.596666666666666,0,1,0,100.0
15,56.0,1,20.0,0.0,0,1,-5.739199999999999,-0.05772,0.2799466666666666,0.0,34.0,28.18,0,9.0,2160.0,11.0,-3.8106666666666666,-0.06573333333333334,-0.99,-0.18,14.619066666666667,-1.5572000000000001,-15.428666666666667,0,1,0,100.0
15,57.0,1,20.0,0.0,6,2,-5.6699,-0.05709,0.27007666666666674,0.0,34.0,28.18,0,9.0,2160.0,11.0,-3.737166666666667,-0.06363333333333335,-0.99,-0.18,14.721966666666667,-1.5509000000000002,-15.260666666666667,0,1,0,100.0
15,58.0,1,20.0,0.0,6,2,-5.6006,-0.05646,0.2602066666666667,0.0,34.0,28.18,0,9.0,2160.0,11.0,-3.663666666666667,-0.06153333333333334,-0.99,-0.18,14.824866666666667,-1.5446,-15.092666666666668,0,1,0,100.0
15,59.0,1,20.0,0.08499999999999944,6,2,-4.8828000000000005,-0.03389500000000001,1.1514450000000005,0.7733849999999999,34.0,28.11,0,18.085,2160.0,11.0,-3.00875,-0.05,-0.99,-0.16,15.706349999999999,-1.54255,-14.2736,0,1,0,100.0
15,60.0,1,20.0,0.4,6,2,-4.782,-0.0298,0.9678,0.8304,34.0,28.11,0,18.4,2160.0,11.0,-2.9299999999999997,-0.05,-0.99,-0.16,15.804,-1.552,-14.324,0,1,0,100.0
15,61.0,1,20.0,0.7150000000000006,6,2,-4.6812,-0.025704999999999992,0.7841549999999997,0.8874150000000001,34.0,28.11,0,18.715,2160.0,11.0,-2.85125,-0.05,-0.99,-0.16,15.90165,-1.56145,-14.3744,0,1,0,100.0
15,62.0,1,20.0,1.0,6,2,-4.261400000000001,-0.014760000000000013,0.34414000000000045,1.1214200000000003,34.0,28.11,0,19.0,2160.0,11.0,-2.5368000000000004,-0.04,-0.99,-0.15,16.2868,-1.6012,-14.830599999999999,0,1,0,100.0
15,63.0,1,20.0,1.0,6,2,-4.0661000000000005,-0.012240000000000008,0.2616100000000003,1.0628300000000002,34.0,28.11,0,19.0,2160.0,11.0,-2.3982000000000006,-0.04,-0.99,-0.15,16.4632,-1.6138000000000001,-15.1519,0,1,0,100.0
15,64.0,1,20.0,1.0,6,2,-3.922,-0.01068,0.20548000000000005,1.00696,34.0,28.1148,0,19.0,2160.0,11.0,-2.2964,-0.04,-0.9916,-0.1484,16.5996,-1.6168,-15.3996,0,1,0,100.0
15,65.0,1,20.0,1.0,6,2,-3.8275,-0.01005,0.174925,0.953725,34.0,28.12425,0,19.0,2160.0,11.0,-2.2302500000000003,-0.04,-0.99475,-0.14525,16.69725,-1.6105,-15.576,0,1,0,100.0
15,66.0,1,20.0,1.0,6,2,-3.7329999999999997,-0.009419999999999998,0.14436999999999994,0.9004899999999999,34.0,28.1337,0,19.0,2160.0,11.0,-2.1641,-0.04,-0.9979,-0.1421,16.7949,-1.6042,-15.7524,0,1,0,100.0
15,67.0,1,20.0,1.0,6,2,-3.3490000000000006,-0.006930000000000001,0.1543300000000001,0.6966500000000001,34.0,28.14,0,19.0,2160.0,11.0,-1.8853000000000002,-0.03,-1.0,-0.13930000000000003,17.2373,-1.5160000000000002,-16.4585,0,1,0,100.0
15,68.0,1,20.0,1.0,6,2,-3.2860000000000005,-0.006720000000000001,0.13732000000000005,0.6746000000000001,34.0,28.14,0,19.0,2160.0,11.0,-1.8412000000000002,-0.03,-1.0,-0.13720000000000002,17.319200000000002,-1.4740000000000002,-16.574,0,1,0,100.0
15,69.0,1,20.0,1.0,6,2,-3.2230000000000003,-0.00651,0.12031000000000003,0.65255,34.0,28.14,0,19.0,2160.0,11.0,-1.7971,-0.03,-1.0,-0.13510000000000003,17.4011,-1.4320000000000002,-16.6895,0,1,0,100.0
15,70.0,1,20.0,1.0,6,2,-3.16,-0.0063,0.1033,0.6305,34.0,28.14,0,19.0,2160.0,11.0,-1.753,-0.03,-1.0,-0.133,17.483,-1.3900000000000001,-16.805,0,1,0,100.0
15,71.0,1,20.0,1.0,6,2,-3.0969999999999995,-0.00609,0.08628999999999996,0.6084499999999999,34.0,28.14,0,19.0,2160.0,11.0,-1.7088999999999999,-0.03,-1.0,-0.1309,17.5649,-1.348,-16.9205,0,1,0,100.0
15,72.0,1,20.0,1.0,6,2,-2.7352000000000003,-0.005,0.029359999999999997,0.5266000000000001,34.0,28.14,0,19.0,2160.0,11.0,-1.4300000000000002,-0.02880000000000001,-1.0012,-0.13,18.0532,-0.8572000000000007,-17.612,0,1,0,100.0
15,73.0,1,20.0,1.0,6,2,-2.6743,-0.005,0.02999,0.5119000000000001,34.0,28.14,0,19.0,2160.0,11.0,-1.3775000000000002,-0.02670000000000001,-1.0033,-0.13,18.128800000000002,-0.7123000000000005,-17.738,0,1,0,100.0
15,74.0,1,20.0,1.0,6,2,-2.6134,-0.005,0.03062,0.49720000000000003,34.0,28.14,0,19.0,2160.0,11.0,-1.325,-0.024600000000000004,-1.0054,-0.13,18.2044,-0.5674000000000002,-17.864,0,1,0,100.0
15,75.0,1,20.0,1.0,6,2,-2.5525,-0.005,0.03125,0.48250000000000004,34.0,28.14,0,19.0,2160.0,11.0,-1.2725,-0.0225,-1.0075,-0.13,18.28,-0.42249999999999993,-17.990000000000002,0,1,0,100.0
15,76.0,1,20.0,1.0,6,2,-2.4916,-0.005,0.03188,0.4678,34.0,28.14,0,19.0,2160.0,11.0,-1.22,-0.020399999999999998,-1.0096,-0.13,18.355600000000003,-0.2775999999999997,-18.116,0,1,0,100.0
15,77.0,1,20.0,1.0,6,2,-1.4470000000000012,-0.00752999999999999,-0.15290999999999985,1.040759999999999,34.0,28.1247,0,19.0,2160.0,11.0,0.028899999999998656,0.0,-1.02,-0.13,16.554200000000005,9.638699999999982,-20.692499999999995,0,1,0,100.0
15,78.0,1,20.0,1.0,6,2,-1.2790000000000004,-0.009069999999999998,-0.1612400000000002,1.17908,34.0,28.11,0,19.0,2160.0,11.0,0.24239999999999964,0.0006999999999999886,-1.0207,-0.13069999999999998,15.609200000000001,12.796399999999991,-21.0915,0,1,0,100.0
15,79.0,1,20.0,1.0,6,2,-1.1845,-0.009385,-0.10832000000000008,1.19294,34.0,28.11,0,19.0,2160.0,11.0,0.34319999999999984,0.0038499999999999945,-1.02385,-0.13385,14.8406,15.165199999999995,-21.233249999999998,0,1,0,100.0
15,80.0,1,20.0,1.0,6,2,-1.09,-0.0097,-0.05539999999999999,1.2067999999999999,34.0,28.11,0,19.0,2160.0,11.0,0.44400000000000006,0.007,-1.0270000000000001,-0.137,14.072,17.534,-21.375,0,1,0,100.0
15,81.0,1,20.0,1.0,6,2,-0.9906999999999997,-0.01,-0.004549999999999983,1.2178099999999998,34.0,28.11,0,19.0,2160.0,11.0,0.5421000000000001,0.01,-1.0297,-0.14030000000000004,13.237399999999996,20.086400000000012,-21.5001,0,1,0,100.0
15,82.0,1,20.0,1.0,6,2,-0.7953999999999992,-0.01,0.0049000000000000345,1.1718199999999999,34.0,28.11,0,19.0,2160.0,11.0,0.5862000000000002,0.01,-1.0234,-0.14660000000000004,11.082799999999992,26.31080000000002,-21.2922,0,1,0,100.0
15,83.0,1,20.0,1.0,6,2,-0.5972000000000007,-0.009710000000000002,0.005360000000000037,1.1252500000000003,34.0,28.1187,0,19.0,2160.0,11.0,0.5085000000000008,0.007100000000000023,-1.02,-0.15289999999999998,8.67590000000001,33.094899999999974,-20.707300000000004,0,1,0,100.0
15,84.0,1,20.0,1.0,6,2,-0.39560000000000217,-0.009080000000000006,-0.004719999999999891,1.0780000000000005,34.0,28.1376,0,19.0,2160.0,11.0,0.2880000000000024,0.0008000000000000682,-1.02,-0.15919999999999992,5.97320000000003,40.53519999999992,-19.680400000000013,0,1,0,100.0
15,85.0,1,20.0,1.0,6,2,-0.1995,-0.009,-0.03625,1.04945,34.0,28.14,0,19.0,2160.0,11.0,-0.22949999999999998,-0.0055,-1.0255,-0.1655,2.99,48.486999999999995,-17.8065,0,1,0,100.0
15,86.0,1,20.0,1.0,6,2,-0.0024000000000014518,-0.009,-0.04246000000000047,1.0211000000000001,34.0,28.14,0,19.0,2160.0,11.0,-0.8837999999999936,-0.015399999999999863,-1.03,-0.17,-0.035799999999978134,56.42139999999994,-15.54480000000002,0,1,0,100.0
15,87.0,1,20.0,1.0,6,2,0.19920000000000074,-0.009,0.022430000000000238,0.9864499999999998,34.0,28.14,0,19.0,2160.0,11.0,-1.7721000000000033,-0.03430000000000007,-1.03,-0.17,-3.0661000000000107,64.12630000000003,-12.62159999999999,0,1,0,100.0
15,88.0,1,20.0,1.0,6,2,0.6503999999999996,-0.008,0.018659999999999996,0.9179400000000001,34.0,28.1166,0,19.0,2160.0,11.219999999999999,-4.323199999999997,-0.07879999999999995,-1.03,-0.17,-9.255999999999995,78.189,-4.583000000000007,0,1,0,100.0
15,89.0,1,20.0,1.0,1,5,0.7511999999999989,-0.008,0.01960499999999999,0.9106950000000001,34.0,28.12605,0,19.0,2160.0,11.534999999999997,-4.972099999999993,-0.09139999999999987,-1.03,-0.17,-10.452999999999987,80.37824999999998,-2.582750000000022,0,1,0,100.0
15,90.0,1,20.0,1.0,1,5,0.852,-0.008,0.020550000000000002,0.90345,34.0,28.1355,0,19.0,2160.0,11.85,-5.6209999999999996,-0.104,-1.03,-0.17,-11.65,82.5675,-0.5825000000000004,0,1,0,100.0
15,91.0,1,20.0,0.0,1,5,1.2790999999999988,0.005209999999999831,1.1331199999999846,1.1486099999999957,34.0,28.026799999999998,0,19.0,2160.0,12.0,-8.607199999999992,-0.15319999999999984,-1.0267000000000002,-0.17,-15.99269999999999,85.55340000000001,8.461799999999975,0,1,0,100.0
15,92.0,1,20.0,0.0,1,6,1.4492000000000005,0.02852000000000008,3.2524400000000075,1.7263200000000019,34.0,28.0016,0,19.0,2160.0,12.0,-9.766400000000004,-0.1784000000000001,-1.0204,-0.17,-17.372400000000006,84.2808,11.901600000000013,0,1,0,100.0
15,93.0,1,20.0,0.0,1,6,1.5071999999999999,0.0392433333333333,3.3091200000000005,1.843043333333333,34.0,27.9941,0,19.0,2160.0,12.0,-10.127133333333333,-0.1839333333333333,-1.02,-0.16803333333333334,-17.7019,82.98263333333334,12.936166666666663,0,1,0,100.0
15,94.0,1,20.0,0.0,1,6,1.5575999999999994,0.049113333333333224,3.225960000000001,1.9285133333333324,34.0,27.9878,0,19.0,2160.0,12.0,-10.43373333333333,-0.1881333333333333,-1.02,-0.16593333333333338,-17.960199999999997,81.68273333333335,13.807666666666657,0,1,0,100.0
15,95.0,1,20.0,0.0,1,6,1.6079999999999999,0.05898333333333333,3.1428000000000003,2.0139833333333335,34.0,27.9815,0,19.0,2160.0,12.0,-10.740333333333334,-0.19233333333333333,-1.02,-0.16383333333333333,-18.218500000000002,80.38283333333334,14.679166666666665,0,1,0,100.0
15,96.0,1,20.0,0.0,1,6,1.6583999999999997,0.06885333333333327,3.059640000000001,2.0994533333333325,34.0,27.975199999999997,0,19.0,2160.0,12.0,-11.046933333333332,-0.1965333333333333,-1.02,-0.16173333333333334,-18.4768,79.08293333333334,15.55066666666666,0,1,0,100.0
