cycle_index,gait_percent,segment_id,walk_dt_ms,walk_exec_ms,walk_out,walk_state,walk_tilt_forward_deg,walk_pos_rad,walk_vel_rad_s,walk_tq_nm,walk_temp_c,walk_vbus_v,walk_err_code,walk_fb_age_ms,walk_typical_stride_ms,walk_effective_step_count,walk_tilt_accel_deg,walk_acc_x,walk_acc_y,walk_acc_z,walk_gyr_x,walk_gyr_y,walk_gyr_z,cfg_gait_model,cfg_gait_mode,cfg_side_is_left,cfg_assist_pct
3,0.0,2,20.0,0.0,0,1,-6.91,0.163,-4.905,2.818,33.0,28.25,0,19.0,0.0,2.0,7.72,0.13,-0.94,-0.16,-23.37,-12.44,2.79,0,1,0,100.0
3,1.0,2,20.0,0.0,0,1,-7.0486,0.10882000000000001,-5.6799,2.38015,33.0,28.25,0,19.0,0.0,2.0,6.1261,0.1048,-0.9589,-0.1537,-22.078500000000002,-14.493799999999998,3.2436,0,1,0,100.0
3,2.0,2,20.0,0.0,0,1,-7.1495,0.04905,-9.59729,1.8470100000000003,33.0,28.2357,0,18.09,0.0,2.0,4.841600000000001,0.0835,-0.9739,-0.1474,-21.0054,-16.2382,3.8909,0,1,0,100.0
3,3.0,2,20.0,0.0,0,1,-7.19675,-0.018674999999999994,-17.986685,1.1782650000000003,33.0,28.20105,0,15.885000000000002,0.0,2.0,3.9974000000000003,0.06775,-0.98335,-0.1411,-20.2431,-17.5423,4.8138499999999995,0,1,0,100.0
3,4.0,2,20.0,0.0,0,1,-7.244,-0.0864,-26.37608,0.5095200000000002,33.0,28.1664,0,13.68,0.0,2.0,3.1532,0.052000000000000005,-0.9928,-0.1348,-19.4808,-18.8464,5.7368,0,1,0,100.0
3,5.0,2,20.0,0.07500000000000001,0,1,-7.47375,-0.25285,0.144925,0.0,33.0,28.18,0,12.075,0.0,2.0,-2.12775,-0.04225,-1.04075,-0.10925,-13.89425,-28.0655,14.9385,0,1,0,100.0
3,6.0,2,20.0,0.3899999999999999,0,1,-7.4895,-0.25222,0.13201,0.0,33.0,28.18,0,12.39,0.0,2.0,-2.6222999999999996,-0.051699999999999996,-1.0439,-0.1061,-13.1981,-28.9286,15.940199999999999,0,1,0,100.0
3,7.0,2,20.0,0.7050000000000001,0,1,-7.505249999999999,-0.25159,0.11909499999999999,0.0,33.0,28.18,0,12.705,0.0,2.0,-3.11685,-0.06115000000000001,-1.04705,-0.10295,-12.501949999999999,-29.791700000000002,16.9419,0,1,0,100.0
3,8.0,2,20.0,0.9600000000000002,0,1,-7.521199999999999,-0.25084,0.1308399999999999,0.0,33.0,28.18,0,12.96,0.0,2.0,-3.624,-0.0708,-1.0508,-0.09960000000000001,-11.7676,-30.666800000000002,17.947599999999998,0,1,0,100.0
3,9.0,2,20.0,0.3300000000000004,0,1,-7.5401,-0.24832,0.5063199999999998,0.0,33.0,28.18,0,12.33,0.0,2.0,-4.316999999999999,-0.08339999999999999,-1.0634000000000001,-0.09330000000000001,-10.469800000000001,-31.7189,19.0123,0,1,0,100.0
3,10.0,2,20.0,1.0,0,1,-7.573,-0.23495,0.6415,0.0,33.0,28.18,0,13.0,0.0,2.0,-5.417000000000001,-0.1015,-1.08,-0.09,-7.6395,-32.812999999999995,19.578,0,1,0,100.0
3,11.0,2,20.0,1.0,0,1,-7.5793,-0.232745,0.53755,0.0,33.0,28.18,0,13.0,0.0,2.0,-5.536700000000001,-0.10465,-1.08,-0.09,-7.11345,-32.6933,19.2378,0,1,0,100.0
3,12.0,2,20.0,1.0,0,1,-7.5856,-0.23054,0.4336000000000001,0.0,33.0,28.18,0,13.0,0.0,2.0,-5.6564000000000005,-0.10779999999999999,-1.08,-0.09,-6.587400000000001,-32.5736,18.8976,0,1,0,100.0
3,13.0,2,20.0,1.0,0,1,-7.5976,-0.22843000000000002,0.3269900000000001,0.0,33.0,28.18,0,13.0,0.0,2.0,-5.7704,-0.11,-1.0819,-0.09,-5.957800000000001,-32.262,18.300900000000002,0,1,0,100.0
3,14.0,2,20.0,1.0,0,1,-7.6228,-0.22654000000000002,0.21421999999999994,0.0,33.0,28.18,0,13.0,0.0,2.0,-5.8712,-0.11,-1.0882,-0.09,-5.088399999999999,-31.506,17.1102,0,1,0,100.0
3,15.0,2,20.0,1.0,0,1,-7.641249999999999,-0.22555,0.146,0.0,33.0,28.18,0,13.0,0.0,2.0,-5.909000000000001,-0.11,-1.09,-0.09,-4.5947499999999994,-30.87825,16.26825,0,1,0,100.0
3,16.0,2,20.0,1.0,0,1,-7.657,-0.22492,0.09560000000000002,0.0,33.0,28.18,0,13.0,0.0,2.0,-5.921600000000001,-0.11,-1.09,-0.09,-4.2514,-30.3018,15.5658,0,1,0,100.0
3,17.0,2,20.0,1.0,0,1,-7.67275,-0.22429000000000002,0.04520000000000004,0.0,33.0,28.18,0,13.0,0.0,2.0,-5.934200000000001,-0.11,-1.09,-0.09,-3.9080500000000002,-29.725350000000002,14.86335,0,1,0,100.0
3,18.0,2,20.0,1.0,0,1,-7.7706,-0.225,0.016359999999999954,0.0,33.0,28.18,0,13.0,0.0,2.0,-5.953600000000001,-0.11,-1.0866,-0.0934,-2.6890000000000005,-26.329800000000002,11.677000000000001,0,1,0,100.0
3,19.0,2,20.0,1.0,0,1,-7.8273,-0.225,0.050380000000000015,0.0,33.0,28.18,0,13.0,0.0,2.0,-5.978800000000001,-0.11,-1.0803,-0.09970000000000001,-2.2794999999999996,-24.7359,10.4485,0,1,0,100.0
3,20.0,2,20.0,1.0,0,1,-7.966,-0.2257,-0.0393,0.0,33.0,28.18,0,13.0,0.0,2.0,-6.168,-0.113,-1.077,-0.113,-1.652,-21.221,8.347,0,1,0,100.0
3,21.0,2,20.0,1.0,0,1,-8.0038,-0.225385,-0.008115000000000086,0.0,33.0,28.18,0,13.0,0.0,2.0,-6.249899999999999,-0.11614999999999999,-1.07385,-0.11614999999999999,-1.5386000000000002,-20.392550000000004,7.902850000000001,0,1,0,100.0
3,22.0,2,20.0,1.0,0,1,-8.0416,-0.22507,0.023069999999999972,0.0,33.0,28.18,0,13.0,0.0,2.0,-6.331799999999999,-0.11929999999999999,-1.0707,-0.11929999999999999,-1.4252,-19.5641,7.4587,0,1,0,100.0
3,23.0,2,20.0,1.0,0,1,-8.1137,-0.22353,0.24511000000000022,0.0,33.0,28.18,0,13.0,0.0,2.0,-6.546,-0.12490000000000001,-1.0651000000000002,-0.12,-1.2774999999999999,-18.135399999999997,6.722999999999999,0,1,0,100.0
3,24.0,2,20.0,1.0,0,1,-8.3156,-0.20736,1.17956,0.0,33.0,28.18,0,13.0,0.0,2.0,-7.336399999999999,-0.1308,-1.0496,-0.1304,-1.0072,-14.406400000000001,4.536800000000001,0,1,0,100.0
3,25.0,2,20.0,1.0,0,1,-8.345,-0.204,1.1457499999999998,0.0,33.0,28.18,0,13.0,0.0,2.0,-7.475,-0.135,-1.0475,-0.1325,-0.9925,-13.9675,4.1525,0,1,0,100.0
3,26.0,2,20.0,1.0,0,1,-8.3744,-0.20064,1.11194,0.0,33.0,28.18,0,13.0,0.0,2.0,-7.613599999999999,-0.1392,-1.0454,-0.1346,-0.9778,-13.5286,3.768200000000001,0,1,0,100.0
3,27.0,2,20.0,1.0,0,1,-8.4038,-0.19728,1.07813,0.0,33.0,28.18,0,13.0,0.0,2.0,-7.752199999999999,-0.1434,-1.0433000000000001,-0.13670000000000002,-0.9631,-13.0897,3.3839,0,1,0,100.0
3,28.0,2,20.0,1.0,0,1,-8.4332,-0.19392,1.04432,0.0,33.0,28.18,0,13.0,0.0,2.0,-7.8908,-0.1476,-1.0412000000000001,-0.1388,-0.9483999999999999,-12.6508,2.9995999999999996,0,1,0,100.0
3,29.0,2,20.0,0.0,0,1,-8.7362,-0.163245,0.801355,0.0,33.0,28.18,0,12.0,0.0,2.0,-9.3756,-0.17135,-1.01865,-0.15134999999999998,-0.82245,-8.897200000000002,-2.768499999999998,0,1,0,100.0
3,30.0,2,20.0,0.0,0,1,-8.774000000000001,-0.15915,0.72985,0.0,33.0,28.18,0,12.0,0.0,2.0,-9.552,-0.17450000000000002,-1.0155,-0.1545,-0.7815,-8.494,-3.745,0,1,0,100.0
3,31.0,2,20.0,0.0,0,1,-8.8118,-0.155055,0.6583450000000002,0.0,33.0,28.18,0,12.0,0.0,2.0,-9.728399999999999,-0.17765,-1.01235,-0.15764999999999998,-0.74055,-8.090800000000002,-4.721499999999997,0,1,0,100.0
3,32.0,2,20.0,0.0,0,1,-8.8576,-0.1504,0.6545999999999998,0.0,33.0,28.18,0,12.0,0.0,2.0,-9.928799999999999,-0.18,-1.0084,-0.1616,-0.6748000000000001,-7.615600000000001,-5.966799999999998,0,1,0,100.0
3,33.0,2,20.0,0.0,0,1,-8.9269,-0.14409999999999998,0.8499000000000002,0.0,33.0,28.18,0,12.0,0.0,2.0,-10.1997,-0.18,-1.0021,-0.16790000000000002,-0.5361999999999999,-6.9289,-8.001700000000001,0,1,0,100.0
3,34.0,2,20.0,0.0,0,1,-8.991999999999999,-0.13654000000000002,0.8469600000000002,0.0,33.0,28.18,0,12.0,0.0,2.0,-10.415999999999999,-0.18419999999999997,-1.0,-0.17,-0.35560000000000036,-6.313600000000001,-10.036599999999996,0,1,0,100.0
3,35.0,2,20.0,0.0,0,1,-9.054,-0.12845,0.76045,0.0,33.0,28.18,0,12.0,0.0,2.0,-10.5985,-0.19,-0.9995,-0.1705,-0.14850000000000002,-5.7405,-12.0655,0,1,0,100.0
3,36.0,2,20.0,0.0,0,1,-9.1044,-0.12152000000000002,0.8543199999999997,0.0,33.0,28.18,0,12.0,0.0,2.0,-10.705599999999999,-0.19,-0.9932,-0.17679999999999998,0.12239999999999927,-5.242800000000002,-14.024799999999994,0,1,0,100.0
3,37.0,2,20.0,0.0,0,1,-9.1486,-0.11366,0.8728600000000001,0.0,33.0,28.18,0,12.0,0.0,2.0,-10.7724,-0.19,-0.99,-0.18,0.42119999999999974,-4.7792,-15.925199999999998,0,1,0,100.0
3,38.0,2,20.0,0.0,0,1,-9.186399999999999,-0.10483999999999999,0.81364,0.0,33.0,28.18,0,12.0,0.0,2.0,-10.797600000000001,-0.19,-0.99,-0.18,0.7488000000000004,-4.3508,-17.7648,0,1,0,100.0
3,39.0,2,20.0,0.0,0,1,-9.19855,-0.100865,0.813985,0.0,33.0,28.18,0,12.0,0.0,2.0,-10.780050000000001,-0.19,-0.99,-0.18284999999999998,0.9538499999999996,-4.1447,-18.70665,0,1,0,100.0
3,40.0,2,20.0,0.0,0,1,-9.208,-0.0974,0.8206,0.0,33.0,28.18,0,12.0,0.0,2.0,-10.758000000000001,-0.19,-0.99,-0.186,1.146,-3.9619999999999997,-19.554,0,1,0,100.0
3,41.0,2,20.0,0.0,0,1,-9.217450000000001,-0.09393499999999999,0.827215,0.0,33.0,28.18,0,12.0,0.0,2.0,-10.73595,-0.19,-0.99,-0.18915,1.3381500000000002,-3.7792999999999997,-20.40135,0,1,0,100.0
3,42.0,2,20.0,0.0,0,1,-9.2162,-0.07348000000000005,0.92244,0.0,33.0,28.18,0,12.0,0.0,2.0,-10.4304,-0.18,-0.98,-0.19,2.4149999999999974,-3.0322000000000013,-24.134999999999994,0,1,0,100.0
3,43.0,2,20.0,0.0,0,1,-9.137,-0.05161000000000001,0.9816,0.0,33.0,28.18,0,12.0,0.0,2.0,-9.9277,-0.16970000000000002,-0.98,-0.19,3.634299999999999,-2.4210000000000003,-27.477,0,1,0,100.0
3,44.0,2,20.0,0.0,0,1,-9.116,-0.04888,0.9648,0.0,33.0,28.18,0,12.0,0.0,2.0,-9.8416,-0.16760000000000003,-0.98,-0.19,3.8044,-2.358,-27.876,0,1,0,100.0
3,45.0,2,20.0,0.0,0,1,-9.095,-0.04615,0.948,0.0,33.0,28.18,0,12.0,0.0,2.0,-9.7555,-0.1655,-0.98,-0.19,3.9745,-2.295,-28.275000000000002,0,1,0,100.0
3,46.0,2,20.0,0.0,0,1,-9.074,-0.04341999999999999,0.9312,0.0,33.0,28.18,0,12.0,0.0,2.0,-9.6694,-0.1634,-0.98,-0.19,4.1446000000000005,-2.2319999999999998,-28.674000000000003,0,1,0,100.0
3,47.0,2,20.0,0.0,0,1,-9.052999999999999,-0.04069000000000001,0.9144000000000001,0.0,33.0,28.18,0,12.0,0.0,2.0,-9.5833,-0.16130000000000003,-0.98,-0.19,4.314699999999999,-2.1690000000000005,-29.072999999999997,0,1,0,100.0
3,48.0,2,20.0,0.0,0,1,-8.869200000000001,-0.019640000000000032,1.0104799999999998,0.0,33.0,28.18,0,12.0,0.0,2.0,-8.935200000000002,-0.15760000000000002,-0.98,-0.19,5.459199999999998,-1.8344000000000003,-31.507999999999996,0,1,0,100.0
3,49.0,2,20.0,0.0,0,1,-8.7621,-0.010820000000000015,1.0274899999999998,0.0,33.0,28.18,0,12.0,0.0,2.0,-8.6076,-0.15130000000000002,-0.98,-0.19,5.982099999999999,-1.7147000000000001,-32.57899999999999,0,1,0,100.0
3,50.0,2,20.0,0.0,0,1,-8.6875,-0.004749999999999999,0.9904999999999999,0.0,33.0,28.18,0,12.0,0.0,2.0,-8.397499999999999,-0.1475,-0.98,-0.19,6.3,-1.65,-33.2125,0,1,0,100.0
3,51.0,2,20.0,0.0,0,1,-8.62135,0.000605000000000011,0.9394699999999999,0.0,33.0,28.18,0,12.0,0.0,2.0,-8.217949999999998,-0.14435,-0.98,-0.19,6.5646,-1.5996,-33.73225,0,1,0,100.0
3,52.0,2,20.0,0.0,0,1,-8.5552,0.005959999999999973,0.8884400000000002,0.0,33.0,28.18,0,12.0,0.0,2.0,-8.038400000000001,-0.14120000000000002,-0.98,-0.19,6.829199999999998,-1.5492000000000004,-34.252,0,1,0,100.0
3,53.0,2,20.0,0.0,0,1,-7.927600000000001,0.038144999999999984,0.7168599999999998,0.0,33.0,28.18,0,12.0,0.0,2.0,-6.6452,-0.11805,-0.99,-0.19,8.86305,-1.28245,-38.032,0,1,0,100.0
3,54.0,2,20.0,0.0,0,1,-7.8268,0.041609999999999994,0.7634799999999998,0.0,33.0,28.18,0,12.0,0.0,2.0,-6.4436,-0.1149,-0.99,-0.19,9.1749,-1.2541,-38.536,0,1,0,100.0
3,55.0,2,20.0,0.0,0,1,-7.726,0.045075,0.8100999999999999,0.0,33.0,28.18,0,12.0,0.0,2.0,-6.242,-0.11175,-0.99,-0.19,9.48675,-1.22575,-39.04,0,1,0,100.0
3,56.0,2,20.0,0.0,0,1,-7.5664,0.04980000000000001,0.7769199999999997,0.0,33.0,28.18,0,12.0,0.0,2.0,-5.945199999999999,-0.10439999999999998,-0.99,-0.18719999999999998,9.973600000000001,-1.182,-39.756800000000005,0,1,0,100.0
3,57.0,2,20.0,0.0,0,1,-7.333300000000001,0.05609999999999997,0.6439900000000007,0.0,33.0,28.18,0,12.0,0.0,2.0,-5.529400000000002,-0.09180000000000006,-0.99,-0.18090000000000003,10.679199999999996,-1.1190000000000004,-40.739599999999996,0,1,0,100.0
3,58.0,2,20.0,0.0,6,2,-7.084000000000001,0.06455999999999996,0.8912199999999989,0.0,33.0,28.18,0,12.0,0.0,2.0,-5.097400000000001,-0.08460000000000002,-0.99,-0.18,11.449599999999997,-1.0398000000000003,-41.7278,0,1,0,100.0
3,59.0,2,20.0,0.0,6,2,-6.825200000000001,0.07286999999999998,1.1659399999999998,-0.03229999999999978,33.0,28.1681,0,13.019999999999992,0.0,2.0,-4.657600000000001,-0.07830000000000001,-0.9917,-0.18,12.247799999999998,-0.8729000000000007,-42.688,0,1,0,100.0
3,60.0,2,20.0,0.0,6,2,-6.548,0.0798,1.3436,-0.152,33.0,28.124,0,16.8,0.0,2.0,-4.204,-0.07200000000000001,-0.998,-0.18,13.091999999999999,-0.476,-43.57,0,1,0,100.0
3,61.0,2,20.0,0.0,6,2,-6.2536,0.07210999999999998,0.027009999999996398,-0.9867900000000022,33.0,28.0799,0,18.0,0.0,2.0,-3.724599999999999,-0.0657,-1.0,-0.18,13.9448,0.24770000000000167,-44.202600000000004,0,1,0,100.0
3,62.0,2,20.0,0.0,6,2,-5.9647000000000014,0.05840000000000003,-1.7704400000000011,-2.0519399999999997,33.0,28.0388,0,18.0,0.0,2.0,-3.255400000000001,-0.05940000000000003,-1.0003,-0.18,14.757499999999999,1.1032999999999964,-44.6739,0,1,0,100.0
3,63.0,2,20.0,0.0,6,2,-5.804050000000001,0.05210000000000002,-1.5335600000000007,-2.14581,33.0,28.0262,0,18.0,0.0,2.0,-2.997100000000001,-0.05310000000000002,-1.00345,-0.18,15.15125,1.7679499999999977,-44.71485,0,1,0,100.0
3,64.0,2,20.0,0.0,6,2,-5.643400000000001,0.045800000000000014,-1.2966800000000003,-2.23968,33.0,28.0136,0,18.0,0.0,2.0,-2.7388000000000003,-0.046800000000000015,-1.0066,-0.18,15.545,2.432599999999999,-44.7558,0,1,0,100.0
3,65.0,2,20.0,0.0,6,2,-5.482749999999999,0.0395,-1.0597999999999999,-2.3335500000000002,33.0,28.001,0,18.0,0.0,2.0,-2.4804999999999997,-0.0405,-1.00975,-0.18,15.93875,3.09725,-44.796749999999996,0,1,0,100.0
3,66.0,2,20.0,0.0,6,2,-5.150999999999999,0.032039999999999985,-0.8321999999999996,-2.32186,33.0,28.0232,0,18.0,0.0,2.0,-1.995999999999999,-0.03419999999999999,-1.0158,-0.18,16.579,4.663800000000003,-44.5332,0,1,0,100.0
3,67.0,2,20.0,1.0,6,2,-4.211900000000002,0.018530000000000026,-0.4045399999999998,-1.6792700000000025,33.0,28.0784,0,19.0,0.0,2.0,-0.7367000000000025,-0.015800000000000067,-1.03,-0.17,17.865599999999997,9.217399999999989,-43.257400000000004,0,1,0,100.0
3,68.0,2,20.0,1.0,6,2,-3.8276000000000012,0.014120000000000016,-0.45115999999999984,-1.2300800000000016,33.0,28.1036,0,19.0,0.0,2.0,-0.2768000000000017,-0.0032000000000000457,-1.03,-0.17,18.092399999999998,11.069599999999992,-42.589600000000004,0,1,0,100.0
3,69.0,2,20.0,1.0,6,2,-3.433900000000001,0.009710000000000009,-0.48133,-0.737180000000001,33.0,28.1241,0,19.0,0.0,2.0,0.1407999999999993,0.004699999999999989,-1.0347,-0.17,18.0607,12.996999999999996,-41.8842,0,1,0,100.0
3,70.0,2,20.0,1.0,6,2,-3.0340000000000003,0.0056,-0.4672,-0.2807,33.0,28.14,0,19.0,0.0,2.0,0.524,0.011,-1.04,-0.169,17.875,15.003,-41.143,0,1,0,100.0
3,71.0,2,20.0,1.0,6,2,-2.6181999999999994,0.0030799999999999955,-0.24795999999999963,-0.09610999999999967,33.0,28.14,0,19.0,0.0,2.0,0.8012000000000005,0.017300000000000013,-1.04,-0.16269999999999998,17.339499999999997,17.289900000000003,-40.2799,0,1,0,100.0
3,72.0,2,20.0,1.0,6,2,-1.6458000000000013,-0.0001799999999999983,-0.06310000000000027,0.11962000000000017,33.0,28.14,0,19.0,0.0,2.0,0.8012000000000011,0.016400000000000036,-1.0482,-0.1582,15.174000000000003,23.587999999999994,-36.9652,0,1,0,100.0
3,73.0,2,20.0,1.0,6,2,-1.4284500000000009,-0.0004949999999999989,-0.014275000000000175,0.0909550000000001,33.0,28.14,0,19.0,0.0,2.0,0.5933000000000008,0.010100000000000022,-1.04505,-0.15505000000000002,14.481000000000002,25.194499999999994,-35.7493,0,1,0,100.0
3,74.0,2,20.0,1.0,6,2,-1.2111000000000005,-0.0008099999999999995,0.034549999999999914,0.06229000000000006,33.0,28.14,0,19.0,0.0,2.0,0.3854000000000004,0.0038000000000000113,-1.0419,-0.1519,13.788,26.801,-34.5334,0,1,0,100.0
3,75.0,2,20.0,1.0,6,2,-0.905,-0.001,0.055,0.05075,33.0,28.14,0,19.0,0.0,2.0,-0.10749999999999997,-0.005,-1.04,-0.15,12.7,29.105,-32.357499999999995,0,1,0,100.0
3,76.0,2,20.0,1.0,6,2,-0.4639999999999992,-0.001,0.03231999999999996,0.06524000000000003,33.0,28.14,0,19.0,0.0,2.0,-1.0336000000000016,-0.017600000000000022,-1.04,-0.15,11.011599999999996,32.46920000000001,-28.722399999999993,0,1,0,100.0
3,77.0,2,20.0,1.0,1,5,-0.028100000000002397,-0.001,-0.02758999999999963,0.08941999999999986,33.0,28.14,0,19.0,0.0,2.5099999999999967,-2.3319999999999927,-0.04039999999999986,-1.04,-0.15,9.20080000000001,35.54779999999998,-24.205000000000027,0,1,0,100.0
3,78.0,2,20.0,0.9300000000000012,1,5,0.35829999999999923,-0.001069999999999999,-0.07995000000000002,0.12105999999999982,33.0,28.1351,0,19.0,0.0,3.0,-3.5996999999999972,-0.06349999999999995,-1.04,-0.15,7.567700000000003,38.115399999999994,-19.93780000000001,0,1,0,100.0
3,79.0,2,20.0,0.6150000000000005,1,5,0.5756499999999996,-0.0013849999999999995,-0.07522500000000001,0.17082999999999993,33.0,28.11305,0,19.0,0.0,3.0,-4.453349999999999,-0.07924999999999997,-1.04,-0.15,6.657350000000001,39.1297,-17.272900000000007,0,1,0,100.0
3,80.0,2,20.0,0.29999999999999993,1,5,0.7929999999999999,-0.0017000000000000001,-0.07050000000000001,0.22060000000000002,33.0,28.091,0,19.0,0.0,3.0,-5.307,-0.095,-1.04,-0.15,5.747,40.144,-14.608,0,1,0,100.0
3,81.0,2,20.0,0.0,1,5,2.2887,0.08260000000000002,2.9372299999999996,2.06072,33.0,27.9694,0,19.0,0.0,3.0,-11.7948,-0.22060000000000002,-1.03,-0.15,-0.09835000000000108,40.516149999999996,4.546500000000004,0,1,0,100.0
3,82.0,2,20.0,0.0,1,5,2.4714000000000005,0.09520000000000005,2.7740599999999995,2.2018400000000002,33.0,27.956799999999998,0,19.0,0.0,3.0,-12.525600000000003,-0.23320000000000005,-1.03,-0.15,-0.6937000000000022,39.385299999999994,6.783000000000008,0,1,0,100.0
3,83.0,2,20.0,0.0,1,6,2.6540999999999992,0.10779999999999995,2.6108900000000004,2.3429599999999993,33.0,27.9442,0,19.0,0.0,3.0,-13.256399999999998,-0.24579999999999996,-1.03,-0.15,-1.2890499999999978,38.254450000000006,9.019499999999992,0,1,0,100.0
3,84.0,2,20.0,0.0,1,6,2.836799999999998,0.12039999999999985,2.4477200000000017,2.4840799999999983,33.0,27.9316,0,19.0,0.0,3.0,-13.987199999999993,-0.25839999999999985,-1.03,-0.15,-1.8843999999999936,37.12360000000001,11.255999999999975,0,1,0,100.0
3,85.0,2,20.0,0.0,1,6,3.1405,0.14015,2.25595,2.64995,33.0,27.93,0,19.0,0.0,3.0,-15.015,-0.27649999999999997,-1.03,-0.15,-2.7465,34.23,14.9115,0,1,0,100.0
3,86.0,2,20.0,0.0,1,6,3.8205999999999993,0.18297999999999995,1.5836700000000006,3.3991599999999997,33.0,27.8964,0,19.0,0.0,3.0,-16.7698,-0.31089999999999995,-1.03,-0.15,-4.435799999999999,25.921300000000013,23.23059999999999,0,1,0,100.0
3,87.0,2,20.0,0.0,1,6,3.9277,0.18991000000000002,1.5090149999999998,3.4382200000000003,33.0,27.883799999999997,0,19.0,0.0,3.0,-16.8391,-0.31405,-1.03,-0.15,-4.631100000000001,24.210849999999994,24.597700000000003,0,1,0,100.0
3,88.0,2,20.0,0.0,1,6,4.0348,0.19684,1.4343600000000003,3.47728,33.0,27.871199999999998,0,19.0,0.0,3.0,-16.9084,-0.3172,-1.03,-0.15,-4.8264,22.500400000000006,25.964799999999993,0,1,0,100.0
3,89.0,2,20.0,0.0,1,6,4.146799999999998,0.20425999999999989,1.3535100000000015,3.532159999999998,33.0,27.8579,0,19.0,0.0,3.0,-16.9385,-0.3193000000000001,-1.0307,-0.15,-5.027999999999997,20.644700000000032,27.434099999999976,0,1,0,100.0
3,90.0,2,20.0,0.0,1,6,4.298,0.2156,1.2231,3.7136,33.0,27.839,0,19.0,0.0,3.0,-16.655,-0.313,-1.037,-0.15,-5.28,17.627000000000002,29.721,0,1,0,100.0
3,91.0,2,20.0,0.0,1,6,4.3898,0.22330999999999998,1.1205750000000005,3.8263999999999996,33.0,27.83,0,19.0,0.0,3.0,-16.356650000000002,-0.30670000000000003,-1.04165,-0.15,-5.451149999999999,15.52670000000001,31.31159999999999,0,1,0,100.0
3,92.0,2,20.0,0.0,1,6,4.4276,0.22772,1.0433999999999997,3.8768000000000002,33.0,27.83,0,19.0,0.0,3.0,-16.0448,-0.30039999999999994,-1.0448,-0.15,-5.548800000000001,14.260399999999995,32.269200000000005,0,1,0,100.0
3,93.0,2,20.0,0.0,1,6,4.4654,0.23212999999999998,0.9662250000000003,3.9271999999999996,33.0,27.83,0,19.0,0.0,3.0,-15.73295,-0.29410000000000003,-1.04795,-0.15,-5.64645,12.994100000000005,33.2268,0,1,0,100.0
3,94.0,2,20.0,0.0,1,6,4.490200000000001,0.24919999999999992,0.673120000000001,4.204679999999998,33.0,27.7834,0,19.0,0.0,3.0,-13.753800000000012,-0.25340000000000024,-1.05,-0.15219999999999992,-6.1157999999999975,8.19420000000002,36.83979999999999,0,1,0,100.0
3,95.0,2,20.0,0.0,1,6,4.4334999999999996,0.2555,0.5761000000000001,4.3899,33.0,27.7645,0,19.0,0.0,3.0,-12.6765,-0.23450000000000001,-1.05,-0.1585,-6.3615,6.3735,38.1565,0,1,0,100.0
3,96.0,2,20.0,0.0,1,6,4.148000000000001,0.26296,0.3430400000000006,4.746639999999999,33.0,27.72,0,19.0,0.0,3.0,-9.922000000000004,-0.1804000000000001,-1.05,-0.1624,-7.024399999999998,2.6336000000000057,40.385999999999996,0,1,0,100.0
3,97.0,2,20.0,0.0,1,6,4.0535,0.26422,0.26302999999999976,4.8682300000000005,33.0,27.72,0,19.0,0.0,3.0,-9.228999999999997,-0.16779999999999995,-1.05,-0.16555000000000003,-7.200800000000001,1.8114499999999967,40.74825,0,1,0,100.0
3,98.0,2,20.0,0.0,1,6,3.959,0.26548,0.18302000000000032,4.98982,33.0,27.72,0,19.0,0.0,3.0,-8.536000000000003,-0.15520000000000003,-1.05,-0.1687,-7.377199999999999,0.9893000000000026,41.110499999999995,0,1,0,100.0
3,99.0,2,20.0,0.0,1,6,3.7757000000000027,0.26711,0.17811999999999947,5.07811,33.0,27.7089,0,19.0,0.0,3.0,-7.3546000000000165,-0.13520000000000026,-1.0463,-0.17,-7.679399999999996,-0.3045999999999824,41.463499999999996,0,1,0,100.0
3,100.0,2,20.0,1.0,1,6,3.05,0.271,0.146,5.162,33.0,27.69,0,20.0,0.0,3.0,-3.21,-0.06,-1.03,-0.18,-8.78,-4.39,41.67,0,1,0,100.0
4,0.0,2,20.0,0.0,0,1,-4.64,0.008,-6.507,3.274,33.0,28.28,0,19.0,0.0,3.0,8.65,0.15,-0.98,-0.14,-21.13,-20.85,2.84,0,1,0,100.0
4,1.0,2,20.0,0.0,0,1,-4.8477,-0.05967000000000001,-6.83798,2.4351599999999998,33.0,28.28,0,19.0,0.0,3.0,7.1157,0.1232,-0.9934,-0.1199,-19.8436,-23.3826,3.309,0,1,0,100.0
4,2.0,2,20.0,0.0,0,1,-5.0316,-0.1542,-15.76178,1.3345199999999997,33.0,28.2698,0,17.3,0.0,3.0,5.7174000000000005,0.0998,-1.0102,-0.1032,-18.5572,-25.4528,4.509,0,1,0,100.0
4,3.0,2,20.0,0.0,0,1,-5.1919,-0.27297000000000005,-32.408719999999995,0.0,33.0,28.2493,0,14.0,0.0,3.0,4.4551,0.0797,-1.0301,-0.08979999999999999,-17.270999999999997,-27.0583,6.4293000000000005,0,1,0,100.0
4,4.0,2,20.0,0.0,0,1,-5.3192,-0.27096000000000003,-8.336960000000001,0.0,33.0,28.2024,0,14.0,0.0,3.0,3.4568,0.0596,-1.0368,-0.0764,-15.998,-27.6144,9.0624,0,1,0,100.0
4,5.0,2,20.0,0.11666666666666667,0,1,-5.396333333333333,-0.26533333333333337,2.92095,0.0,33.0,28.18,0,14.116666666666667,0.0,3.0,2.8493333333333335,0.04766666666666667,-1.0423333333333333,-0.06883333333333334,-15.160166666666667,-27.8415,10.7365,0,1,0,100.0
4,6.0,2,20.0,0.3400000000000001,0,1,-5.4276,-0.2564,2.4633399999999996,0.0,33.0,28.18,0,14.34,0.0,3.0,2.5991999999999997,0.0432,-1.0468,-0.0666,-14.7202,-27.7678,11.533800000000001,0,1,0,100.0
4,7.0,2,20.0,0.5633333333333332,0,1,-5.458866666666666,-0.2474666666666667,2.00573,0.0,33.0,28.18,0,14.563333333333333,0.0,3.0,2.349066666666667,0.038733333333333335,-1.0512666666666668,-0.06436666666666667,-14.280233333333333,-27.6941,12.331100000000001,0,1,0,100.0
4,8.0,2,20.0,0.7866666666666667,0,1,-5.490133333333333,-0.23853333333333335,1.5481199999999997,0.0,33.0,28.18,0,14.786666666666667,0.0,3.0,2.0989333333333335,0.03426666666666667,-1.0557333333333334,-0.06213333333333333,-13.840266666666666,-27.6204,13.128400000000001,0,1,0,100.0
4,9.0,2,20.0,1.0,0,1,-5.6818,-0.227,-0.049940000000000005,0.0,33.0,28.1412,0,15.0,0.0,3.0,0.4146999999999998,0.009699999999999995,-1.08,-0.050300000000000004,-9.305399999999999,-24.557,18.0471,0,1,0,100.0
4,10.0,2,20.0,1.0,0,1,-5.722,-0.227,-0.048600000000000004,0.0,33.0,28.168,0,15.0,0.0,3.0,0.07299999999999997,0.003,-1.08,-0.057,-8.086,-23.15,18.429000000000002,0,1,0,100.0
4,11.0,2,20.0,1.0,0,1,-5.7874,-0.228,-0.039295,0.0,33.0,28.18,0,15.0,0.0,3.0,-0.6580500000000001,-0.011850000000000001,-1.08,-0.06185,-5.797999999999999,-19.7971,18.358999999999998,0,1,0,100.0
4,12.0,2,20.0,1.0,0,1,-5.800800000000001,-0.228,-0.04164,0.0,33.0,28.18,0,15.0,0.0,3.0,-0.8356000000000002,-0.015200000000000003,-1.08,-0.06520000000000001,-5.396,-19.0132,18.158,0,1,0,100.0
4,13.0,2,20.0,1.0,0,1,-5.8142000000000005,-0.228,-0.043985,0.0,33.0,28.18,0,15.0,0.0,3.0,-1.0131500000000002,-0.018550000000000004,-1.08,-0.06855000000000001,-4.994,-18.2293,17.957,0,1,0,100.0
4,14.0,2,20.0,0.6200000000000002,0,1,-5.839,-0.228,-0.05867999999999999,0.0,33.0,28.18,0,14.620000000000001,0.0,3.0,-1.3256,-0.023799999999999998,-1.0762,-0.07,-4.4552000000000005,-17.0198,17.528,0,1,0,100.0
4,15.0,2,20.0,1.0,0,1,-5.93175,-0.22792500000000002,-0.019475,0.0,33.0,28.14,0,15.0,0.0,3.0,-2.461,-0.05025,-1.06975,-0.09025,-3.001,-13.4005,15.815999999999999,0,1,0,100.0
4,16.0,2,20.0,1.0,0,1,-5.9552,-0.22692,0.14836000000000008,0.0,33.0,28.14,0,15.0,0.0,3.0,-2.7424,-0.0536,-1.0664,-0.0936,-2.7464,-12.7372,15.3604,0,1,0,100.0
4,17.0,2,20.0,1.0,0,1,-5.97865,-0.225915,0.3161950000000001,0.0,33.0,28.14,0,15.0,0.0,3.0,-3.0238,-0.05695,-1.06305,-0.09695000000000001,-2.4917999999999996,-12.0739,14.9048,0,1,0,100.0
4,18.0,2,20.0,1.0,0,1,-6.0016,-0.2248,0.4759400000000001,0.0,33.0,28.140800000000002,0,15.0,0.0,3.0,-3.2986,-0.0604,-1.0598,-0.10020000000000001,-2.2461999999999995,-11.4354,14.456,0,1,0,100.0
4,19.0,2,20.0,1.0,0,1,-6.019466666666666,-0.22256666666666666,0.5534366666666666,0.0,33.0,28.149733333333334,0,15.0,0.0,3.0,-3.5063,-0.06486666666666667,-1.0575666666666668,-0.10243333333333333,-2.0921,-11.049033333333334,14.076333333333334,0,1,0,100.0
4,20.0,2,20.0,1.0,0,1,-6.037333333333334,-0.22033333333333333,0.6309333333333333,0.0,33.0,28.158666666666665,0,15.0,0.0,3.0,-3.714,-0.06933333333333333,-1.0553333333333335,-0.10466666666666667,-1.938,-10.662666666666667,13.696666666666667,0,1,0,100.0
4,21.0,2,20.0,1.0,0,1,-6.0552,-0.2181,0.7084300000000001,0.0,33.0,28.1676,0,15.0,0.0,3.0,-3.9217000000000004,-0.0738,-1.0531000000000001,-0.10690000000000001,-1.7838999999999996,-10.276299999999999,13.316999999999998,0,1,0,100.0
4,22.0,2,20.0,1.0,0,1,-6.073066666666667,-0.21586666666666665,0.7859266666666667,0.0,33.0,28.17653333333333,0,15.0,0.0,3.0,-4.1294,-0.07826666666666666,-1.0508666666666666,-0.10913333333333333,-1.6298,-9.889933333333333,12.937333333333331,0,1,0,100.0
4,23.0,2,20.0,1.0,0,1,-6.3492,-0.18749000000000002,0.65703,0.0,33.0,28.1564,0,15.0,0.0,3.0,-6.533099999999999,-0.11819999999999999,-1.0259,-0.1341,-0.40470000000000017,-6.5613,6.953300000000002,0,1,0,100.0
4,24.0,2,20.0,0.9599999999999994,0,1,-6.5652,-0.17371999999999999,0.39460000000000006,0.0,33.0,28.18,0,14.959999999999999,0.0,3.0,-7.9072000000000005,-0.14040000000000002,-1.01,-0.14040000000000002,0.06040000000000015,-5.0,2.1083999999999983,0,1,0,100.0
4,25.0,2,20.0,0.625,0,1,-6.60875,-0.171375,0.42475,0.0,33.0,28.18,0,14.625,0.0,3.0,-8.135,-0.14375000000000002,-1.01,-0.14375000000000002,0.14750000000000002,-4.74875,1.09,0,1,0,100.0
4,26.0,2,20.0,0.2899999999999991,0,1,-6.6523,-0.16902999999999999,0.4549000000000001,0.0,33.0,28.18,0,14.29,0.0,3.0,-8.362800000000002,-0.1471,-1.01,-0.1471,0.23460000000000025,-4.4975,0.07159999999999744,0,1,0,100.0
4,27.0,2,20.0,0.0,0,1,-6.7026,-0.16619,0.48595,0.0,33.0,28.18,0,14.0,0.0,3.0,-8.608600000000001,-0.1509,-1.0091,-0.1509,0.33520000000000016,-4.2251,-1.0719000000000016,0,1,0,100.0
4,28.0,2,20.0,0.0,0,1,-6.7964,-0.16016,0.5228,0.0,33.0,28.18,0,14.0,0.0,3.0,-8.9704,-0.1576,-1.0024,-0.1576,0.5227999999999998,-3.8164000000000002,-3.0215999999999985,0,1,0,100.0
4,29.0,2,20.0,0.0,0,1,-6.978633333333334,-0.15214,0.2949966666666668,0.0,33.0,28.18,0,14.0,0.0,3.0,-9.5387,-0.17,-0.9985666666666667,-0.16143333333333335,0.9258666666666668,-3.0898,-6.7168333333333345,0,1,0,100.0
4,30.0,2,20.0,0.0,0,1,-7.007666666666666,-0.1508,0.36043333333333333,0.0,33.0,28.18,0,14.0,0.0,3.0,-9.599,-0.17,-0.9963333333333333,-0.16366666666666668,0.9973333333333333,-2.996,-7.241666666666667,0,1,0,100.0
4,31.0,2,20.0,0.0,0,1,-7.0367,-0.14945999999999998,0.4258700000000002,0.0,33.0,28.18,0,14.0,0.0,3.0,-9.6593,-0.17,-0.9941,-0.16590000000000002,1.0688000000000002,-2.9021999999999997,-7.7665000000000015,0,1,0,100.0
4,32.0,2,20.0,0.0,0,1,-7.065733333333333,-0.14812,0.4913066666666668,0.0,33.0,28.18,0,14.0,0.0,3.0,-9.7196,-0.17,-0.9918666666666667,-0.16813333333333336,1.1402666666666668,-2.8084,-8.291333333333334,0,1,0,100.0
4,33.0,2,20.0,0.0,0,1,-7.3044,-0.13167,0.33141,0.0,33.0,28.1778,0,14.0,0.0,3.0,-9.99945,-0.17,-0.99,-0.17,1.89145,-2.0957,-12.569749999999999,0,1,0,100.0
4,34.0,2,20.0,0.0,0,1,-7.3312,-0.12966,0.35218000000000005,0.0,33.0,28.1644,0,14.0,0.0,3.0,-9.9961,-0.17,-0.99,-0.17,2.0221,-2.0086,-13.0555,0,1,0,100.0
4,35.0,2,20.0,0.0,0,1,-7.358,-0.12765,0.37295,0.0,33.0,28.151,0,14.0,0.0,3.0,-9.992750000000001,-0.17,-0.99,-0.17,2.1527499999999997,-1.9215,-13.54125,0,1,0,100.0
4,36.0,2,20.0,0.0,0,1,-7.386,-0.12516,0.4158000000000004,0.0,33.0,28.1448,0,14.0,0.0,3.0,-9.9816,-0.17,-0.9888,-0.17120000000000002,2.3140000000000005,-1.8223999999999998,-14.090000000000002,0,1,0,100.0
4,37.0,2,20.0,0.0,0,1,-7.4195,-0.12047,0.5598500000000001,0.0,33.0,28.1716,0,14.0,0.0,3.0,-9.9347,-0.17,-0.9821,-0.1779,2.6155000000000004,-1.6683,-14.9275,0,1,0,100.0
4,38.0,2,20.0,0.0,0,1,-7.4623,-0.1057,0.7460800000000001,0.0,33.0,28.18,0,14.0,0.0,3.0,-9.773200000000001,-0.17,-0.98,-0.18,3.3219,-1.3932,-16.6053,0,1,0,100.0
4,39.0,2,20.0,0.0,0,1,-7.46565,-0.10235,0.6777399999999999,0.0,33.0,28.18,0,14.0,0.0,3.0,-9.7196,-0.17,-0.98,-0.18,3.4994500000000004,-1.3396,-16.97715,0,1,0,100.0
4,40.0,2,20.0,0.0,0,1,-7.468999999999999,-0.099,0.6093999999999999,0.0,33.0,28.18,0,14.0,0.0,3.0,-9.666,-0.17,-0.98,-0.18,3.677,-1.286,-17.349,0,1,0,100.0
4,41.0,2,20.0,0.0,0,1,-7.4606,-0.09283000000000001,0.7224799999999997,0.0,33.0,28.18,0,14.0,0.0,3.0,-9.5607,-0.16530000000000003,-0.98,-0.18,3.9931999999999994,-1.2089,-18.0005,0,1,0,100.0
4,42.0,2,20.0,0.0,0,1,-7.447666666666667,-0.08639333333333331,0.8655799999999998,0.0,33.0,28.18,0,14.0,0.0,3.0,-9.4488,-0.16,-0.98,-0.18,4.316600000000001,-1.1362666666666665,-18.666933333333333,0,1,0,100.0
4,43.0,2,20.0,0.0,0,1,-7.4365000000000006,-0.08348999999999998,0.8300699999999999,0.0,33.0,28.18,0,14.0,0.0,3.0,-9.3952,-0.16,-0.98,-0.18,4.4439,-1.1183999999999998,-18.9394,0,1,0,100.0
4,44.0,2,20.0,0.0,0,1,-7.425333333333334,-0.08058666666666665,0.7945599999999999,0.0,33.0,28.18,0,14.0,0.0,3.0,-9.341600000000001,-0.16,-0.98,-0.18,4.5712,-1.1005333333333334,-19.211866666666666,0,1,0,100.0
4,45.0,2,20.0,0.0,0,1,-7.414166666666667,-0.07768333333333333,0.75905,0.0,33.0,28.18,0,14.0,0.0,3.0,-9.288,-0.16,-0.98,-0.18,4.6985,-1.0826666666666667,-19.484333333333332,0,1,0,100.0
4,46.0,2,20.0,0.0,0,1,-7.4030000000000005,-0.07478,0.7235400000000001,0.0,33.0,28.18,0,14.0,0.0,3.0,-9.2344,-0.16,-0.98,-0.18,4.8258,-1.0648,-19.7568,0,1,0,100.0
4,47.0,2,20.0,0.0,0,1,-7.1663,-0.04558999999999997,0.692449999999999,0.0,33.0,28.18,0,14.0,0.0,3.0,-8.458699999999999,-0.14509999999999998,-0.98,-0.18,6.234400000000002,-1.0,-23.151500000000002,0,1,0,100.0
4,48.0,2,20.0,0.0,0,1,-7.0744,-0.03939999999999998,0.5684000000000003,0.0,33.0,28.18,0,14.0,0.0,3.0,-8.204399999999998,-0.14,-0.98,-0.18,6.614400000000001,-1.0032,-24.0496,0,1,0,100.0
4,49.0,2,20.0,0.0,0,1,-6.9672,-0.032699999999999986,0.6789500000000002,0.0,33.0,28.18,0,14.0,0.0,3.0,-7.9296999999999995,-0.14,-0.98,-0.18,7.0097000000000005,-1.0166,-24.9273,0,1,0,100.0
4,50.0,2,20.0,0.0,0,1,-6.85,-0.026000000000000002,0.6234999999999999,0.0,33.0,28.18,0,14.0,0.0,3.0,-7.640000000000001,-0.135,-0.985,-0.17500000000000002,7.4399999999999995,-1.04,-25.775,0,1,0,100.0
4,51.0,2,20.0,0.0,0,1,-6.726,-0.019810000000000008,0.55224,0.0,33.0,28.18,0,14.0,0.0,3.0,-7.338400000000001,-0.12830000000000003,-0.99,-0.17,7.904299999999999,-1.0668,-26.604,0,1,0,100.0
4,52.0,2,20.0,0.0,0,1,-6.591999999999999,-0.015119999999999977,0.6004800000000002,0.0,33.0,28.18,0,14.0,0.0,3.0,-7.016799999999999,-0.12159999999999996,-0.99,-0.17,8.433600000000004,-1.0936000000000001,-27.408000000000005,0,1,0,100.0
4,53.0,2,20.0,0.0,0,1,-6.4376,-0.00736999999999997,0.7440900000000006,0.0,33.0,28.18,0,14.0,0.0,3.0,-6.695199999999999,-0.11489999999999997,-0.99,-0.17,9.039400000000002,-1.1204,-28.217100000000002,0,1,0,100.0
4,54.0,2,20.0,0.0,0,1,-6.2732,0.0009800000000000121,0.8423799999999998,0.0,33.0,28.18,0,14.0,0.0,3.0,-6.3717999999999995,-0.10819999999999999,-0.99,-0.17,9.699800000000002,-1.1472,-29.044,0,1,0,100.0
4,55.0,2,20.0,0.0,6,2,-6.098999999999999,0.008349999999999998,0.73585,0.0,33.0,28.18,0,14.0,0.0,3.0,-6.0435,-0.1015,-0.99,-0.17,10.4435,-1.174,-29.915,0,1,0,100.0
4,56.0,2,20.0,0.0,6,2,-5.9872,0.012859999999999995,0.9324799999999995,-0.07981999999999982,33.0,28.1696,0,15.039999999999997,0.0,3.0,-5.8374,-0.1,-0.99,-0.17,10.947999999999999,-1.2138,-30.4454,0,1,0,100.0
4,57.0,2,20.0,0.0,6,2,-5.8934,0.016545000000000018,1.2165600000000014,-0.18266500000000052,33.0,28.156200000000002,0,16.380000000000006,0.0,3.0,-5.666549999999999,-0.1,-0.99,-0.17,11.383500000000002,-1.2573500000000002,-30.87755,0,1,0,100.0
4,58.0,2,20.0,0.0,6,2,-5.7996,0.020230000000000012,1.500640000000001,-0.2855100000000003,33.0,28.1428,0,17.720000000000006,0.0,3.0,-5.495699999999999,-0.1,-0.99,-0.17,11.819,-1.3009000000000002,-31.3097,0,1,0,100.0
4,59.0,2,20.0,0.0,6,2,-5.2898,0.018469999999999997,-0.07856999999999974,-1.5817900000000005,33.0,28.11,0,18.0,0.0,3.0,-4.607899999999999,-0.08469999999999998,-1.0,-0.17,14.119100000000001,-1.3935,-33.0488,0,1,0,100.0
4,60.0,2,20.0,0.0,6,2,-5.058,0.018,0.0202,-1.8434,33.0,28.102,0,18.0,0.0,3.0,-4.2219999999999995,-0.078,-1.002,-0.168,15.092,-1.3,-33.658,0,1,0,100.0
4,61.0,2,20.0,0.0,6,2,-4.8168,0.018,-0.012629999999999943,-2.0222899999999995,33.0,28.0752,0,18.0,0.0,3.0,-3.8267000000000007,-0.07130000000000002,-1.0087,-0.16130000000000003,16.036699999999996,-1.0655000000000003,-34.1873,0,1,0,100.0
4,62.0,2,20.0,0.5400000000000035,6,2,-4.564799999999998,0.017459999999999996,-0.028180000000000056,-2.0186599999999997,33.0,28.07,0,18.540000000000003,0.0,3.0,-3.447599999999998,-0.06459999999999996,-1.01,-0.16,16.905800000000003,-0.6689999999999978,-34.689600000000006,0,1,0,100.0
4,63.0,2,20.0,1.0,6,2,-4.303899999999999,0.016579999999999998,-0.07464000000000041,-1.9217399999999993,33.0,28.0784,0,19.0,0.0,3.0,-3.087099999999999,-0.05789999999999998,-1.0121,-0.16,17.7105,-0.16629999999999778,-35.2085,0,1,0,100.0
4,64.0,2,20.0,1.0,6,2,-4.0291999999999994,0.015239999999999997,-0.1979200000000002,-1.7167199999999996,33.0,28.1052,0,19.0,0.0,3.0,-2.7587999999999995,-0.05119999999999999,-1.0188,-0.16,18.414,0.48360000000000114,-35.778000000000006,0,1,0,100.0
4,65.0,2,20.0,1.0,6,2,-3.4575,0.010083333333333333,-0.31145,-1.0251833333333333,33.0,28.1155,0,19.0,0.0,3.0,-2.2058333333333335,-0.03816666666666667,-1.0318333333333334,-0.15,19.301333333333332,2.2426666666666666,-37.21033333333334,0,1,0,100.0
4,66.0,2,20.0,1.0,6,2,-3.357,0.008966666666666668,-0.35097999999999996,-0.864606666666667,33.0,28.1222,0,19.0,0.0,3.0,-2.127666666666667,-0.03593333333333334,-1.0340666666666667,-0.15,19.363866666666667,2.6357333333333326,-37.52746666666667,0,1,0,100.0
4,67.0,2,20.0,1.0,6,2,-3.2564999999999995,0.007849999999999994,-0.39051000000000025,-0.7040299999999992,33.0,28.1289,0,19.0,0.0,3.0,-2.0494999999999997,-0.03369999999999999,-1.0363,-0.15,19.4264,3.028800000000002,-37.8446,0,1,0,100.0
4,68.0,2,20.0,1.0,6,2,-3.1559999999999997,0.00673333333333333,-0.43004000000000014,-0.5434533333333327,33.0,28.1356,0,19.0,0.0,3.0,-1.971333333333333,-0.03146666666666666,-1.0385333333333333,-0.15,19.488933333333335,3.421866666666668,-38.16173333333333,0,1,0,100.0
4,69.0,2,20.0,1.0,6,2,-2.0502,-0.0013450000000000018,-0.2007849999999999,0.43567500000000003,33.0,28.14,0,19.0,0.0,3.0,-1.3285,-0.02,-1.06,-0.13885,18.1706,10.018900000000004,-41.91085,0,1,0,100.0
4,70.0,2,20.0,1.0,6,2,-1.876,-0.00235,-0.15355,0.48424999999999996,33.0,28.14,0,19.0,0.0,3.0,-1.295,-0.02,-1.06,-0.1355,17.648,11.647,-42.1755,0,1,0,100.0
4,71.0,2,20.0,1.0,6,2,-1.7018000000000004,-0.0033549999999999986,-0.10631500000000006,0.5328249999999999,33.0,28.14,0,19.0,0.0,3.0,-1.2615,-0.02,-1.06,-0.13215000000000002,17.1254,13.275099999999998,-42.44015,0,1,0,100.0
4,72.0,2,20.0,0.7599999999999966,6,2,-1.4603999999999981,-0.004,-0.05559999999999971,0.5111999999999992,33.0,28.14,0,18.759999999999998,0.0,3.0,-1.300000000000001,-0.022400000000000034,-1.06,-0.13,16.28119999999999,15.856000000000021,-42.3604,0,1,0,100.0
4,73.0,2,20.0,0.08999999999999768,6,2,-1.0985999999999987,-0.004,0.0013500000000001848,0.36379999999999946,33.0,28.14,0,18.089999999999996,0.0,3.0,-1.4675000000000005,-0.02910000000000002,-1.06,-0.13,14.860799999999996,20.144000000000013,-41.663599999999995,0,1,0,100.0
4,74.0,2,20.0,1.0,6,2,-0.31469999999999965,-0.0027099999999999993,0.022830000000000013,0.29000999999999993,33.0,28.14,0,19.0,0.0,3.0,-2.6486000000000005,-0.04870000000000002,-1.06,-0.12,11.5308,30.388200000000005,-36.518299999999996,0,1,0,100.0
4,75.0,2,20.0,1.0,6,2,-0.12375000000000001,-0.002375,0.031875,0.246125,33.0,28.14,0,19.0,0.0,3.0,-3.0975,-0.058750000000000004,-1.06,-0.12,10.7,32.9275,-34.59875,0,1,0,100.0
4,76.0,2,20.0,1.0,6,2,0.06719999999999965,-0.0020400000000000006,0.040919999999999984,0.2022400000000001,33.0,28.14,0,19.0,0.0,3.0,-3.5463999999999993,-0.06879999999999999,-1.06,-0.12,9.869200000000001,35.4668,-32.67920000000001,0,1,0,100.0
4,77.0,2,20.0,1.0,6,2,0.4380999999999987,-0.002,-0.02112999999999976,0.18874000000000002,33.0,28.14,0,19.0,0.0,3.0,-4.6737999999999955,-0.08769999999999994,-1.06,-0.12,8.365800000000005,39.599099999999986,-27.96600000000002,0,1,0,100.0
4,78.0,2,20.0,1.0,6,2,0.8334000000000014,-0.002,-0.03561999999999974,0.18039999999999998,33.0,28.14,0,19.0,0.0,3.2600000000000025,-5.971200000000005,-0.1104000000000001,-1.06,-0.12,6.8075999999999945,43.38580000000001,-22.57499999999998,0,1,0,100.0
4,79.0,2,20.0,1.0,1,5,1.2287000000000041,-0.002,0.04009000000000078,0.1736999999999999,33.0,28.14,0,19.0,0.0,3.930000000000007,-7.391600000000015,-0.1372000000000003,-1.06,-0.12,5.306799999999985,46.28690000000003,-16.71249999999994,0,1,0,100.0
4,80.0,2,20.0,0.7,1,5,1.444,-0.002,0.025800000000000003,0.1706,33.0,28.119,0,19.0,0.0,4.0,-8.185,-0.152,-1.06,-0.12,4.5200000000000005,47.055,-13.346,0,1,0,100.0
4,81.0,2,20.0,0.3649999999999977,1,5,1.6383000000000014,-0.002,0.0010099999999998361,0.16791999999999999,33.0,28.09555,0,19.0,0.0,4.0,-8.905250000000004,-0.1654000000000001,-1.06,-0.12,3.816499999999995,47.574250000000006,-10.27069999999998,0,1,0,100.0
4,82.0,2,20.0,0.03000000000000108,1,5,1.8325999999999996,-0.002,-0.02377999999999991,0.16524000000000003,33.0,28.0721,0,19.0,0.0,4.0,-9.625499999999997,-0.17879999999999996,-1.06,-0.12,3.113000000000002,48.0935,-7.19540000000001,0,1,0,100.0
4,83.0,2,20.0,0.0,1,6,2.185500000000001,0.023010000000000096,2.122420000000008,0.7676800000000022,33.0,28.07,0,19.0,0.0,4.0,-10.879500000000005,-0.20440000000000008,-1.0539,-0.12,1.8970999999999956,47.1701,-1.661799999999981,0,1,0,100.0
4,84.0,2,20.0,0.0,1,6,3.051600000000003,0.09976000000000028,2.912079999999998,1.749400000000002,33.0,28.0288,0,19.0,0.0,4.0,-13.457200000000007,-0.2528000000000001,-1.0472,-0.13,-0.740400000000008,39.76639999999995,10.69240000000004,0,1,0,100.0
4,85.0,2,20.0,0.0,1,6,3.3665000000000003,0.1279,2.7016999999999998,1.95375,33.0,28.002,0,19.0,0.0,4.0,-14.1205,-0.2595,-1.0405,-0.13,-1.5310000000000001,34.8285,14.5985,0,1,0,100.0
4,86.0,2,20.0,0.0,1,6,3.638000000000002,0.15170000000000017,2.3096599999999974,2.2765200000000023,33.0,27.9814,0,19.0,0.0,4.0,-14.393200000000002,-0.26620000000000005,-1.04,-0.13620000000000004,-2.0550000000000033,28.85519999999996,17.62420000000002,0,1,0,100.0
4,87.0,2,20.0,0.0,1,6,4.14335,0.19648,1.7310250000000005,2.6312549999999995,33.0,27.964199999999998,0,19.0,0.0,4.0,-14.125300000000001,-0.25855,-1.03855,-0.14,-2.7819,14.59530000000001,22.918149999999997,0,1,0,100.0
4,88.0,2,20.0,0.0,1,6,4.220400000000001,0.20452000000000004,1.5785999999999996,2.7381200000000003,33.0,27.9508,0,19.0,0.0,4.0,-13.8372,-0.2552,-1.0352000000000001,-0.14,-2.8556000000000004,11.62719999999999,23.745600000000003,0,1,0,100.0
4,89.0,2,20.0,0.0,1,6,4.29745,0.21256000000000008,1.4261749999999984,2.844985000000001,33.0,27.9374,0,19.0,0.0,4.0,-13.549099999999997,-0.25184999999999996,-1.03185,-0.14,-2.929300000000001,8.65909999999997,24.57305000000001,0,1,0,100.0
4,90.0,2,20.0,0.0,1,6,4.382,0.223,1.324,2.9442,33.0,27.93,0,19.0,0.0,4.0,-12.985,-0.241,-1.03,-0.14300000000000002,-3.048,4.833,25.642,0,1,0,100.0
4,91.0,2,20.0,0.0,1,6,4.475800000000001,0.23640000000000008,1.2837999999999998,3.0339800000000006,33.0,27.93,0,19.0,0.0,4.0,-12.080499999999994,-0.22089999999999987,-1.03,-0.14970000000000003,-3.2222000000000013,-0.05130000000003232,27.008800000000008,0,1,0,100.0
4,92.0,2,20.0,0.0,1,6,4.4928,0.24243999999999996,1.2007200000000002,3.0987999999999998,33.0,27.9204,0,19.0,0.0,4.0,-11.489600000000001,-0.21040000000000003,-1.03,-0.15,-3.3771999999999993,-1.9563999999999937,27.662,0,1,0,100.0
4,93.0,2,20.0,0.0,1,6,4.5062,0.24813500000000002,1.1156299999999997,3.16245,33.0,27.910349999999998,0,19.0,0.0,4.0,-10.913399999999998,-0.20034999999999997,-1.03,-0.15,-3.5313000000000003,-3.7218500000000057,28.281750000000002,0,1,0,100.0
4,94.0,2,20.0,0.0,1,6,4.5196,0.25383000000000006,1.0305399999999991,3.2261000000000006,33.0,27.900299999999998,0,19.0,0.0,4.0,-10.337199999999994,-0.19029999999999989,-1.03,-0.15,-3.6854000000000013,-5.487300000000017,28.90150000000001,0,1,0,100.0
4,95.0,2,20.0,0.0,1,6,4.379,0.27415,0.6796,3.5584499999999997,33.0,27.874,0,19.0,0.0,4.0,-6.9555,-0.124,-1.0235,-0.16,-5.1850000000000005,-9.8525,31.814999999999998,0,1,0,100.0
4,96.0,2,20.0,0.0,1,6,4.051999999999999,0.28712,0.5405199999999993,3.694280000000001,33.0,27.86,0,19.0,0.0,4.0,-3.641599999999995,-0.06359999999999992,-1.0184,-0.17,-7.158400000000003,-11.1448,34.0892,0,1,0,100.0
4,97.0,2,20.0,0.0,1,6,3.9515000000000002,0.289465,0.4473900000000003,3.7974599999999996,33.0,27.86,0,19.0,0.0,4.0,-2.891200000000002,-0.05020000000000005,-1.01505,-0.17,-7.657549999999999,-11.2386,34.4644,0,1,0,100.0
4,98.0,2,20.0,0.0,1,6,3.8509999999999995,0.29181,0.3542599999999997,3.90064,33.0,27.86,0,19.0,0.0,4.0,-2.1407999999999974,-0.03679999999999995,-1.0117,-0.17,-8.156700000000003,-11.332400000000002,34.839600000000004,0,1,0,100.0
4,99.0,2,20.0,0.0,1,6,3.674599999999997,0.29498,0.34462000000000076,3.95828,33.0,27.86,0,19.0,0.0,4.0,-1.0207999999999846,-0.016799999999999725,-1.0067,-0.17,-8.918200000000011,-11.479000000000003,35.224700000000006,0,1,0,100.0
4,100.0,2,20.0,0.0,1,6,2.99,0.304,0.296,3.995,33.0,27.86,0,19.0,0.0,4.0,2.68,0.05,-0.99,-0.16,-11.47,-12.17,35.55,0,1,0,100.0
