gait_percent,walk_dt_ms_mean,walk_dt_ms_sd,walk_exec_ms_mean,walk_exec_ms_sd,walk_tilt_forward_deg_mean,walk_tilt_forward_deg_sd,walk_pos_rad_mean,walk_pos_rad_sd,walk_vel_rad_s_mean,walk_vel_rad_s_sd,walk_tq_nm_mean,walk_tq_nm_sd,walk_temp_c_mean,walk_temp_c_sd,walk_vbus_v_mean,walk_vbus_v_sd,walk_fb_age_ms_mean,walk_fb_age_ms_sd,walk_typical_stride_ms_mean,walk_typical_stride_ms_sd,walk_effective_step_count_mean,walk_effective_step_count_sd,walk_tilt_accel_deg_mean,walk_tilt_accel_deg_sd,walk_acc_x_mean,walk_acc_x_sd,walk_acc_y_mean,walk_acc_y_sd,walk_acc_z_mean,walk_acc_z_sd,walk_gyr_x_mean,walk_gyr_x_sd,walk_gyr_y_mean,walk_gyr_y_sd,walk_gyr_z_mean,walk_gyr_z_sd,cfg_assist_pct_mean,cfg_assist_pct_sd,ankle_joint_angle_deg_mean,ankle_joint_angle_deg_sd,leg_tilt_angle_deg_mean,leg_tilt_angle_deg_sd,foot_tilt_angle_deg_mean,foot_tilt_angle_deg_sd
0.0,20.0,0.0,0.0,0.0,5.839230769230769,3.066714669870146,-0.04935897435897436,0.05139654257237604,0.7910256410256411,0.6596879041669503,2.57676923076923,1.3005217872178612,37.51282051282051,2.4695172644806815,25.762307692307694,0.09688467203904483,19.076923076923077,4.257406026311618,1641.0,0.0,77.46153846153847,20.877898353907977,11.605897435897436,6.0225395578647625,-0.2233333333333333,0.11673932574517722,-1.0743589743589748,0.016350578904103845,-0.022820512820512822,0.02762042702790416,-1.0664102564102562,2.929420175410582,6.946923076923077,9.949789776632986,-0.39692307692307693,1.8463436896317316,100.0,0.0,2.8280609118636795,2.944804970961606,5.839230769230769,3.066714669870146,-3.0111698573670904,2.159651142926834
1.0,20.0,0.0,0.0,0.0,5.599654700854701,3.0169933508048072,-0.04384115384615385,0.050163873631454636,0.7690897435897435,0.7034992262348911,1.919273846153846,1.035655482846785,37.52192307692308,2.479560024476067,25.762307692307694,0.09688467203904483,22.148717948717948,7.939072986944875,1641.0,0.0,77.46153846153847,20.877898353907977,11.39168205128205,5.940456562813111,-0.21992222222222219,0.11452001953062332,-1.0754008547008551,0.01614512670155696,-0.023571794871794872,0.026168924406409867,-1.2519782051282051,2.744086632119743,5.814065384615384,9.515515156983536,1.2665141025641027,2.060072513381019,100.0,0.0,2.5119130843683517,2.8741782431099496,5.599654700854701,3.0169933508048072,-3.0877416164863485,1.994792898418199
2.0,20.0,0.0,0.0,0.0,5.361224786324786,2.9739153281276174,-0.04094846153846154,0.049369899765282166,0.766668205128205,0.7733962631722491,1.5673564102564101,1.0070036546201575,37.53102564102564,2.4908599179609,25.76317948717949,0.09701624166652938,29.02051282051282,11.122078078431478,1641.0,0.0,77.46153846153847,20.877898353907977,11.186653846153847,5.832045829536474,-0.21564444444444442,0.11222512314587679,-1.0760786324786327,0.015855650914324823,-0.024879487179487184,0.02487803067480242,-1.4393589743589743,2.580354744554765,4.487879487179487,8.986912205072073,2.7320871794871793,2.696368513797721,100.0,0.0,2.346174023707624,2.828686891534582,5.361224786324786,2.9739153281276174,-3.0150507626171623,1.974188912450884
3.0,20.0,0.0,0.0,0.0,5.158817948717949,2.990249752715772,-0.040554358974358974,0.04753620065386577,0.8216651282051282,0.9617151176383066,1.5032382051282052,1.0307498883155326,37.53846153846154,2.501011940944093,25.76579487179487,0.09921883827049281,37.414529914529915,14.291746677433023,1641.0,0.0,77.46153846153847,20.877898353907977,11.039332905982906,5.723396202184983,-0.21185213675213674,0.10987177855082864,-1.0756008547008549,0.015909838688262068,-0.02631666666666667,0.02380353615186898,-1.5657350427350427,2.4203068844848414,3.387308547008547,8.486401962355119,3.7721004273504284,3.0601752755827274,100.0,0.0,2.3235936100892625,2.723623671553533,5.158817948717949,2.990249752715772,-2.8352243386286857,1.9847133513245563
4.0,20.0,0.0,0.003076923076923075,0.019215378456610446,4.972423931623932,2.9635279795362277,-0.04004410256410257,0.04600646068577009,0.8804317948717948,1.112501185964765,1.4053897435897438,0.9875889970915271,37.53846153846154,2.501011940944093,25.776184615384615,0.10240714802986786,43.88581196581196,15.7354496925903,1641.0,0.0,77.46153846153847,20.877898353907977,10.903639316239317,5.583157564255414,-0.2090307692307692,0.1065482806260311,-1.0745709401709405,0.015585409242511427,-0.028200000000000003,0.023321821721749198,-1.6539709401709404,2.306007628132363,2.196300854700855,7.940226834679778,4.664073504273505,3.4280749470061465,100.0,0.0,2.294358071312075,2.6359760276291735,4.972423931623932,2.9635279795362277,-2.6780658603118566,1.8898341833661167
5.0,20.0,0.0,0.016025641025641024,0.08516377015074424,4.760149572649572,2.929729932752637,-0.038542948717948715,0.0457464098205639,0.9916910256410258,2.4021637553702933,1.0043192307692308,0.8561857388383564,37.55128205128205,2.4836170349408366,25.817397435897433,0.11182497364227023,39.6258547008547,18.169496881871027,1641.0,0.0,77.46153846153847,20.877898353907977,10.721320512820512,5.452418066118982,-0.20489316239316244,0.10403820139582198,-1.0730213675213678,0.014731821957844568,-0.030980769230769232,0.022957009637537197,-1.7378397435897437,2.1378135400991405,0.6899679487179486,7.584454780742737,5.669175213675213,3.45242935754778,100.0,0.0,2.2083482915276282,2.6210762105941328,4.760149572649572,2.929729932752637,-2.5518012811219437,1.8188722062990512
6.0,20.0,0.0,0.0423076923076923,0.18591822676793796,4.602204273504274,2.914867742299505,-0.0365408547008547,0.046325843422876885,1.1580294017094015,3.820450129479545,0.42557333333333336,0.6190973467214537,37.58974358974359,2.4464576831986107,25.87087008547008,0.07712065954305015,23.896324786324787,20.629626042182053,1641.0,0.0,77.46153846153847,20.877898353907977,10.592205128205128,5.305852698939022,-0.20227435897435894,0.10142401225010121,-1.0711333333333333,0.014473448163944427,-0.03312564102564103,0.02245778165391931,-1.8329299145299147,1.9943984275379336,-0.4430786324786323,7.4348437894824055,6.299194871794873,3.5919317749396296,100.0,0.0,2.0936367541597485,2.6542753105147288,4.602204273504274,2.914867742299505,-2.508567519344525,1.7975557824837012
7.0,20.0,0.0,0.04256410256410257,0.1895245845560599,4.465020940170941,2.8867602391333937,-0.03827602564102564,0.04555208402967634,0.03480487179487186,4.303161803009303,0.1409078205128205,0.45592343766423343,37.59846153846154,2.430223661421807,25.890065384615383,0.06488009198538798,11.063717948717951,12.099159650519654,1641.0,0.0,77.46153846153847,20.877898353907977,10.451736324786326,5.158397393881154,-0.1988880341880342,0.09859817738703686,-1.0693175213675215,0.014621677884652743,-0.03519102564102564,0.021226627616581242,-1.8970829059829062,1.8869250727332714,-1.4134995726495727,7.218047813749328,6.819956410256409,3.7061805805271857,100.0,0.0,2.19305472576529,2.6099421629257336,4.465020940170941,2.8867602391333937,-2.2719662144056496,1.8156180701694193
8.0,20.0,0.0,0.02666666666666666,0.16008769526555935,4.3331811965811955,2.8983134567460533,-0.04129094017094018,0.04564524764659021,0.11951880341880357,1.3370727659999095,0.034897435897435894,0.21793441732872362,37.61435897435898,2.4035147453061696,25.89108888888889,0.03576657374240575,7.433504273504273,8.736548957643901,1641.0,0.0,77.46153846153847,20.877898353907977,10.330712820512819,4.987337176990848,-0.19593162393162394,0.09533698617364388,-1.0663726495726498,0.015188089500594307,-0.036635897435897444,0.020564500418509758,-1.9710905982905988,1.6339098103683856,-2.4847829059829056,7.156570840184376,7.667054700854702,3.9754906558886205,100.0,0.0,2.3657966039220617,2.615280044979072,4.3331811965811955,2.8983134567460533,-1.967384592659135,1.9359377296212843
9.0,20.0,0.0,0.02564102564102564,0.16012815380508716,4.2135991452991455,2.894541885628893,-0.04253598290598291,0.04468799862391912,-0.10319854700854691,0.3046910265505146,0.0,0.0,37.666666666666664,2.4097754135727354,25.888480341880342,0.021552220978817833,6.051282051282051,3.2521144372685313,1641.0,0.0,77.46153846153847,20.877898353907977,10.198929914529915,4.829852115238698,-0.19294786324786328,0.09152599790276951,-1.063140170940171,0.01454219597284746,-0.03869358974358975,0.020094897164150576,-2.0243102564102564,1.5516088386703626,-3.2835089743589743,7.1718307900092055,8.158567521367523,4.251350110681987,100.0,0.0,2.437132297953435,2.5604337160369957,4.2135991452991455,2.894541885628893,-1.7764668473457101,1.934014344521087
10.0,20.0,0.0,0.02564102564102564,0.16012815380508716,4.111008547008548,2.881512018302359,-0.04368974358974358,0.043283493540730036,-0.04061410256410257,0.2582901973476422,0.0,0.0,37.666666666666664,2.4097754135727354,25.889871794871794,0.020274665922589058,6.051282051282051,3.2521144372685313,1641.0,0.0,77.46153846153847,20.877898353907977,10.078098290598291,4.649037706930848,-0.18951709401709405,0.08790431895389578,-1.0583119658119657,0.013857259982443249,-0.04094444444444445,0.018753998923790316,-2.104482905982906,1.5200006313455097,-4.002226495726496,6.934607170587342,8.607470085470085,4.461724811513168,100.0,0.0,2.5032379157010505,2.4799615024655908,4.111008547008548,2.881512018302359,-1.6077706313074964,1.8818215571004737
11.0,20.0,0.0,0.02564102564102564,0.16012815380508716,4.039363247863248,2.8587003768126156,-0.04356038461538462,0.042720724084401314,0.05368384615384614,0.26919714974262754,0.0,0.0,37.67897435897436,2.423194710416064,25.888628205128207,0.020900225996233795,6.051282051282051,3.2521144372685313,1641.0,0.0,77.46153846153847,20.877898353907977,9.936077350427349,4.509456138781576,-0.18544829059829063,0.08466378593618308,-1.0542880341880343,0.013743174248751617,-0.043895299145299146,0.018103821746343004,-2.188329914529915,1.511337827722693,-4.474749145299145,6.8057777056041635,8.827626068376068,4.684132764320792,100.0,0.0,2.495826192428141,2.4477171877790838,4.039363247863248,2.8587003768126156,-1.5435370554351078,1.8958810336424055
12.0,20.0,0.0,0.02564102564102564,0.16012815380508716,3.998369230769231,2.8522895378010618,-0.04263282051282052,0.04170295268788518,0.12929230769230765,0.26536017825293445,0.0,0.0,37.69230769230769,2.440382262483592,25.88897435897436,0.021456402773368063,6.051282051282051,3.2521144372685313,1641.0,0.0,77.46153846153847,20.877898353907977,9.810420512820514,4.365720605568334,-0.1826102564102564,0.08142839216104246,-1.0504923076923078,0.012701997037668498,-0.04600512820512822,0.017547438690258876,-2.2383025641025647,1.567101431488147,-4.67845641025641,6.58211069505803,8.899666666666668,5.064459557665366,100.0,0.0,2.4426806841233772,2.389403182249573,3.998369230769231,2.8522895378010618,-1.5556885466458537,1.9246976503159618
13.0,20.0,0.0,0.014615384615384622,0.07653159491506056,3.9644025641025644,2.8553890774317683,-0.0412457264957265,0.04111468069182908,0.18335461538461542,0.28877969333173203,0.0,0.0,37.70051282051282,2.438530563483229,25.88984871794872,0.021711600971235045,6.0402564102564105,3.259349698764986,1641.0,0.0,77.46153846153847,20.877898353907977,9.65868418803419,4.192941857367957,-0.17944401709401708,0.07733976809730378,-1.0465743589743586,0.011162358324512905,-0.047557264957264964,0.01697524117031989,-2.3009564102564095,1.591300500223613,-4.909353846153846,6.076675379154119,8.777351282051283,5.314385040387176,100.0,0.0,2.363206051156043,2.355697679669822,3.9644025641025644,2.8553890774317683,-1.6011965129465215,1.93389493338855
14.0,20.0,0.0,0.05641025641025642,0.21000610491736688,3.9551247863247863,2.8484489577377556,-0.03914794871794872,0.04036620174167905,0.2696215384615384,0.3334582737373399,0.0,0.0,37.71692307692308,2.438055905673675,25.891533333333335,0.02134431186810212,6.082051282051282,3.280474275312208,1641.0,0.0,77.46153846153847,20.877898353907977,9.53098888888889,4.058202192062012,-0.17635213675213673,0.07455854907028561,-1.042862393162393,0.011156072952105535,-0.049368376068376074,0.016687847854259027,-2.3698068376068373,1.6397818877956483,-4.922360683760684,5.816945543577966,8.429060683760685,5.662765095558696,100.0,0.0,2.2430122381330433,2.3128129947718423,3.9551247863247863,2.8484489577377556,-1.712112548191742,1.9732941608032006
15.0,20.0,0.0,0.08846153846153847,0.27612486174058115,3.965153846153846,2.844948819256339,-0.03578482905982906,0.03898072697570949,0.3718190170940171,0.3732814862178794,0.0,0.0,37.717948717948715,2.4381692651909948,25.889794871794873,0.022317304458034176,6.114102564102564,3.2871149708078424,1641.0,0.0,77.46153846153847,20.877898353907977,9.376602564102566,3.911706858701749,-0.17197222222222225,0.07172558607537306,-1.0385940170940173,0.010670112852828612,-0.051243589743589744,0.01653619307795694,-2.4727008547008547,1.6692890997610694,-4.847465811965812,5.570118620311542,7.7056581196581195,5.7356660453235655,100.0,0.0,2.050319675725307,2.2334311380599114,3.965153846153846,2.844948819256339,-1.914834170428539,1.9714335553540838
16.0,20.0,0.0,0.10461538461538462,0.3069188659620012,3.9872410256410262,2.8453851166638686,-0.03242068376068376,0.038624693819104675,0.4566784615384614,0.4084386610263072,0.002162051282051281,0.013502005928844943,37.723076923076924,2.445453519284257,25.88894700854701,0.021787314188058158,6.374358974358974,3.4790015165212003,1641.0,0.0,77.46153846153847,20.877898353907977,9.264184615384615,3.8010733875645997,-0.16934358974358976,0.06999176983941871,-1.0349452991452992,0.009456046325804428,-0.05323760683760684,0.015831095279474138,-2.555446153846154,1.6904203572276202,-4.702049572649573,5.334338894803402,7.009905982905984,5.981840295461075,100.0,0.0,1.8575683484155052,2.2130319408197354,3.9872410256410262,2.8453851166638686,-2.1296726772255203,2.033873954259206
17.0,20.0,0.0,0.14641025641025637,0.35049203894770836,4.025187606837608,2.8434516646098427,-0.027848461538461537,0.03919204062622975,0.5593801282051282,0.44530639284654083,0.007121794871794866,0.04447559471936292,37.741025641025644,2.474046115887043,25.8879094017094,0.020731756510126854,6.531025641025641,3.790870470007894,1641.0,0.0,77.46153846153847,20.877898353907977,9.147870512820512,3.692609791417638,-0.16714401709401708,0.06780601194334111,-1.0319358974358974,0.008192518640406895,-0.055141025641025646,0.015352022290045769,-2.636512393162393,1.7169497928749071,-4.476898717948718,5.131793334468535,6.077959401709402,6.281176035180347,100.0,0.0,1.5955993120862455,2.2455385183882246,4.025187606837608,2.8434516646098427,-2.4295882947513614,2.1369270813290817
18.0,20.0,0.0,0.1794871794871795,0.3887764119844716,4.080276923076922,2.8380775935425127,-0.021844615384615386,0.040341162982358736,0.6659304273504274,0.5126111522655409,0.014141025641025647,0.0883106768235056,37.743589743589745,2.478517688563795,25.888441025641026,0.020679365738373593,6.564102564102564,3.796084352363157,1641.0,0.0,77.46153846153847,20.877898353907977,9.007876923076925,3.570276198622936,-0.16357521367521366,0.06529800141929097,-1.0285811965811966,0.007552896485067181,-0.05705213675213674,0.015452429917115942,-2.708295726495727,1.7292044986802777,-4.234220512820513,4.922106396736687,4.8267367521367515,6.699238245693394,100.0,0.0,1.2516042666250091,2.311378379538545,4.080276923076922,2.8380775935425127,-2.8286726564519142,2.2700362154930365
19.0,20.0,0.0,0.19042735042735046,0.3855095962786296,4.150455128205127,2.815741068113875,-0.015312948717948721,0.041533568271246935,0.7501160256410256,0.5713704525494656,0.021574871794871782,0.13210298044113342,37.743589743589745,2.478517688563795,25.88960341880342,0.020119147719604227,6.586324786324787,3.7976724785466947,1641.0,0.0,77.46153846153847,20.877898353907977,8.886531196581197,3.444479644341131,-0.16083376068376065,0.06273726408896167,-1.0248688034188034,0.006645664483349368,-0.05878760683760683,0.015818039574909473,-2.821624786324786,1.729270029490995,-3.860977350427351,4.467386231886191,3.4043888888888887,6.670459007315744,100.0,0.0,0.8773673334387263,2.3796981700609163,4.150455128205127,2.815741068113875,-3.2730877947664023,2.251165744996739
20.0,20.0,0.0,0.3085470085470085,0.42078442124773624,4.229273504273504,2.8185056208783363,-0.0067341880341880355,0.04382413584192161,0.8545965811965812,0.5838992352183628,0.07325128205128205,0.4385317049522339,37.743589743589745,2.478517688563795,25.88564102564103,0.030372673988902737,6.775213675213674,3.9035874784202558,1641.0,0.0,77.46153846153847,20.877898353907977,8.646957264957264,3.3317111273544335,-0.15609401709401707,0.06037204092819752,-1.0220512820512824,0.006529527382992911,-0.06099999999999999,0.015442593182834492,-2.933222222222222,1.7344389748575395,-3.3723333333333336,3.820711543908332,1.5153589743589744,7.552109020867477,100.0,0.0,0.3858405528064749,2.510938024550109,4.229273504273504,2.8185056208783363,-3.8434329514670287,2.55373114333181
21.0,20.0,0.0,0.3851282051282051,0.4657541806737914,4.307078205128206,2.81970708332665,0.0011165384615384598,0.04487604908836535,0.9417647435897436,0.5997343836385851,0.09086282051282048,0.5325975633724361,37.743589743589745,2.478517688563795,25.884633333333333,0.03976027065812031,6.922564102564104,4.061421819970206,1641.0,0.0,77.46153846153847,20.877898353907977,8.440902564102563,3.224777547528803,-0.1524230769230769,0.05817246573105501,-1.0199179487179486,0.006335992498785758,-0.06330384615384614,0.015431910652824591,-2.9994910256410257,1.7035330756166647,-3.0099551282051284,3.54639923107329,-0.21319230769230701,8.090366851211144,100.0,0.0,-0.0639729415101837,2.57120821398524,4.307078205128206,2.81970708332665,-4.371051146638388,2.697000832580442
22.0,20.0,0.0,0.5268376068376067,0.4692216702779716,4.418524786324787,2.791054859712547,0.012007692307692306,0.04563387639620121,0.993984786324786,0.6235579053208966,0.1562025641025641,0.7107509725735909,37.743589743589745,2.478517688563795,25.881729914529917,0.05106911026336643,7.116581196581197,4.130017804867918,1641.0,0.0,77.46153846153847,20.877898353907977,8.233101709401707,3.120322509552936,-0.14767179487179485,0.056167575367974086,-1.01777264957265,0.006175720578715239,-0.0654888888888889,0.015080907206903563,-3.113649572649573,1.6507106324189005,-2.5422700854700855,3.098192061479172,-2.6404299145299137,7.931047850789231,100.0,0.0,-0.6879900909224731,2.614628520323996,4.418524786324787,2.791054859712547,-5.106514877247258,2.7437891570823436
23.0,20.0,0.0,0.6335470085470086,0.4606453932121751,4.506691452991453,2.7827078648178607,0.021033333333333338,0.04531388869136408,0.9881479059829061,0.6760709910238023,0.20182948717948723,0.8999517608912764,37.743589743589745,2.478517688563795,25.874278632478635,0.07259619812157067,7.223290598290599,4.127462945154412,1641.0,0.0,77.46153846153847,20.877898353907977,8.005752564102563,3.0559947542621937,-0.14300897435897433,0.05475008556245202,-1.016837606837607,0.005899362783942031,-0.06735811965811966,0.015304374767188135,-3.1917833333333334,1.644014972910822,-2.2002833333333336,2.830912995220066,-4.711390598290598,8.372292726368673,100.0,0.0,-1.2051212290918316,2.596294575340751,4.506691452991453,2.7827078648178607,-5.711812682083285,2.817728873085103
24.0,20.0,0.0,0.7555555555555556,0.3931856199988489,4.599859829059829,2.7753178838124692,0.030377435897435905,0.045345595571089435,0.9387454700854702,0.7220529235513538,0.24116923076923086,1.0599405996648181,37.743589743589745,2.478517688563795,25.866760683760685,0.09327713059436255,7.341196581196582,4.158347307727424,1641.0,0.0,77.46153846153847,20.877898353907977,7.751376068376067,2.9721495952404933,-0.13796410256410255,0.0536519318251822,-1.0156564102564103,0.0056611229531267435,-0.06918119658119656,0.01527064951278138,-3.2475948717948717,1.6172000957820807,-1.8894888888888886,2.5740948708341307,-6.9388547008547,8.649326741778916,100.0,0.0,-1.740498869352279,2.598111245730543,4.599859829059829,2.7753178838124692,-6.340358698412108,2.90792100816755
25.0,20.0,0.0,0.8525641025641025,0.30195606118769863,4.683675213675214,2.7681669499359,0.03800854700854701,0.04387848320453129,0.904167735042735,0.8292565914544696,0.272974358974359,1.186004081041161,37.743589743589745,2.478517688563795,25.86542735042735,0.11424629407064733,7.608974358974359,4.169435652126074,1641.0,0.0,77.46153846153847,20.877898353907977,7.479914529914529,2.922278528487348,-0.13335470085470083,0.05237610247394678,-1.0147115384615386,0.005600909953542589,-0.07049145299145299,0.014941978363787764,-3.2599358974358976,1.6199856015466305,-1.5733867521367522,2.288100874528955,-8.946089743589743,8.847192704269846,100.0,0.0,-2.1777293290143342,2.514051899055311,4.683675213675214,2.7681669499359,-6.861404542689547,2.887668800749385
26.0,20.0,0.0,0.8734188034188036,0.29400092212478923,4.7740316239316245,2.759160792375851,0.04588760683760683,0.04394933118564965,0.7342240170940171,0.8891090382690324,0.2929817948717948,1.2683204333619857,37.743589743589745,2.478517688563795,25.861064102564104,0.13060715557280758,8.139316239316239,4.51321381449767,1641.0,0.0,77.46153846153847,20.877898353907977,7.150960683760684,2.861794204106782,-0.12747692307692307,0.05104133009060308,-1.013923076923077,0.005716387409915721,-0.07248974358974358,0.014425667819473275,-3.2953452991452994,1.577049019075343,-1.2634444444444446,1.937375248733569,-11.201786324786326,8.888479688110246,100.0,0.0,-2.62916620375053,2.518111189360415,4.7740316239316245,2.759160792375851,-7.403197827682154,2.8911328308111823
27.0,20.0,0.0,0.8397863247863248,0.3247333993090034,4.855092307692308,2.7612905408295854,0.0496115811965812,0.04400201895944233,0.5138108547008545,0.895595293585515,0.31029141025641027,1.3415533705093259,37.743589743589745,2.478517688563795,25.853805982905985,0.14964295530177774,8.534786324786324,4.651238707857176,1641.0,0.0,77.46153846153847,20.877898353907977,6.752064957264957,2.750517448486162,-0.11981495726495726,0.049136385083828796,-1.013397435897436,0.005547284170962796,-0.07446068376068375,0.014096068407517315,-3.300397863247863,1.583196939490836,-1.0077427350427353,1.7238669083831961,-13.126388888888888,9.21055220986257,100.0,0.0,-2.842534217534697,2.521129976430676,4.855092307692308,2.7612905408295854,-7.697626525227004,2.8919762301680825
28.0,20.0,0.0,0.7200000000000001,0.41427171353059933,4.93025982905983,2.7540603179316565,0.052492649572649576,0.04374715851209929,0.2296550427350425,0.9619847294562126,0.3093880341880342,1.3192560348331535,37.743589743589745,2.478517688563795,25.85017435897436,0.14918387305673111,9.71076923076923,5.165109355654577,1641.0,0.0,77.46153846153847,20.877898353907977,6.378218803418804,2.716903436499512,-0.11322564102564102,0.04810406753633482,-1.0136102564102565,0.005619130616019893,-0.0766905982905983,0.013905280979049391,-3.246311111111111,1.6041404442848053,-0.7504837606837607,1.5343040092877547,-14.797752136752141,9.340982451014638,100.0,0.0,-3.0076072759720254,2.5065275484331035,4.93025982905983,2.7540603179316565,-7.937867105031856,2.8752840919298777
29.0,20.0,0.0,0.5697435897435899,0.4813931929388149,5.035238034188034,2.731094418735639,0.05327175213675213,0.04090979552294713,-0.13151782051282054,0.9603099878848782,0.42456923076923064,1.2805600582647723,37.743589743589745,2.478517688563795,25.842012393162392,0.13330357265001,11.184358974358974,5.819166966459697,1641.0,0.0,77.46153846153847,20.877898353907977,5.79997264957265,2.6417391166015163,-0.10255683760683762,0.04693499575248515,-1.0141782051282051,0.0063081483945244595,-0.07923290598290599,0.013413853626412179,-3.1597461538461533,1.600446739503155,-0.48159444444444444,1.3829818017588307,-16.932963675213674,8.924315571645149,100.0,0.0,-3.0522465647029224,2.343958624208061,5.035238034188034,2.731094418735639,-8.087484598890958,2.641742040962038
30.0,20.0,0.0,0.5628205128205129,0.4524375427553144,5.100230769230769,2.7183704165657625,0.05173333333333334,0.039628634834301436,-0.28354230769230765,0.9247095715615345,0.5483747863247864,1.2887145076925712,37.743589743589745,2.478517688563795,25.83218376068376,0.11999179306043942,11.97820512820513,5.946723941888141,1641.0,0.0,77.46153846153847,20.877898353907977,5.290846153846154,2.6625168254100373,-0.09435897435897438,0.047164458730504163,-1.0139871794871795,0.00695709329379128,-0.0815854700854701,0.012784417586790503,-3.0131752136752135,1.6035585135434798,-0.2821923076923077,1.3431143336888054,-18.32910256410256,8.304165882220662,100.0,0.0,-2.964101660143459,2.2705535238705887,5.100230769230769,2.7183704165657625,-8.064332429374229,2.443150973087401
31.0,20.0,0.0,0.4929487179487181,0.44952858048111444,5.155267521367521,2.70773719233651,0.0482359829059829,0.0390600434099456,-0.4570837179487178,0.8888315252051197,0.6740482905982906,1.3114901032204171,37.743589743589745,2.478517688563795,25.827461965811967,0.09798578761878468,13.357564102564103,5.56964941160134,1641.0,0.0,77.46153846153847,20.877898353907977,4.753566666666666,2.7023462950782955,-0.08540128205128204,0.04793058705267102,-1.0148166666666667,0.006926629898759281,-0.08504273504273505,0.014316912153437163,-2.7576106837606837,1.6601309404228415,-0.05598803418803426,1.2376432914084154,-19.062031623931627,7.595536822909196,100.0,0.0,-2.7637182411780046,2.237975634987668,5.155267521367521,2.70773719233651,-7.918985762545526,2.3691240213562943
32.0,20.0,0.0,0.41230769230769226,0.4544195924384234,5.183654700854701,2.6993174201465915,0.04318393162393162,0.037550483686248644,-0.6031326495726494,0.8064136123070715,0.7370348717948717,1.353129176738655,37.743589743589745,2.478517688563795,25.821410256410257,0.08451838727031268,14.275897435897436,5.289336202482121,1641.0,0.0,77.46153846153847,20.877898353907977,4.254008547008548,2.6948040782945357,-0.07645470085470085,0.04811744372951589,-1.0159333333333336,0.006759372959603402,-0.08715042735042734,0.013950754809474865,-2.50371282051282,1.7151988872897403,0.11805811965811962,1.1882435921114962,-19.237738461538463,7.320335587238987,100.0,0.0,-2.474257024832809,2.151484233896897,5.183654700854701,2.6993174201465915,-7.65791172568751,2.3073223320047047
33.0,20.0,0.0,0.3638461538461539,0.4610092782752538,5.214757264957265,2.700595921329961,0.03696136752136752,0.03617171770830853,-0.705401282051282,0.7182246209557265,0.6947925641025638,1.5158038971753356,37.7548717948718,2.4713632204395672,25.813942307692308,0.09813298478304357,15.281794871794872,4.882730508636843,1641.0,0.0,77.46153846153847,20.877898353907977,3.6316641025641028,2.573624572745726,-0.06492393162393163,0.04626495408549774,-1.0180551282051282,0.006465259335293883,-0.08916538461538462,0.013897241082912796,-2.1374004273504275,1.746117355787566,0.28934059829059816,1.1874494892415108,-19.17193974358974,7.356408943265045,100.0,0.0,-2.1177303640062752,2.0724867624247008,5.214757264957265,2.700595921329961,-7.332487628963542,2.218317327130148
34.0,20.0,0.0,0.4376923076923077,0.455893925442159,5.213972649572649,2.687336963746387,0.03014598290598291,0.03325856905084225,-0.6311291452991453,0.5940579138762621,0.6422882051282048,1.751451081628079,37.76615384615385,2.4662016558439515,25.80468717948718,0.14212671547728656,15.518205128205128,4.86491622245974,1641.0,0.0,77.46153846153847,20.877898353907977,3.120011965811966,2.600535206210818,-0.05539316239316239,0.04663490785215907,-1.0196282051282053,0.007222368350367778,-0.09116752136752138,0.014111818461945076,-1.7713495726495727,1.8363260341603809,0.4350256410256409,1.3325385655953523,-18.20728974358974,7.546006149082925,100.0,0.0,-1.7272375897863452,1.905575639257681,5.213972649572649,2.687336963746387,-6.941210239358995,2.2884670455265184
35.0,20.0,0.0,0.4435897435897435,0.4297229044731964,5.21001282051282,2.673701772373738,0.023932051282051288,0.0317347486933311,-0.6511282051282052,0.514036560917462,0.4965076923076924,1.902019252984093,37.74871794871795,2.4750195953367613,25.79871153846154,0.15334127892999494,16.91410256410256,3.2057144436875435,1641.0,0.0,77.46153846153847,20.877898353907977,2.5043589743589743,2.519905244925726,-0.04436538461538461,0.04465742578942109,-1.022596153846154,0.007420990718149873,-0.09381410256410257,0.015001723360290228,-1.267826923076923,1.9305006638191224,0.5431282051282051,1.4804408581387822,-17.027621794871795,7.674938529428059,100.0,0.0,-1.3712055335521895,1.818267164036176,5.21001282051282,2.673701772373738,-6.581218354065009,2.2297309549314233
36.0,20.0,0.0,0.45863247863247875,0.4289690605868572,5.191738461538462,2.664255232815926,0.017456752136752133,0.02887057211423128,-0.632157264957265,0.49315435140103236,0.2944046153846154,2.0036086958806467,37.743589743589745,2.478517688563795,25.796157264957266,0.15101076177689976,17.117606837606836,3.1147915316759116,1641.0,0.0,77.46153846153847,20.877898353907977,1.9840085470085471,2.426053435731464,-0.03491965811965813,0.043655689471956055,-1.0242905982905985,0.007867015858730533,-0.09569230769230769,0.016000845119380817,-0.7469880341880343,1.9957028180522538,0.6030017094017095,1.6985692247029887,-15.359765811965808,7.867937939888375,100.0,0.0,-1.000198221441879,1.6541619342735385,5.191738461538462,2.664255232815926,-6.191936682980341,2.0509090173720517
37.0,20.0,0.0,0.5466666666666666,0.3906672579481785,5.150619658119658,2.660355880438352,0.01246837606837607,0.028462219863779937,-0.5742711111111111,0.40683103270088644,-0.04716354700854698,2.056924993179977,37.747692307692304,2.4756864667767156,25.79621196581197,0.14560931736445878,17.35846153846154,2.7384787466226594,1641.0,0.0,77.46153846153847,20.877898353907977,1.534251282051282,2.4304689179220444,-0.02682649572649572,0.043688029747802365,-1.0270564102564106,0.008805913762011638,-0.09754358974358975,0.01589150376892592,-0.22166239316239328,2.0481272547031506,0.6107602564102563,1.9248541787087718,-13.20636965811966,8.206781390582128,100.0,0.0,-0.7143853260998677,1.630765073768007,5.150619658119658,2.660355880438352,-5.865004984219526,2.063375591806619
38.0,20.0,0.0,0.6803418803418804,0.39099123909345257,5.108554700854701,2.651816191065678,0.008668803418803422,0.028400645661130854,-0.541046153846154,0.39319145252003873,-0.35902803418803403,2.074429002026008,37.76512820512821,2.4665881739708815,25.794164102564107,0.1436049835801036,17.791623931623935,2.237272497734643,1641.0,0.0,77.46153846153847,20.877898353907977,1.1411162393162395,2.3851199496467737,-0.02022136752136753,0.0428935330170978,-1.0294854700854703,0.009069048948093303,-0.09933589743589744,0.015707498832346,0.3125401709401706,2.0892549315804674,0.5800085470085471,2.1527243241738914,-11.051576923076924,8.57595615192362,100.0,0.0,-0.49668584932601506,1.6272371318293317,5.108554700854701,2.651816191065678,-5.6052405501807145,2.0729821288866597
39.0,20.0,0.0,0.683162393162393,0.4137718377961293,5.048994871794871,2.646357867647008,0.004206410256410259,0.02761761168045716,-0.5075975641025641,0.37727476100573776,-0.6909231196581197,2.08613908365392,37.76923076923077,2.4651415936864716,25.786462393162395,0.1365021197979237,18.04880341880342,1.128562646676467,1641.0,0.0,77.46153846153847,20.877898353907977,0.6909948717948721,2.3110383812430015,-0.012272649572649579,0.04177481779564513,-1.0324970085470087,0.011085995506551065,-0.10096538461538462,0.015631703420352576,0.9959508547008544,2.2308732601167485,0.41886880341880345,2.4123515999661715,-8.241728632478631,9.1206884274424,100.0,0.0,-0.2410095545928502,1.5823725895214005,5.048994871794871,2.646357867647008,-5.290004426387722,2.060420554674229
40.0,20.0,0.0,0.7256410256410256,0.41305179563215044,4.953700854700855,2.642861527101259,-0.001688034188034188,0.021452943863718404,-0.4464068376068376,0.39482251843471133,-0.874523076923077,2.1115120098608893,37.76923076923077,2.4651415936864716,25.775632478632478,0.12804065040894225,18.23846153846154,0.674104927953459,1641.0,0.0,77.46153846153847,20.877898353907977,0.2515726495726495,2.2456474208747443,-0.004401709401709401,0.04084582189883921,-1.0362820512820514,0.013439606837211486,-0.10230769230769231,0.015357415226174936,1.796957264957265,2.3129880969694043,0.20083760683760676,2.6551744778869417,-4.846290598290598,9.70333985432516,100.0,0.0,0.09671723464815178,1.229163141522142,4.953700854700855,2.642861527101259,-4.856983620052702,2.080956386440499
41.0,20.0,0.0,0.7884188034188035,0.3607053171717287,4.858176068376068,2.6373481197249795,-0.005731538461538463,0.019140496116263506,-0.3224828205128206,0.3520200286706092,-1.1131620085470086,2.0684491840358974,37.76923076923077,2.4651415936864716,25.771189743589744,0.1171472033830034,18.301239316239315,0.5970898868959664,1641.0,0.0,77.46153846153847,20.877898353907977,-0.1415615384615386,2.139971304530221,0.0024914529914529934,0.03886045902847049,-1.0398794871794874,0.015304867485082729,-0.10306880341880341,0.016068915990309168,2.5609094017094023,2.2603723138984257,-0.08163760683760725,2.871671720738947,-1.2195111111111088,9.89673098001972,100.0,0.0,0.3283929639630589,1.0966696452484421,4.858176068376068,2.6373481197249795,-4.52978310441301,2.0746334467373484
42.0,20.0,0.0,0.8829059829059828,0.27839050729848197,4.752453846153846,2.630526190192268,-0.007913333333333336,0.017271003434923025,-0.19767700854700868,0.35449981189694263,-1.2036676923076925,1.931736255964487,37.76923076923077,2.4651415936864716,25.77757948717949,0.09681594632542663,18.395726495726496,0.5477001082773196,1641.0,0.0,77.46153846153847,20.877898353907977,-0.5090444444444443,2.0835858669447185,0.009029914529914525,0.037805633877988076,-1.045828205128205,0.020061942875923437,-0.10335811965811964,0.016526204104459808,3.227971794871795,2.3286945249429616,-0.5155999999999996,3.154211154697962,2.8540709401709377,11.051925983671282,100.0,0.0,0.45340060188019154,0.9895556047770371,4.752453846153846,2.630526190192268,-4.299053244273655,2.0908276671968005
43.0,20.0,0.0,0.9317948717948717,0.20862799674454321,4.628697435897435,2.6346387152937747,-0.009982606837606841,0.015915194883707354,-0.07972525641025643,0.34324899417177107,-1.2996015384615387,1.804198159857839,37.76923076923077,2.4651415936864716,25.780762820512823,0.0866582654043334,18.444615384615382,0.5396336289014018,1641.0,0.0,77.46153846153847,20.877898353907977,-0.875641452991453,1.9792733635981166,0.015801282051282055,0.03627642319595522,-1.0531209401709403,0.023886262757242323,-0.10392564102564102,0.0164549419540104,4.049571794871796,2.2699619111630276,-1.0914935897435896,3.395561961012675,7.63553547008547,11.937786191956043,100.0,0.0,0.5719612403333095,0.9118734969646324,4.628697435897435,2.6346387152937747,-4.056736195564127,2.168662184205388
44.0,20.0,0.0,0.9483760683760685,0.19298042774871518,4.530666666666668,2.6300171875897584,-0.010238461538461537,0.014419279123324693,0.002158119658119647,0.33186970845754044,-1.2682873504273506,1.6355675050430467,37.76923076923077,2.4651415936864716,25.790979487179488,0.07947542215078719,18.461196581196585,0.5290770332593422,1641.0,0.0,77.46153846153847,20.877898353907977,-1.1131726495726495,1.895337606348612,0.020735042735042737,0.03449085474917279,-1.0594991452991454,0.027820968455464862,-0.10406837606837609,0.016580066148609834,4.585979487179488,2.225675077621866,-1.5890136752136752,3.5850052054471164,11.401391452991453,12.43822567456886,100.0,0.0,0.586620634860866,0.8261638373876025,4.530666666666668,2.6300171875897584,-3.944046031805802,2.2022395404405577
45.0,20.0,0.0,0.9974358974358974,0.016012815380508718,4.411910256410256,2.6245738247325003,-0.01014209401709402,0.012204975130708812,0.06341559829059831,0.30391219926447033,-1.1964735042735042,1.3898095805963901,37.76923076923077,2.4651415936864716,25.808416666666666,0.0556556120182209,18.51025641025641,0.5092796108203241,1641.0,0.0,77.46153846153847,20.877898353907977,-1.2914508547008547,1.8241489258349992,0.0244508547008547,0.03358928442956219,-1.0668611111111113,0.03066739566575679,-0.10386111111111113,0.016278150755162497,5.19021794871795,2.1078274697037673,-2.2168931623931623,3.5962337938433953,15.585113247863246,12.75009465600237,100.0,0.0,0.5810991826043702,0.699293564051745,4.411910256410256,2.6245738247325003,-3.830811073805886,2.3110009075154347
46.0,20.0,0.0,1.0,0.0,4.301010256410257,2.616378619167991,-0.009734444444444445,0.010840477895999106,0.09493786324786326,0.3010815800916097,-1.089594358974359,1.2617300251859134,37.76923076923077,2.4651415936864716,25.82078461538462,0.04439575927152858,18.512820512820515,0.5063696835418333,1641.0,0.0,77.46153846153847,20.877898353907977,-1.446935042735043,1.7366688532657668,0.026990598290598296,0.03160507301488012,-1.074905982905983,0.033610871667616865,-0.10323675213675215,0.016542058384812267,5.680928205128205,2.152262588649286,-2.930723076923077,3.6391585550161194,19.810839316239317,12.947953718735143,100.0,0.0,0.557742582571238,0.6211136313456074,4.301010256410257,2.616378619167991,-3.743267673839019,2.3792311787842717
47.0,20.0,0.0,1.0,0.0,4.177019230769232,2.5901884270925404,-0.00833059829059829,0.009879589839303173,0.1067533760683761,0.25140043566966175,-0.891515641025641,1.1608802164423067,37.76923076923077,2.4651415936864716,25.831941025641026,0.042740403465503486,18.512820512820515,0.5063696835418333,1641.0,0.0,77.46153846153847,20.877898353907977,-1.5875940170940173,1.7098736226191573,0.0298957264957265,0.03141113630833079,-1.0848713675213677,0.03728037910103556,-0.10247008547008547,0.017439130639968346,6.000621794871794,2.288142454785991,-3.7868820512820522,3.7094710285389674,24.752830341880337,13.666131036792871,100.0,0.0,0.4773081228701801,0.5660588011124031,4.177019230769232,2.5901884270925404,-3.6997111078990508,2.4354239232932713
48.0,20.0,0.0,1.0,0.0,4.076564102564102,2.5682184695034254,-0.007409059829059828,0.008932818195042536,0.09493555555555555,0.20657356997845885,-0.7848594871794871,1.0434570674102432,37.76923076923077,2.4651415936864716,25.840107692307697,0.03526005183009099,18.512820512820515,0.5063696835418333,1641.0,0.0,77.46153846153847,20.877898353907977,-1.6368427350427355,1.6650535063658853,0.031311111111111116,0.03118712184862174,-1.0935675213675216,0.04020870660652441,-0.10154700854700854,0.01807190433230078,6.19554871794872,2.494268005993341,-4.602220512820512,3.9228045072253246,29.017921367521367,14.575439819412887,100.0,0.0,0.42450785836504723,0.5118127817336072,4.076564102564102,2.5682184695034254,-3.6520562441990556,2.4484869617993863
49.0,20.0,0.0,1.0,0.0,3.9822512820512825,2.545391868173563,-0.0065458119658119655,0.007789848646817272,0.10326188034188033,0.17377315962195372,-0.6683018803418802,0.9041985596450636,37.76923076923077,2.4651415936864716,25.845188461538466,0.032710143408144314,18.512820512820515,0.5063696835418333,1641.0,0.0,77.46153846153847,20.877898353907977,-1.6951316239316236,1.5939875448189478,0.03243461538461539,0.02993924144225521,-1.1014423076923077,0.040446975585426585,-0.09965641025641025,0.01822523618895102,6.409456410256411,2.7074884872472214,-5.45857094017094,3.8934603825996574,33.163377350427346,14.148453208208862,100.0,0.0,0.3750473991272584,0.44632545050832517,3.9822512820512825,2.545391868173563,-3.6072038829240247,2.4469969262939286
50.0,20.0,0.0,1.0,0.0,3.9116666666666666,2.552027272925269,-0.006160256410256411,0.006716899146410487,0.09525641025641028,0.18683120625013344,-0.6144102564102564,0.8033443285137424,37.76923076923077,2.4651415936864716,25.849743589743593,0.03203511063021956,18.512820512820515,0.5063696835418333,1641.0,0.0,77.46153846153847,20.877898353907977,-1.670897435897436,1.5486623565086537,0.032307692307692315,0.028964500818973348,-1.1088461538461538,0.03987169452495711,-0.09826923076923076,0.01884104078371907,6.524423076923077,2.8144941738176397,-6.310192307692309,4.017512297520537,36.801923076923075,13.809258734507031,100.0,0.0,0.3529566930261033,0.38484997250434616,3.9116666666666666,2.552027272925269,-3.5587099736405627,2.5223001709017807
51.0,20.0,0.0,1.0,0.0,3.8619179487179487,2.538768220191354,-0.005517820512820513,0.006182578536636102,0.0786324358974359,0.17400868596314611,-0.534376794871795,0.7573931672689164,37.76923076923077,2.4651415936864716,25.85556153846154,0.030444758993994757,18.512820512820515,0.5063696835418333,1641.0,0.0,77.46153846153847,20.877898353907977,-1.6269910256410256,1.5080935017375847,0.03158974358974359,0.028714424624419536,-1.115633333333333,0.03985247191259102,-0.09706153846153845,0.018535351932322752,6.421038461538462,2.9961674470647,-7.163070512820512,4.312721441678737,40.2089358974359,13.635676258551301,100.0,0.0,0.31614782749532694,0.3542356566574172,3.8619179487179487,2.538768220191354,-3.5457701212226223,2.5360801909611332
52.0,20.0,0.0,1.0,0.0,3.821179487179487,2.528918093945302,-0.0047952136752136745,0.005725939938921431,0.07402376068376065,0.16319695216878585,-0.43450717948717954,0.7091623075816049,37.76461538461538,2.466787647031369,25.860702564102567,0.02722169691121493,18.512820512820515,0.5063696835418333,1641.0,0.0,77.46153846153847,20.877898353907977,-1.548094017094017,1.4704623696371215,0.03014871794871796,0.0282790872311834,-1.1223675213675213,0.038580738980777574,-0.09518119658119657,0.019146593294573952,6.270128205128204,3.211057789146151,-8.135205128205127,4.681535033565306,43.6603829059829,13.644914222490199,100.0,0.0,0.2747455054531598,0.32807219224559436,3.821179487179487,2.528918093945302,-3.5464339817263273,2.537322239490903
53.0,20.0,0.0,0.9593589743589745,0.13502523880634193,3.7894940170940172,2.512373217162821,-0.004029615384615383,0.005026286144526362,0.060428247863247776,0.167730696130457,-0.3683240598290597,0.64726997428796,37.75589743589744,2.470811413652478,25.863378205128214,0.026709565591040273,18.472179487179485,0.5045070481900269,1641.0,0.0,77.46153846153847,20.877898353907977,-1.4734927350427351,1.4434517384721148,0.028611538461538463,0.027893235035197066,-1.1295418803418802,0.03594479825395415,-0.09318162393162392,0.01874568987297921,6.005011111111111,3.476008810016858,-9.456995726495723,5.37649155988135,47.609473076923074,12.82922397862142,100.0,0.0,0.2308799545994475,0.287984982706443,3.7894940170940172,2.512373217162821,-3.558614062494569,2.519271008276328
54.0,20.0,0.0,0.9048717948717948,0.2599582131893289,3.8108589743589754,2.4871243988016984,-0.003607435897435897,0.004328813328304773,0.024565897435897436,0.15769763315845506,-0.34900025641025634,0.5958766206915443,37.74717948717949,2.476026048581145,25.863351282051287,0.02550572558832185,18.41769230769231,0.530558105049775,1641.0,0.0,77.46153846153847,20.877898353907977,-1.3614820512820511,1.4280553250877472,0.02698205128205128,0.0277486070944383,-1.13324358974359,0.03214864976187131,-0.0918102564102564,0.019357587861798805,5.715771794871794,3.6042339178679637,-10.551879487179486,5.6437315002053605,50.53478974358974,12.324875323652416,100.0,0.0,0.20669085178706545,0.24802273401184227,3.8108589743589754,2.4871243988016984,-3.6041681225719095,2.50737208439929
55.0,20.0,0.0,0.925,0.23219490451818828,3.864042735042735,2.4755058185554075,-0.0033972222222222225,0.0045591853229460695,-0.002139102564102562,0.12513318064747703,-0.34737542735042737,0.6260701002911845,37.76923076923077,2.4651415936864716,25.863538461538468,0.027951881731069515,18.437820512820515,0.5366156064091273,1641.0,0.0,77.46153846153847,20.877898353907977,-1.2451004273504271,1.5039398048024097,0.02502777777777778,0.02933845607514639,-1.1350106837606835,0.030182608099432122,-0.09003632478632478,0.020797344308574564,5.276141025641027,3.6240442299772067,-11.704850427350426,5.910233632590624,53.33796367521367,12.693768563103074,100.0,0.0,0.19464649540138798,0.2612220770227991,3.864042735042735,2.4755058185554075,-3.669396239641347,2.492722630260656
56.0,20.0,0.0,0.8964102564102563,0.26540423170670696,3.9327401709401704,2.4649636846212815,-0.0035533333333333337,0.004938560767687318,-0.013719658119658168,0.11510859315196201,-0.38720376068376067,0.6674617187223205,37.76923076923077,2.4651415936864716,25.864570940170942,0.029875941522257643,18.409230769230767,0.5181921235633334,1641.0,0.0,77.46153846153847,20.877898353907977,-1.1777675213675214,1.5519030845480202,0.02382393162393163,0.030688365653366648,-1.133408547008547,0.029660331196122266,-0.08842051282051282,0.02146334917073361,4.89951111111111,3.626438019280119,-12.486181196581198,6.171879614880122,54.69170427350427,12.794153828518253,100.0,0.0,0.20359100320315252,0.28295868885737113,3.9327401709401704,2.4649636846212815,-3.7291491677370194,2.4802802035427383
57.0,20.0,0.0,0.917179487179487,0.21104936711022115,4.013303846153846,2.45589242846306,-0.003753076923076923,0.005184576901910306,-0.02162512820512822,0.09670482685721087,-0.4312910256410255,0.6908656673716445,37.76923076923077,2.4651415936864716,25.862732051282048,0.02954753638136059,18.430000000000003,0.49680558518769113,1641.0,0.0,77.46666666666667,20.882595792131397,-1.153026923076923,1.6184319993212954,0.023278205128205127,0.03191294242250436,-1.1312641025641024,0.030618520686699277,-0.08720384615384615,0.02151879039539564,4.619885897435898,3.63134206177255,-13.002362820512822,6.270076696109424,55.318784615384615,13.271467391115468,100.0,0.0,0.21503546788025282,0.29705437504047233,4.013303846153846,2.45589242846306,-3.7982683782735935,2.467025019950588
58.0,20.0,0.0,0.9343589743589746,0.14545382468230167,4.127169230769231,2.4567648969195126,-0.003945470085470085,0.005393726347399474,-0.03662871794871788,0.06451547033119877,-0.47831170940170925,0.6956267880876845,37.76923076923077,2.4651415936864716,25.859929059829064,0.029389856008958402,18.44717948717949,0.4982387332972261,1641.0,0.0,77.49282051282051,20.911498970752397,-1.1141256410256408,1.7168080258518508,0.021876068376068376,0.033578705613606666,-1.1285264957264955,0.03252721413861213,-0.08596923076923077,0.022182462891190153,4.239820512820513,3.5487940371904596,-13.636573504273507,6.31799485248092,56.11146837606837,14.199465111633188,100.0,0.0,0.2260587840925561,0.30903775555450314,4.127169230769231,2.4567648969195126,-3.9011104466766744,2.463720680143872
59.0,20.0,0.0,0.8323076923076923,0.3179640126811898,4.299703418803418,2.465706606762305,-0.004567905982905984,0.005488417345534543,-0.048543675213675204,0.06395569215322568,-0.5747314957264957,0.6671131525825691,37.743589743589745,2.478517688563795,25.858951709401715,0.032068929050583166,18.356282051282054,0.5902003651177751,1641.0,0.0,77.54051282051282,20.947519253792063,-1.0964649572649572,1.8276797491332386,0.020332478632478636,0.03525106877993142,-1.1204581196581198,0.03525276437084713,-0.08403333333333332,0.023121265938449195,3.8233598290598287,3.4917313539620274,-14.150786752136751,6.414971635734902,55.88388119658121,15.29862130780491,100.0,0.0,0.26172173403307075,0.31446315010552367,4.299703418803418,2.465706606762305,-4.0379816847703465,2.468275974351879
60.0,20.0,0.0,0.7538461538461539,0.3712327641550328,4.497794871794873,2.4605454699002602,-0.005223076923076924,0.005476767272496159,-0.06365641025641026,0.06949290306389792,-0.6661820512820513,0.6536400389043188,37.743589743589745,2.478517688563795,25.856666666666673,0.03265556560392514,18.307692307692307,0.6787700236009773,1641.0,0.0,77.6051282051282,20.961743960165908,-1.0952051282051283,1.9091446855854914,0.020025641025641028,0.036571118299242915,-1.110794871794872,0.03807415167329434,-0.08158974358974358,0.023009972607680517,3.39125641025641,3.4837483194938534,-14.841897435897435,6.472204691459561,55.03220512820511,16.03037869201619,100.0,0.0,0.2992602637644838,0.3137956500894052,4.497794871794873,2.4605454699002602,-4.198534608030387,2.45552841941554
61.0,20.0,0.0,0.6581623931623931,0.37909340816711584,4.695985042735043,2.5011468163945803,-0.006425555555555556,0.007332448604259907,-0.12205008547008547,0.3433814254226413,-0.7165260256410259,0.6247134461787207,37.75589743589744,2.470811413652478,25.858509829059834,0.03111942890744533,18.29119658119658,0.6858006321975119,1641.0,0.0,77.64205128205128,20.94150037095658,-1.1484358974358972,1.957978226342784,0.021216666666666672,0.03724422852576668,-1.1003991452991453,0.04120948301639234,-0.0800051282051282,0.0236867974533123,3.1013940170940177,3.642652965773274,-15.154251282051279,7.120680799198202,53.124796581196584,17.00022387162585,100.0,0.0,0.36815721436017224,0.42011835852068385,4.695985042735043,2.5011468163945803,-4.32782782837487,2.4528105346262583
62.0,20.0,0.0,0.6500854700854705,0.39991482074018386,4.945610256410256,2.5016676534957654,-0.0107019658119658,0.016807858554610155,-0.3658741025641022,0.9319212018064048,-0.6476917948717952,0.6371145535796141,37.74615384615385,2.4437897826990542,25.859376923076923,0.03128917114944183,18.360512820512824,0.6697287303078242,1641.0,0.0,77.6774358974359,20.943995586971898,-1.227463247863248,1.9966881662989586,0.022097435897435895,0.037506427039585545,-1.088266666666667,0.04668139303984348,-0.07835726495726494,0.023458209636292176,2.8923444444444444,3.7509814276694637,-14.875757264957262,7.769713269273335,50.47688205128206,18.924945519942664,100.0,0.0,0.6131774735189373,0.9630193578320181,4.945610256410256,2.5016676534957654,-4.332432782891319,2.569058424425204
63.0,20.0,0.0,0.5008547008547015,0.4484167847388269,5.205385042735043,2.535601112257103,-0.015400726495726493,0.025328848497278345,-0.5057875641025643,1.0310277972967854,-0.5815900427350429,0.6723149945687662,37.74743589743589,2.475341250210413,25.85633290598291,0.035008830232628275,18.26905982905983,0.7235277241898298,1641.0,0.0,77.73025641025642,20.95430410342561,-1.3259431623931623,2.0077275009560664,0.02361025641025641,0.037006361792135394,-1.0750632478632478,0.04937819768007791,-0.07766068376068376,0.02328268547214908,2.713931623931624,3.8706913377781493,-14.481861111111112,8.532552757225087,47.4146282051282,20.106634512748684,100.0,0.0,0.8823966296404299,1.4512361188203267,5.205385042735043,2.535601112257103,-4.322988413094612,2.7009320485213633
64.0,20.0,0.0,0.605982905982906,0.4044541332449645,5.474377777777779,2.5504810154891118,-0.023161367521367517,0.03783456812822226,-0.6788919658119661,1.1867979531871924,-0.41584256410256415,0.7491420624410287,37.734358974358976,2.4667129149109335,25.849943589743596,0.04501477480247197,18.40974358974359,0.6073580909581033,1641.0,0.0,77.83692307692309,20.999810294111327,-1.4080358974358977,1.969755993784949,0.025254700854700853,0.03627077786229077,-1.0617230769230772,0.051718885978833576,-0.0764940170940171,0.023423428656934146,2.7615692307692306,4.005464852270086,-13.35176752136752,9.696531478819427,43.66581025641026,21.425547518390655,100.0,0.0,1.3270486067257392,2.167761073447314,5.474377777777779,2.5504810154891118,-4.147329171052039,2.867483013741364
65.0,20.0,0.0,0.6267094017094017,0.4328530548945034,5.833788461538462,2.427655445924124,-0.028488034188034188,0.04607923412952642,-0.6948863247863247,1.1770270332390267,-0.33818440170940167,0.9014929103731995,37.725,2.4560679422284117,25.843064102564107,0.055304286729684925,18.537393162393165,0.5493146706919422,1641.0,0.0,77.9559829059829,20.970683200747963,-1.5174636752136752,1.911833309990226,0.027373931623931622,0.03482883098470696,-1.0452457264957264,0.04920730163185276,-0.07524358974358974,0.021743137525773216,2.5816132478632485,4.109923626474808,-12.468540598290597,10.69034858477441,39.35223290598291,21.528715354781053,100.0,0.0,1.6322441255987583,2.6401456388170432,5.833788461538462,2.427655445924124,-4.201544335939705,3.0259305788507596
66.0,20.0,0.0,0.5547863247863246,0.4498698933888083,6.166728205128206,2.4088834951586735,-0.035714957264957256,0.05520406086677262,-0.7446545299145299,1.1029152048390651,-0.19295948717948713,1.094181657422873,37.717948717948715,2.4489387384476085,25.82930512820513,0.06637103069637729,18.606752136752135,0.4929707576938215,1641.0,0.0,78.10333333333332,20.92803487811622,-1.5493717948717949,1.841820679112952,0.027795726495726498,0.03314818155375778,-1.0289478632478632,0.049256072024462666,-0.07442393162393164,0.020277344470009766,2.580071794871795,4.368564156405165,-11.480166666666667,11.705727519236893,34.655391452991445,21.478711411047165,100.0,0.0,2.046316316772149,3.16295969964938,6.166728205128206,2.4088834951586735,-4.120411888356055,3.3970945185030494
67.0,20.0,0.0,0.4292735042735042,0.46892885201927,6.495694017094017,2.465954608303202,-0.04691636752136751,0.065770907459985,-0.9316468803418804,1.2492683441250994,0.09902363247863227,1.3433404686503427,37.717948717948715,2.4489387384476085,25.8072670940171,0.08733000073050702,18.664188034188033,0.4940912373714021,1641.0,0.0,78.20311965811965,20.885676756894718,-1.4484072649572657,1.7940547910613918,0.02591495726495727,0.03174174497714378,-1.0142786324786326,0.052786562527415926,-0.07478376068376068,0.019190183317974792,2.733302991452992,4.644975937608615,-10.037728632478633,12.894103207802555,29.677459829059828,22.80680740520748,100.0,0.0,2.688109849059009,3.7683954122026417,6.495694017094017,2.465954608303202,-3.807584168035006,3.7674263138214195
68.0,20.0,0.0,0.2704273504273507,0.40739019579505076,6.903817094017093,2.4531004220923562,-0.06247931623931623,0.07397383651270938,-1.2084526495726502,1.1164907537592645,0.49426341880341884,1.4900370954618314,37.717948717948715,2.4489387384476085,25.77785299145299,0.09673347743165372,18.76803418803419,0.4553057695984749,1641.0,0.0,78.33264957264957,20.893030360596878,-1.3368888888888892,1.813893856952081,0.023798290598290604,0.03213736047844497,-0.9958837606837607,0.05201350638347502,-0.07543760683760684,0.01677168872415861,2.9596034188034186,4.937790714276953,-8.121634188034191,13.646516508913189,23.2886358974359,22.718724410524626,100.0,0.0,3.5798011273760064,4.238388626568995,6.903817094017093,2.4531004220923562,-3.3240159666410865,4.1383549113467355
69.0,20.0,0.0,0.15551282051282073,0.33778846321912864,7.2991829059829065,2.4743406535779675,-0.07936068376068375,0.07644331250101839,-1.5997040170940173,1.250273555775475,0.9354278632478633,1.5646812732170514,37.717948717948715,2.4489387384476085,25.75252478632478,0.10381852847565615,18.847692307692306,0.4110286296755432,1641.0,0.0,78.38102564102564,20.923448794276094,-1.180091452991453,1.9963012672338631,0.020784615384615387,0.0349444788083938,-0.9783230769230767,0.05102893638101953,-0.07598547008547007,0.016213685099181696,3.0679470085470086,5.190242718321162,-6.363439316239317,14.050636113002916,17.241882051282058,21.85461214089328,100.0,0.0,4.5470322387595905,4.379879178307999,7.2991829059829065,2.4743406535779675,-2.752150667223316,4.169565698404418
70.0,20.0,0.0,0.07179487179487179,0.22354643689107118,7.724978632478632,2.3896022819816443,-0.10103675213675214,0.07250966876236294,-2.1410418803418803,1.0535419042329233,1.5345188034188033,1.3660244991572978,37.717948717948715,2.4489387384476085,25.725136752136756,0.10857328939150103,18.892307692307693,0.3421177201095486,1641.0,0.0,78.38461538461539,20.925450865563818,-0.9520341880341879,2.1987182763469133,0.016423076923076926,0.037328474115038306,-0.9611538461538461,0.04737575910323006,-0.07747863247863247,0.01603519427355382,3.2668504273504277,5.377837853020888,-4.25790170940171,14.180158052979605,10.731499999999999,19.956186668351876,100.0,0.0,5.788979473145301,4.15449799397498,7.724978632478632,2.3896022819816443,-1.935999159333333,4.101730737347513
71.0,20.0,0.0,0.05153846153846144,0.22340120224831356,8.08535,2.3735576536077656,-0.12228820512820512,0.06580687861469686,-2.1665991025641027,1.0008915767637743,1.9934006410256415,1.232922497861003,37.707692307692305,2.4238274012922334,25.690402564102563,0.10889269159464285,18.897692307692306,0.38223347465887625,1641.0,0.0,78.38461538461539,20.925450865563818,-0.6492128205128205,2.4044958726945223,0.011417948717948715,0.04037517392365911,-0.947552564102564,0.044448835087331405,-0.07938076923076924,0.015753343903106874,3.4858679487179485,5.4734968076859545,-2.16283076923077,13.615322213703783,5.181226923076925,18.5622266855294,100.0,0.0,7.006598038076224,3.7704564075518445,8.08535,2.3735576536077656,-1.078751961923776,3.751235382183817
72.0,20.0,0.0,0.06000000000000002,0.22798891939833626,8.423993162393161,2.3515671397141937,-0.13923042735042734,0.06310967805216292,-1.922506153846154,0.9108138296897539,2.339456068376068,1.2542382724837746,37.717948717948715,2.4334155976703102,25.657247863247864,0.11215860214351746,18.906153846153845,0.3407469765446079,1641.0,0.0,78.39999999999999,20.91586957312557,-0.21720512820512858,2.662882305238434,0.004271794871794881,0.04422736943259881,-0.9350752136752135,0.03954964954114526,-0.08190769230769232,0.01738524356048025,3.688791452991453,5.605605904017254,-0.12754871794871941,13.141210377308962,0.07377094017094389,17.438676474879266,100.0,0.0,7.9773158669823125,3.615918198818337,8.423993162393161,2.3515671397141937,-0.44667729541085066,3.575799154975431
73.0,20.0,0.0,0.06423076923076941,0.22830767116448555,8.712908547008547,2.3706499738976263,-0.15289401709401707,0.06336234771880139,-1.685422435897436,0.8537171863506354,2.6818388461538456,1.3197815642547845,37.741025641025644,2.465522038104277,25.62089145299145,0.12566538908046812,18.919615384615383,0.28789705903185303,1641.0,0.0,78.4223076923077,20.89573457626655,0.4135055555555549,3.1935892950591764,-0.006477777777777765,0.05272902777759486,-0.9249115384615387,0.039133156839661135,-0.08525555555555556,0.019271893198292523,3.8841235042735045,5.5860296685944055,1.5317478632478614,12.866554087865465,-4.276313675213673,17.142835647115636,100.0,0.0,8.76018189228824,3.6303951043276994,8.712908547008547,2.3706499738976263,0.047273345279696066,3.519795749594874
74.0,20.0,0.0,0.05538461538461544,0.22395777508325743,9.093373504273503,2.4395737264997837,-0.16873982905982907,0.0641850786022319,-1.375653247863248,0.7721225980856626,3.122474358974359,1.3877938106459982,37.717948717948715,2.4489387384476085,25.573298290598288,0.1342934392785376,18.944615384615386,0.22395777508325748,1641.0,0.0,78.43384615384616,20.881648026233414,1.399696581196581,3.821905357338906,-0.021537606837606835,0.06133797712181998,-0.9112581196581198,0.03685435513311424,-0.08960940170940171,0.022041084642225022,4.086474358974359,5.489291224581969,3.587774358974359,11.82343761744171,-10.336018803418801,17.189980624452502,100.0,0.0,9.668080040887165,3.6775341116233373,9.093373504273503,2.4395737264997837,0.574706536613663,3.470857646062255
75.0,20.0,0.0,0.02564102564102564,0.16012815380508716,9.470320512820516,2.359965528150031,-0.18263568376068373,0.061512129828519474,-1.1865256410256408,0.6365601839870785,3.5901068376068364,1.3502800937841946,37.71367521367521,2.441403559846321,25.51961538461538,0.13842786958818087,18.974358974358974,0.16012815380508716,1641.0,0.0,78.4551282051282,20.87745193564665,2.4015384615384616,4.201741906944709,-0.03780982905982907,0.06745014660160642,-0.9004166666666666,0.033581178373244626,-0.09463675213675214,0.023735410163014625,4.328728632478632,5.331729094106137,5.403290598290598,10.717177702012664,-16.15659188034188,15.892298801087245,100.0,0.0,10.464253867973165,3.5243854280349463,9.470320512820516,2.359965528150031,0.9939333551526539,3.4243056505505325
76.0,20.0,0.0,0.014358974358974418,0.08967176613084916,9.71022905982906,2.3584306900886483,-0.19197811965811964,0.05759308265296005,-1.0675589743589744,0.7700091613498268,3.9572733333333336,1.2813018786197057,37.712820512820514,2.4343138541734475,25.47719829059829,0.1436329894888899,18.985641025641026,0.08967176613084918,1641.0,0.0,78.46153846153847,20.877898353907977,3.3137760683760686,4.480984955596003,-0.05214358974358973,0.07136708750248602,-0.8930119658119662,0.0319354351276779,-0.09865128205128204,0.025400697423488994,4.409326495726496,5.185659133814694,6.615711111111111,10.028361211631497,-20.078157264957266,15.136202791035217,100.0,0.0,10.99953601526776,3.299840565162725,9.71022905982906,2.3584306900886483,1.2893069554386989,3.3688498914192375
77.0,20.0,0.0,0.0,0.0,10.013268376068378,2.357791654032945,-0.20274602564102565,0.05243445841413385,-0.8385003418803424,0.6408556707794671,4.385414871794873,1.1967702477900153,37.708888888888886,2.424023205133429,25.41953162393163,0.138879548014278,19.0,0.0,1641.0,0.0,78.46153846153847,20.877898353907977,4.447663247863248,4.5256333488511435,-0.06980042735042732,0.07155260460962097,-0.8864000000000001,0.031799173368195995,-0.10349529914529916,0.02668879508100718,4.45101623931624,5.042527425785848,7.9911743589743605,9.613112269152994,-25.044170512820518,13.779389984308821,100.0,0.0,11.616491582281942,3.0042731681840973,10.013268376068378,2.357791654032945,1.6032232062135643,3.291996759226622
78.0,20.0,0.0,0.0,0.0,10.26366324786325,2.385224491179256,-0.21072145299145298,0.04656869391030438,-0.7124187179487185,0.6573870593265069,4.798812820512821,1.056105393701307,37.702222222222225,2.4113752516538147,25.363241880341874,0.13299353647354323,19.0,0.0,1641.0,0.0,78.46153846153847,20.877898353907977,5.630752136752136,4.5030337373351585,-0.08742564102564103,0.07126391336874491,-0.8819564102564104,0.03156299016535251,-0.10857008547008548,0.026064577691311645,4.429411965811967,4.922896799640588,8.895484615384618,9.274944871672506,-29.586483760683766,13.299683594171714,100.0,0.0,12.073449909274633,2.6681896184970193,10.26366324786325,2.385224491179256,1.8097866614113844,3.183064816903645
79.0,20.0,0.0,0.0,0.0,10.443870940170937,2.4381476449894923,-0.21656405982905985,0.04079415182436603,-0.5699552991452991,0.6497999287601132,5.1098550000000005,0.9895424844440673,37.69811965811966,2.403804951033899,25.318399572649575,0.1360893143627769,19.0,0.0,1641.0,0.0,78.46153846153847,20.877898353907977,6.8905666666666665,4.7449084659443175,-0.10666623931623932,0.07484187663568155,-0.8783410256410255,0.032818387115129646,-0.11291410256410256,0.026735897397069566,4.170866666666668,4.925266676448842,9.221865384615384,9.125320364476696,-32.95194829059829,13.42170042937024,100.0,0.0,12.40820662242378,2.3373327283520804,10.443870940170937,2.4381476449894923,1.96433568225284,3.1100028781589897
80.0,20.0,0.0,0.0,0.0,10.615350427350426,2.4563780460188256,-0.22092478632478632,0.038871598283276396,-0.4313923076923078,0.6345549938361759,5.422091452991453,1.0231826339039805,37.67179487179487,2.3821649505338542,25.268051282051285,0.150039108711862,19.0,0.0,1641.0,0.0,78.46153846153847,20.877898353907977,8.469760683760686,5.020615037664733,-0.13088034188034187,0.07909674611931687,-0.8753333333333335,0.03274569745408375,-0.11800000000000001,0.02677292426471585,3.752974358974359,4.8179297939390135,9.001897435897435,9.182556319900854,-36.24281196581196,14.148685057988445,100.0,0.0,12.658057846239782,2.2271785245597138,10.615350427350426,2.4563780460188256,2.0427074188893544,3.111650315926365
81.0,20.0,0.0,0.0,0.0,10.757954700854702,2.4702571057469713,-0.22434444444444443,0.03579317320386598,-0.3015061538461539,0.5541284871005973,5.686969829059829,0.9438556706235572,37.68205128205128,2.3875633686681925,25.223256410256415,0.1454744131867794,19.0,0.0,1641.0,0.0,78.46153846153847,20.877898353907977,9.844741880341878,4.6665513488898425,-0.15178119658119657,0.07332800959338918,-0.8748141025641026,0.031982433395286565,-0.12290641025641026,0.02544415758471249,3.4821179487179483,4.901347605968973,9.211326923076923,9.33881429720834,-39.37578803418804,14.663875761173669,100.0,0.0,12.853989823873837,2.0507977599622715,10.757954700854702,2.4702571057469713,2.0960351230191345,3.1197131431464085
82.0,20.0,0.0,0.0,0.0,10.82461282051282,2.5198804902926697,-0.22567999999999996,0.03393490044807929,-0.20540512820512816,0.5327787187343048,5.888484615384614,0.9520425393631766,37.69230769230769,2.3968602944800645,25.188607692307695,0.1540454365381161,19.0,0.0,1641.0,0.0,78.46153846153847,20.877898353907977,11.004653846153849,4.6193448428062975,-0.17064102564102568,0.07284458841999365,-0.8765487179487178,0.03094247525051737,-0.12625128205128205,0.02539451735062089,3.0535666666666668,4.94662998149848,8.866235897435898,9.617743917569266,-41.34545641025641,15.581023399902627,100.0,0.0,12.93051152051242,1.9443265738715503,10.82461282051282,2.5198804902926697,2.1058986999995986,3.1459274867006406
83.0,20.0,0.0,0.0,0.0,10.889902136752138,2.503161981722795,-0.22783717948717944,0.0264649718737769,-0.05571747863247883,0.44492196973487247,6.192197521367521,0.9258865918108744,37.69230769230769,2.3968602944800645,25.133834615384615,0.1878869355398582,19.0,0.0,1641.0,0.0,78.46153846153847,20.877898353907977,12.21415811965812,4.443984956389377,-0.19074145299145304,0.07094002057085615,-0.8775076923076923,0.03328743547232028,-0.1286068376068376,0.02489023497370071,2.4862606837606833,5.129214478005515,8.314448717948718,9.827160571093977,-43.31924444444444,14.766108857541582,100.0,0.0,13.05410880078,1.5163311932998462,10.889902136752138,2.503161981722795,2.1642066640278617,3.12902699489213
84.0,20.0,0.0,0.0,0.0,10.893013675213675,2.5372866122211346,-0.22661350427350427,0.025608628273987532,0.04873042735042722,0.4982845717498827,6.459617777777778,1.053724080807349,37.69230769230769,2.3968602944800645,25.078302564102568,0.2349233060598595,19.0,0.0,1641.0,0.0,78.46153846153847,20.877898353907977,13.217071794871796,4.317604064509361,-0.20837094017094018,0.06869786856227238,-0.8820717948717948,0.036170982472272524,-0.13002905982905985,0.026145113684217434,1.9064085470085472,5.237010144344939,7.836200000000001,9.934999490371613,-44.23779829059829,14.970228844063227,100.0,0.0,12.983997375541641,1.4672663192188757,10.893013675213675,2.5372866122211346,2.0909837003279645,3.1011706741852967
85.0,20.0,0.0,0.03461538461538462,0.12309273683832112,10.882690170940172,2.540632957318248,-0.22544188034188034,0.025601126126488457,0.15230811965811966,0.4772258594256586,6.739789102564102,1.1335417307660045,37.69230769230769,2.3968602944800645,25.01317094017094,0.2832229867351424,19.034615384615385,0.12309273683832123,1641.0,0.0,78.46153846153847,20.877898353907977,14.41207051282051,3.688760449141025,-0.22904273504273504,0.05921182756271621,-0.8889102564102566,0.037775369968384334,-0.13032264957264958,0.02666846334056517,1.2291645299145297,5.362208492959007,7.360108974358973,10.275448288785723,-45.2947670940171,14.909871059883814,100.0,0.0,12.916868269083064,1.4668364778298935,10.882690170940172,2.540632957318248,2.034178098142893,3.167968843363214
86.0,20.0,0.0,0.08871794871794848,0.2523904607336926,10.801357264957266,2.5456726701990124,-0.22272555555555557,0.02655610495039609,0.30899256410256404,0.5019530768967532,7.094544786324787,1.1838231894002869,37.69230769230769,2.3968602944800645,24.934488888888893,0.3274446843453758,19.08871794871795,0.25239046073369253,1641.0,0.0,78.46153846153847,20.877898353907977,15.579271794871794,3.0718916110391996,-0.2511051282051282,0.05058791752889254,-0.8979461538461536,0.03945147483170638,-0.13000769230769232,0.02883362890177932,0.5329367521367518,5.2590044529314595,7.004928205128203,10.643731326959514,-45.52724957264957,14.994982917482982,100.0,0.0,12.761234323039881,1.5215527339641683,10.801357264957266,2.5456726701990124,1.9598770580826146,3.169136975509878
87.0,20.0,0.0,0.09743589743589787,0.23297524093342953,10.700691025641026,2.5266988068734357,-0.2185883333333333,0.02825594031887976,0.45277790598290607,0.5019941316147928,7.468977136752137,1.2366301757029878,37.69230769230769,2.3968602944800645,24.843815811965808,0.36923738907043874,19.097435897435897,0.23297524093342967,1641.0,0.0,78.46153846153847,20.877898353907977,16.39598461538461,2.8359748503810693,-0.268332905982906,0.046419744691036234,-0.9094115384615383,0.03876413233216482,-0.12667478632478632,0.03168087997547405,-0.014935897435895967,5.164032785472773,6.638548717948718,10.883919185295241,-45.0809358974359,14.708815316488588,100.0,0.0,12.524188950798811,1.618946126445348,10.700691025641026,2.5266988068734357,1.823497925157784,3.1736563938648756
88.0,20.0,0.0,0.10769230769230753,0.22523042631774054,10.550788034188034,2.5344272621451402,-0.2126427350427351,0.030629757831842342,0.533674017094017,0.5126474124525132,7.743266324786323,1.2412672277091163,37.69230769230769,2.3968602944800645,24.778652991452994,0.3963815891946947,19.107692307692307,0.22523042631774046,1641.0,0.0,78.46153846153847,20.877898353907977,16.95924444444444,2.833544417661667,-0.28168376068376066,0.04643683433596543,-0.9221931623931622,0.03907879218707276,-0.12065128205128207,0.03470362221025236,-0.5862222222222218,5.0711712498881365,6.3138649572649586,11.159676165851035,-43.8231641025641,14.460606593982455,100.0,0.0,12.18353126206733,1.7549558512723453,10.550788034188034,2.5344272621451402,1.6327432278792975,3.088438705246158
89.0,20.0,0.0,0.07461538461538424,0.17117390593450355,10.339106410256408,2.542956127924154,-0.20473675213675213,0.031851387956548814,0.7016994444444445,0.5422683745277,8.132821666666667,1.2246855652055375,37.69230769230769,2.3968602944800645,24.689587606837613,0.4128963444946515,19.074615384615385,0.1711739059345038,1641.0,0.0,78.46153846153847,20.877898353907977,17.255138034188032,2.810153143664452,-0.2925559829059829,0.04758460324713062,-0.939463247863248,0.03884376604448668,-0.1109141025641026,0.037121388819281044,-1.0879769230769232,4.904204265110409,6.355933333333332,11.361592458772016,-41.544198717948724,14.112450604129043,100.0,0.0,11.730551808651938,1.824950101544067,10.339106410256408,2.542956127924154,1.3914453983955268,2.977617770620039
90.0,20.0,0.0,0.11666666666666668,0.2798809270624444,10.12551282051282,2.5338538654352223,-0.19632905982905988,0.03535576243551977,0.8385034188034189,0.5659396858708178,8.395182905982905,1.1795369807799965,37.717948717948715,2.4381692651909948,24.633192307692305,0.39402335315816994,19.116666666666667,0.27988092706244433,1641.0,0.0,78.46153846153847,20.877898353907977,17.371487179487183,2.9719012903866893,-0.29894871794871797,0.05100306942153926,-0.9554700854700857,0.040732472494185504,-0.10047863247863248,0.03987709882810144,-1.3423888888888889,4.658446388850823,6.727970085470085,11.361944153432502,-39.099739316239315,13.446695867701926,100.0,0.0,11.248826523976561,2.0257359690224597,10.12551282051282,2.5338538654352223,1.1233137034637395,2.8064810668763793
91.0,20.0,0.0,0.1475641025641026,0.29238329159474674,9.918375641025639,2.51838623859358,-0.18743764957264955,0.03700337637257524,0.9348593162393164,0.5686669601236003,8.596637863247862,1.1210181666221661,37.717948717948715,2.4381692651909948,24.591699572649574,0.3716749304896564,19.147564102564104,0.29238329159474663,1641.0,0.0,78.46153846153847,20.877898353907977,17.25509273504273,3.1830777383675617,-0.30156581196581195,0.055319493612281626,-0.9709525641025638,0.040707497035433006,-0.08961111111111111,0.03969623977458967,-1.403805982905983,4.479408603650422,7.356373504273504,11.423511229058247,-36.47868504273504,12.670556590049015,100.0,0.0,10.739386242364917,2.120137293882671,9.918375641025639,2.51838623859358,0.8210106013392775,2.6473337045469605
92.0,20.0,0.0,0.09897435897435916,0.2593493363643045,9.705965811965811,2.4997363954064666,-0.1785969230769231,0.03844800404240518,1.0459203418803413,0.5872891350017538,8.706753675213676,1.0836320125969998,37.717948717948715,2.4381692651909948,24.582666666666668,0.34035027605300455,19.09897435897436,0.2593493363643043,1641.0,0.0,78.46153846153847,20.877898353907977,17.020131623931626,3.410326469134425,-0.3013846153846154,0.06035826462020104,-0.9843470085470087,0.04024149666303693,-0.07945470085470085,0.039032494700250935,-1.4159794871794873,4.301607591977401,8.052111111111113,11.423139405961535,-33.8030923076923,11.934470541507432,100.0,0.0,10.23284992633031,2.202908362331745,9.705965811965811,2.4997363954064666,0.5268841143644977,2.4911273204990905
93.0,20.0,0.0,0.09602564102564114,0.22731608959419042,9.419702564102566,2.4282181543731136,-0.16705410256410255,0.03901144078675138,1.1384391880341882,0.6070792682142879,8.723512863247862,1.0925257974727247,37.717948717948715,2.4381692651909948,24.606663247863246,0.32714056987595463,19.09602564102564,0.22731608959419025,1641.0,0.0,78.46153846153847,20.877898353907977,16.614634188034184,3.4894788329426505,-0.2992239316239317,0.06440031666439795,-1.000471794871795,0.038349127210469465,-0.06629358974358975,0.036965911002548195,-1.3591576923076918,4.107341929087384,8.860986752136752,11.430546515494468,-30.11479786324786,10.497474822710377,100.0,0.0,9.57149502726866,2.235190909805374,9.419702564102566,2.4282181543731136,0.15179246316609712,2.303274631341819
94.0,20.0,0.0,0.11623931623931615,0.2788931542956376,9.110617094017094,2.3153790571769353,-0.15446427350427355,0.039685256575253396,1.2349862393162394,0.6392580316058765,8.603050256410258,1.1293135128206895,37.717948717948715,2.4381692651909948,24.668264102564105,0.33242804641889656,19.116239316239316,0.2788931542956374,1641.0,0.0,78.46153846153847,20.877898353907977,16.144117094017094,3.553757526849802,-0.2959333333333333,0.06843757175755269,-1.0174504273504277,0.029966321126547218,-0.05303418803418802,0.03358650216835973,-1.2212435897435894,3.8421110209441447,9.851485470085471,11.214049722729413,-26.063650427350428,8.818471058217089,100.0,0.0,8.850150957349298,2.273797710655819,9.110617094017094,2.3153790571769353,-0.26046613666779495,2.236949229304981
95.0,20.0,0.0,0.10170940170940171,0.24822601212688464,8.872591880341878,2.2687842587424267,-0.1437337606837607,0.04283950864884604,1.2577106837606835,0.674514592208465,8.33451153846154,1.262137489955522,37.733333333333334,2.454784086692902,24.755675213675218,0.33146314051718867,19.101709401709403,0.2482260121268846,1641.0,0.0,78.46153846153847,20.877898353907977,15.729901709401707,3.706343257846254,-0.2910064102564102,0.07148181327358653,-1.0288739316239317,0.026394976095517164,-0.044326923076923076,0.03133303812276586,-1.1406431623931625,3.5508913986155584,10.466756410256412,10.922887755321174,-22.95730982905983,7.672880791389251,100.0,0.0,8.235337860722895,2.4545230419930655,8.872591880341878,2.2687842587424267,-0.6372540196189873,2.1849037586196185
96.0,20.0,0.0,0.09726495726495753,0.24018374033187254,8.566507692307693,2.26911018124878,-0.12859555555555557,0.04446037711202492,1.3088538461538466,0.7837434537848519,7.904262051282051,1.3139321358890628,37.743589743589745,2.4678772971070195,24.889153846153842,0.3276870958468238,19.097264957264958,0.24018374033187267,1641.0,0.0,78.46153846153847,20.877898353907977,15.142683760683761,3.9462279912000158,-0.2822940170940171,0.07661336471739988,-1.0397709401709403,0.023927139866524675,-0.03474529914529916,0.028226307134567575,-1.1459897435897437,3.280839152837673,10.872948717948717,10.623591074656039,-19.43176923076923,7.042240758009136,100.0,0.0,7.367982597473442,2.5473919640790714,8.566507692307693,2.26911018124878,-1.198525094834251,1.970052089143466
97.0,20.0,0.0,0.08072649572649582,0.22045301407330564,8.289080341880343,2.2106073105308397,-0.11691641025641027,0.04382997996234738,1.3079579059829065,0.7536796955650168,7.3720016239316255,1.340722747964807,37.760512820512815,2.4294183283874746,25.039805128205124,0.2744902490346695,19.080726495726495,0.22045301407330548,1641.0,0.0,78.46153846153847,20.877898353907977,14.6841047008547,4.042937074551841,-0.2760594017094017,0.07914994059641643,-1.049830341880342,0.021308313477885952,-0.027445726495726498,0.027135907330264032,-1.1677594017094022,3.102441194097522,11.220500854700854,10.392158187432301,-15.989529914529916,5.761203495648925,100.0,0.0,6.698816863512361,2.5112728679854723,8.289080341880343,2.2106073105308397,-1.5902634783679828,1.801870680702812
98.0,20.0,0.0,0.14880341880341902,0.28674059346597724,8.042268376068375,2.191684138359399,-0.1062182905982906,0.04462070469685932,1.2602124786324789,0.7644872554415693,6.705771196581197,1.496995990006717,37.76923076923077,2.411175062534082,25.183430769230764,0.2578290919694034,19.148803418803418,0.28674059346597736,1641.0,0.0,78.46153846153847,20.877898353907977,14.240197435897434,4.1239875122426835,-0.26945811965811967,0.08036159753125106,-1.0586333333333333,0.017846691176935665,-0.02134358974358975,0.02583479809525482,-1.1808803418803417,2.9284509298669277,11.31996581196581,9.93813081083678,-13.102772649572652,5.181366425721579,100.0,0.0,6.085859758376165,2.556578058029609,8.042268376068375,2.191684138359399,-1.9564086176922122,1.6929498354849242
99.0,20.0,0.0,0.13341880341880324,0.264202969091744,7.619998717948715,2.067424403492826,-0.08964722222222224,0.04278715487469288,1.1405061538461538,0.7965283902384587,5.572411538461539,1.4714339035494166,37.77743589743589,2.4055338809423725,25.3979141025641,0.21998556443663275,19.133418803418802,0.26420296909174407,1641.0,0.0,78.46153846153847,20.877898353907977,13.600473504273504,4.196323266209127,-0.2590145299145299,0.0818538849545716,-1.0681504273504274,0.015977347125151763,-0.014610683760683757,0.02035489670786871,-1.3650397435897428,2.660386394520967,11.024055128205129,9.356009319604466,-8.59736153846154,2.6733482105892485,100.0,0.0,5.136407478404739,2.451523391692509,7.619998717948715,2.067424403492826,-2.48359123954398,1.4818412792443767
100.0,20.0,0.0,0.05128205128205128,0.22345586503095893,7.268717948717947,1.9899804012353852,-0.07551282051282052,0.042277822850677306,0.9764358974358975,0.7640543792603617,4.351179487179485,1.2238104185782954,37.794871794871796,2.39714179783349,25.592564102564104,0.15013534155130187,19.05128205128205,0.2234558650309589,1641.0,0.0,78.46153846153847,20.877898353907977,13.099487179487182,4.23625265679465,-0.2517948717948718,0.0830304888476071,-1.0748717948717947,0.01448625389660196,-0.01076923076923077,0.018832309217017017,-1.5187179487179485,2.459971308655084,10.438461538461542,9.012064293712518,-5.015641025641026,1.3659058973362213,100.0,0.0,4.326565914513523,2.4223408163455606,7.268717948717947,1.9899804012353852,-2.9421520342044243,1.39107714043747
