cycle_index,gait_percent,segment_id,walk_dt_ms,walk_exec_ms,walk_out,walk_state,walk_tilt_forward_deg,walk_pos_rad,walk_vel_rad_s,walk_tq_nm,walk_temp_c,walk_vbus_v,walk_err_code,walk_fb_age_ms,walk_typical_stride_ms,walk_effective_step_count,walk_tilt_accel_deg,walk_acc_x,walk_acc_y,walk_acc_z,walk_gyr_x,walk_gyr_y,walk_gyr_z,cfg_gait_model,cfg_gait_mode,cfg_side_is_left,cfg_assist_pct,ankle_joint_angle_deg,leg_tilt_angle_deg,foot_tilt_angle_deg
2,0.0,1,20.0,0.0,0,1,-4.16,0.146,-0.246,-0.0,32.0,25.93,0,2.0,1641.0,49.0,-7.28,0.13,-1.05,-0.05,-3.21,-13.75,0.07,0,1,1,100.0,-8.365183808910018,-4.16,-4.205183808910018
2,1.0,1,20.0,0.0,0,1,-4.3589,0.14366,-0.36027,-0.0,32.0,25.93,0,2.0,1641.0,49.0,-7.2605,0.13,-1.0461,-0.05,-3.2802000000000002,-12.895900000000001,1.4545000000000001,0,1,1,100.0,-8.231111684849408,-4.3589,-3.8722116848494075
2,2.0,1,20.0,0.0,0,1,-4.5578,0.14132,-0.47454,-0.0,32.0,25.93,0,2.0,1641.0,49.0,-7.2410000000000005,0.13,-1.0422,-0.05,-3.3504,-12.0418,2.8390000000000004,0,1,1,100.0,-8.097039560788794,-4.5578,-3.5392395607887934
2,3.0,1,20.0,0.0,0,1,-5.2996,0.1283,-0.50856,-0.0,32.0,25.93,0,2.0,1641.0,49.0,-7.032,0.13,-1.0366,-0.0534,-3.4901999999999997,-9.0286,7.5973999999999995,0,1,1,100.0,-7.351048511528462,-5.2996,-2.051448511528462
2,4.0,1,20.0,0.0,0,1,-5.6356,0.12476,-0.27024,-0.0,32.0,25.93,0,2.0,1641.0,49.0,-6.8676,0.1288,-1.03,-0.06,-3.5063999999999997,-7.7236,9.5696,0,1,1,100.0,-7.148221452052151,-5.6356,-1.5126214520521506
2,5.0,1,20.0,0.0,0,1,-5.9319999999999995,0.1232,-0.0768,-0.0,32.0,25.93,0,2.0,1641.0,49.0,-6.657,0.121,-1.03,-0.06,-3.483,-6.577,11.192,0,1,1,100.0,-7.058840036011742,-5.9319999999999995,-1.1268400360117425
2,6.0,1,20.0,0.0,0,1,-6.1944,0.12096,-0.23831999999999992,-0.0,32.0,25.93,0,2.0,1641.0,49.0,-6.4192,0.1132,-1.03,-0.06,-3.4255999999999998,-5.5732,12.447199999999999,0,1,1,100.0,-6.930497489902438,-6.1944,-0.7360974899024377
2,7.0,1,20.0,0.0,0,1,-6.4242,0.11862,-0.23307999999999998,-0.0,32.0,25.93,0,2.0,1641.0,49.0,-6.159,0.11,-1.0254,-0.06,-3.3494,-4.6777999999999995,13.4,0,1,1,100.0,-6.796425365841825,-6.4242,-0.37222536584182553
2,8.0,1,20.0,0.0,0,1,-6.6228,0.11652000000000001,-0.1372,-0.0,32.0,25.93,0,2.0,1641.0,49.0,-5.8812,0.1076,-1.02,-0.0624,-3.2612,-3.8792,14.057599999999999,0,1,1,100.0,-6.676104228864353,-6.6228,-0.05330422886435304
2,9.0,1,20.0,0.0,0,1,-6.7932,0.115,-0.17505999999999994,-0.0,32.0,25.93,0,2.0,1641.0,49.0,-5.5924,0.0998,-1.02,-0.07,-3.1675999999999997,-3.1642,14.4302,0,1,1,100.0,-6.589014644004467,-6.7932,0.20418535599553245
2,10.0,1,20.0,0.0,0,1,-6.918,0.115,-0.021400000000000002,-0.0,32.0,25.93,0,2.0,1641.0,49.0,-5.295999999999999,0.092,-1.02,-0.07,-3.074,-2.548,14.437999999999999,0,1,1,100.0,-6.589014644004467,-6.918,0.3289853559955329
2,11.0,1,20.0,0.0,0,1,-6.9819,0.115,-0.015929999999999986,-0.0,32.0,25.93,0,2.0,1641.0,49.0,-5.1156,0.09,-1.02,-0.07,-3.021,-2.1899,14.3182,0,1,1,100.0,-6.589014644004467,-6.9819,0.3928853559955332
2,12.0,1,20.0,0.0,0,1,-7.0248,0.115,-0.06155999999999997,-0.0,32.0,25.93,0,2.0,1641.0,49.0,-4.9752,0.09,-1.02,-0.07,-2.982,-1.9208000000000003,14.154399999999999,0,1,1,100.0,-6.589014644004467,-7.0248,0.4357853559955327
2,13.0,1,20.0,0.0,0,1,-7.1214,0.11514,-0.0003200000000000101,-0.0,32.0,25.93,0,2.0,1641.0,49.0,-4.4652,0.07860000000000002,-1.0186,-0.07,-2.9,-1.0144000000000006,13.050400000000002,0,1,1,100.0,-6.597036053136299,-7.1214,0.5243639468637014
2,14.0,1,20.0,0.0,0,1,-7.1292,0.11592000000000001,0.009040000000000005,-0.0,32.0,25.93,0,2.0,1641.0,49.0,-4.2156,0.0708,-1.0108,-0.07,-2.9,-0.5931999999999998,12.1612,0,1,1,100.0,-6.641726761156503,-7.1292,0.4874732388434966
2,15.0,1,20.0,0.0,0,1,-7.109,0.1181,0.26199999999999996,-0.0,32.0,25.93,0,2.0,1641.0,49.0,-3.9800000000000004,0.07,-1.01,-0.077,-2.942,-0.24200000000000002,11.055,0,1,1,100.0,-6.766631560495022,-7.109,0.34236843950497775
2,16.0,1,20.0,0.0,0,1,-7.0664,0.1214,0.35512,-0.0,32.0,25.93,0,2.0,1641.0,49.0,-3.7652,0.06520000000000001,-1.01,-0.08,-3.0128,0.057999999999999885,9.7848,0,1,1,100.0,-6.955707632888194,-7.0664,0.11069236711180608
2,17.0,1,20.0,0.0,0,1,-7.0014,0.12556,0.38813999999999993,-0.0,32.0,25.93,0,2.0,1641.0,49.0,-3.5728,0.06,-1.01,-0.08,-3.109,0.3049999999999998,8.357400000000002,0,1,1,100.0,-7.194058075662617,-7.0014,-0.1926580756626164
2,18.0,1,20.0,0.0,0,1,-6.9152,0.13032000000000002,0.5339600000000001,-0.0,32.0,25.93,0,2.0,1641.0,49.0,-3.4024,0.06,-1.01,-0.08,-3.2284,0.4976000000000001,6.779199999999999,0,1,1,100.0,-7.466785986144889,-6.9152,-0.5515859861448895
2,19.0,1,20.0,0.0,0,1,-6.8216,0.13656000000000001,0.6501799999999999,-0.0,32.0,25.93,0,2.0,1641.0,49.0,-3.2542000000000004,0.06,-1.01,-0.08,-3.3922,0.6457999999999998,5.008600000000002,0,1,1,100.0,-7.824311650306523,-6.8216,-1.002711650306523
2,20.0,1,20.0,0.0,0,1,-6.755,0.1416,0.6542,-0.0,32.0,25.93,0,2.0,1641.0,49.0,-3.181,0.057,-1.01,-0.08,-3.5050000000000003,0.7130000000000001,3.8409999999999997,0,1,1,100.0,-8.113082379052457,-6.755,-1.3580823790524574
2,21.0,1,20.0,0.0,0,1,-6.6965,0.14628,0.6245600000000001,-0.0,32.0,25.93,0,2.0,1641.0,49.0,-3.1303,0.05310000000000001,-1.01,-0.08,-3.6025,0.7558999999999999,2.8543000000000016,0,1,1,100.0,-8.381226627173682,-6.6965,-1.6847266271736814
2,22.0,1,20.0,0.15999999999999945,0,1,-6.4628000000000005,0.15664,0.3850400000000001,-0.0,32.0,25.93,0,2.1599999999999993,1641.0,49.0,-3.0364,0.05,-1.01,-0.08,-4.029599999999999,0.8368,-1.1015999999999984,0,1,1,100.0,-8.974810902929216,-6.4628000000000005,-2.512010902929215
2,23.0,1,20.0,0.9400000000000006,0,1,-6.3302000000000005,0.15976,0.20485999999999988,-0.0,32.0,25.93,0,2.940000000000001,1641.0,49.0,-3.0675999999999997,0.05,-1.01,-0.08,-4.2714,0.8211999999999999,-3.2544000000000013,0,1,1,100.0,-9.153573735010033,-6.3302000000000005,-2.8233737350100325
2,24.0,1,20.0,1.0,0,1,-6.1976,0.16072,0.15644000000000005,-0.0,32.0,25.93,0,3.0,1641.0,49.0,-3.1708,0.05719999999999999,-1.01,-0.08719999999999999,-4.505999999999999,0.7552000000000001,-5.263199999999998,0,1,1,100.0,-9.208577683342591,-6.1976,-3.010977683342591
2,25.0,1,20.0,1.0,0,1,-6.07,0.1605,0.03949999999999999,-0.0,32.0,25.93,0,3.0,1641.0,49.0,-3.33,0.06,-1.01,-0.09,-4.715,0.6499999999999999,-7.05,0,1,1,100.0,-9.195972611849713,-6.07,-3.125972611849713
2,26.0,1,20.0,1.0,0,1,-5.948,0.16,-0.07323999999999994,-0.0,32.0,25.93,0,3.0,1641.0,49.0,-3.5367999999999995,0.06279999999999998,-1.01,-0.09,-4.8988,0.5084000000000003,-8.567999999999996,0,1,1,100.0,-9.167324722093172,-5.948,-3.2193247220931713
2,27.0,1,20.0,1.0,0,1,-5.8322,0.16,-0.09670000000000001,-0.0,32.0,25.93,0,3.0,1641.0,49.0,-3.7791999999999994,0.07,-1.01,-0.09,-5.0607999999999995,0.33380000000000015,-9.783,0,1,1,100.0,-9.167324722093172,-5.8322,-3.3351247220931715
2,28.0,1,20.0,1.0,0,1,-5.7307999999999995,0.16,-0.0928,-0.0,32.0,25.93,0,3.0,1641.0,49.0,-4.0288,0.07,-1.01,-0.09,-5.2012,0.12319999999999985,-10.602,0,1,1,100.0,-9.167324722093172,-5.7307999999999995,-3.4365247220931723
2,29.0,1,20.0,1.0,6,2,-5.6418,0.16,-0.01140000000000014,-0.0,32.0,25.93,0,3.0,1641.0,49.0,-4.2783999999999995,0.07619999999999999,-1.01,-0.0962,-5.3478,-0.08119999999999972,-11.142,0,1,1,100.0,-9.167324722093172,-5.6418,-3.525524722093172
2,30.0,1,20.0,0.6,6,2,-5.564,0.16,-0.005999999999999998,-0.008,32.0,25.93,0,8.6,1641.0,49.0,-4.54,0.08,-1.01,-0.1,-5.508,-0.06,-11.382,0,1,1,100.0,-9.167324722093172,-5.564,-3.6033247220931717
2,31.0,1,20.0,0.0,6,2,-5.5046,0.15613000000000005,-0.31841999999999765,0.41667999999999583,32.0,25.8733,0,17.0,1641.0,49.0,-4.7833,0.0809,-1.01,-0.1,-5.6598,0.22259999999999905,-11.312700000000001,0,1,1,100.0,-8.945590055377545,-5.5046,-3.4409900553775454
2,32.0,1,20.0,0.0,6,2,-5.4812,0.13936,-1.3862399999999993,2.3089599999999986,32.0,25.6276,0,17.0,1641.0,49.0,-4.9276,0.0848,-1.01,-0.1,-5.7456,0.6671999999999998,-10.9344,0,1,1,100.0,-7.984739832943153,-5.4812,-2.5035398329431526
2,33.0,1,20.0,0.0,6,2,-5.4578,0.12259000000000005,-2.4540599999999966,4.201239999999994,32.0,25.3819,0,17.0,1641.0,49.0,-5.071899999999999,0.08869999999999999,-1.01,-0.1,-5.8314,1.1117999999999988,-10.5561,0,1,1,100.0,-7.023889610508765,-5.4578,-1.5660896105087652
2,34.0,1,20.0,0.0,6,2,-5.4048,0.07624000000000002,-1.0867600000000013,6.450319999999999,32.0,25.0472,0,17.0,1641.0,49.0,-5.6872,0.1,-1.01,-0.1,-6.0156,4.1111999999999975,-6.913200000000003,0,1,1,100.0,-4.368230230077398,-5.4048,1.0365697699226022
2,35.0,1,20.0,0.0,6,2,-5.4030000000000005,0.06760000000000001,-0.4429,6.9167,32.0,24.992,0,17.0,1641.0,49.0,-5.947,0.10300000000000001,-1.01,-0.10300000000000001,-5.985,5.7059999999999995,-4.563,0,1,1,100.0,-3.8731946950843654,-5.4030000000000005,1.529805304915635
2,36.0,1,20.0,0.0,6,2,-5.4124,0.061599999999999995,-0.31447999999999987,6.7942,32.0,25.028,0,17.0,1641.0,49.0,-6.1668,0.11,-1.01,-0.11,-5.854399999999999,7.257600000000002,-1.9871999999999959,0,1,1,100.0,-3.529420018005871,-5.4124,1.8829799819941289
2,37.0,1,20.0,0.0,6,2,-5.4358,0.057700000000000015,-0.20216000000000048,6.630400000000001,32.0,25.106,0,17.0,1641.0,49.0,-6.3306,0.11,-1.01,-0.11,-5.604800000000001,8.599199999999994,0.6725999999999883,0,1,1,100.0,-3.305966477904851,-5.4358,2.1298335220951494
2,38.0,1,20.0,0.6399999999999978,6,2,-5.4656,0.05444000000000001,-0.2767199999999997,6.357800000000001,32.0,25.1648,0,17.639999999999997,1641.0,49.0,-6.4432,0.11639999999999998,-1.01,-0.11639999999999998,-5.240000000000001,9.646399999999996,3.2363999999999926,0,1,1,100.0,-3.119182236692202,-5.4656,2.346417763307798
2,39.0,1,20.0,1.0,6,2,-5.501,0.051320000000000005,-0.31404000000000004,6.039560000000001,32.0,25.2194,0,18.0,1641.0,49.0,-6.4984,0.12,-1.01,-0.12,-4.787000000000001,10.419199999999998,5.661599999999996,0,1,1,100.0,-2.940419404611385,-5.501,2.560580595388615
2,40.0,1,20.0,1.0,6,2,-5.5360000000000005,0.048600000000000004,-0.2948,5.736599999999999,32.0,25.271,0,18.0,1641.0,49.0,-6.505,0.119,-1.01,-0.121,-4.333,10.886,7.6499999999999995,0,1,1,100.0,-2.784574884335801,-5.5360000000000005,2.7514251156641993
2,41.0,1,20.0,1.0,6,2,-5.5594,0.04704,-0.30572,5.53224,32.0,25.3139,0,18.0,1641.0,49.0,-6.4855,0.1151,-1.01,-0.12490000000000001,-4.032699999999999,10.9874,8.664000000000001,0,1,1,100.0,-2.6951934682953924,-5.5594,2.8642065317046077
2,42.0,1,20.0,1.0,6,2,-5.5828,0.04548000000000001,-0.31664,5.32788,32.0,25.3568,0,18.0,1641.0,49.0,-6.466,0.11120000000000002,-1.01,-0.1288,-3.7324000000000015,11.088799999999999,9.677999999999995,0,1,1,100.0,-2.6058120522549846,-5.5828,2.976987947745015
2,43.0,1,20.0,1.0,6,2,-5.6034999999999995,0.04392,-0.30380000000000007,5.13729,32.0,25.397000000000002,0,18.0,1641.0,49.0,-6.4249,0.11,-1.01,-0.13,-3.402400000000001,11.0687,10.592099999999999,0,1,1,100.0,-2.516430636214576,-5.6034999999999995,3.0870693637854236
2,44.0,1,20.0,1.0,6,2,-5.622999999999999,0.04236,-0.28040000000000004,4.95282,32.0,25.436,0,18.0,1641.0,49.0,-6.3742,0.11,-1.01,-0.13,-3.0592000000000006,10.9946,11.461799999999998,0,1,1,100.0,-2.427049220174167,-5.622999999999999,3.195950779825832
2,45.0,1,20.0,1.0,6,2,-5.711,0.0305,-0.27580000000000005,3.4812,32.0,25.657,0,18.0,1641.0,49.0,-5.896,0.109,-1.02,-0.13,-0.6930000000000001,9.481,15.987,0,1,1,100.0,-1.7475212751490108,-5.711,3.9634787248509893
2,46.0,1,20.0,1.0,6,2,-5.7188,0.02659999999999999,-0.30544000000000004,3.0537599999999996,32.0,25.7116,0,18.0,1641.0,49.0,-5.708799999999999,0.1012,-1.02,-0.13,0.14160000000000128,8.708799999999998,17.2116,0,1,1,100.0,-1.5240677350479892,-5.7188,4.194732264952011
2,47.0,1,20.0,1.0,6,2,-5.7134,0.023360000000000013,-0.24598000000000034,2.6804400000000013,32.0,25.7464,0,18.0,1641.0,49.0,-5.495200000000001,0.1,-1.02,-0.13659999999999997,1.022399999999996,7.857400000000004,18.396599999999996,0,1,1,100.0,-1.3384294094256037,-5.7134,4.374970590574396
2,48.0,1,20.0,1.0,6,2,-5.6924,0.020240000000000008,-0.2288399999999999,2.327960000000001,32.0,25.7908,0,18.0,1641.0,49.0,-5.263600000000001,0.09560000000000002,-1.02,-0.14,1.9335999999999973,6.965200000000003,19.565599999999996,0,1,1,100.0,-1.1596665773447867,-5.6924,4.532733422655213
2,49.0,1,20.0,1.0,6,2,-5.6546,0.017120000000000003,-0.2635199999999999,1.9538400000000007,32.0,25.836599999999997,0,18.0,1641.0,49.0,-5.013,0.0878,-1.02,-0.14,2.8683999999999985,6.046000000000001,20.7322,0,1,1,100.0,-0.9809037452639695,-5.6546,4.673696254736031
2,50.0,1,20.0,1.0,6,2,-5.6,0.014,-0.315,1.503,32.0,25.86,0,18.0,1641.0,49.0,-4.74,0.08,-1.02,-0.14,3.82,5.11,21.91,0,1,1,100.0,-0.8021409131831525,-5.6,4.797859086816847
2,51.0,1,20.0,1.0,6,2,-5.561,0.012049999999999996,-0.35205000000000003,1.2389699999999995,32.0,25.8756,0,18.0,1641.0,49.0,-4.5957,0.08,-1.0239,-0.1361,4.3036,4.6342,22.5301,0,1,1,100.0,-0.6904141431326418,-5.561,4.870585856867358
2,52.0,1,20.0,1.0,6,2,-5.522,0.010100000000000008,-0.38909999999999983,0.974940000000001,32.0,25.891199999999998,0,18.0,1641.0,49.0,-4.4514000000000005,0.08,-1.0278,-0.1322,4.787199999999998,4.158400000000002,23.150199999999998,0,1,1,100.0,-0.5786873730821319,-5.522,4.943312626917868
2,53.0,1,20.0,1.0,6,2,-5.4558,0.006960000000000013,-0.36818000000000023,0.5635200000000018,32.0,25.9,0,18.0,1641.0,49.0,-4.244200000000001,0.07660000000000003,-1.03,-0.13,5.467999999999997,3.471800000000003,24.098399999999998,0,1,1,100.0,-0.3987786254110537,-5.4558,5.057021374588946
2,54.0,1,20.0,1.0,6,2,-5.186,-0.0012399999999999978,-0.2613200000000002,-0.4851599999999998,32.0,25.9,0,18.0,1641.0,49.0,-3.6152,0.06880000000000001,-1.0312000000000001,-0.13,7.446799999999999,1.1560000000000017,27.579199999999997,0,1,1,100.0,0.07104676659622196,-5.186,5.257046766596222
2,55.0,1,20.0,1.0,6,2,-5.029999999999999,-0.0028,-0.1334,-0.6162,32.0,25.9,0,18.0,1641.0,49.0,-3.389,0.061,-1.0390000000000001,-0.13,8.141,0.02499999999999991,29.459,0,1,1,100.0,0.1604281826366305,-5.029999999999999,5.19042818263663
2,56.0,1,20.0,1.0,6,2,-4.860399999999999,-0.004360000000000003,-0.11836,-0.66768,32.0,25.9,0,18.0,1641.0,49.0,-3.2104,0.06,-1.04,-0.12319999999999999,8.6788,-1.1740000000000015,31.672000000000004,0,1,1,100.0,0.24980959867703909,-4.860399999999999,5.110209598677039
2,57.0,1,20.0,1.0,6,2,-4.665800000000001,-0.005459999999999997,-0.056440000000000455,-0.7253999999999997,32.0,25.9,0,18.0,1641.0,49.0,-3.0756000000000006,0.06,-1.0492,-0.12,9.055599999999998,-2.4059999999999944,34.20539999999999,0,1,1,100.0,0.3128349561414293,-4.665800000000001,4.9786349561414305
2,58.0,1,20.0,1.0,6,2,-4.4504,-0.006,0.02563999999999992,-0.7528800000000002,32.0,25.9,0,18.0,1641.0,49.0,-2.9736000000000002,0.05760000000000002,-1.0624,-0.12,9.2548,-3.6539999999999964,37.08359999999999,0,1,1,100.0,0.34377467707849396,-4.4504,4.7941746770784945
2,59.0,1,20.0,1.0,6,2,-4.223400000000001,-0.005980000000000001,0.05409999999999993,-0.6821000000000003,32.0,25.9,0,18.0,1641.0,49.0,-2.8876000000000004,0.05,-1.0704,-0.1198,9.263,-4.901599999999998,40.325599999999994,0,1,1,100.0,0.34262876148823235,-4.223400000000001,4.566028761488233
2,60.0,1,20.0,1.0,6,2,-3.966,-0.0052,0.097,-0.53,32.0,25.9,0,18.0,1641.0,49.0,-2.794,0.05,-1.086,-0.112,8.99,-6.134,44.053999999999995,0,1,1,100.0,0.29793805346802804,-3.966,4.263938053468028
2,61.0,1,20.0,1.0,6,2,-3.8284666666666665,-0.0048066666666666666,0.12172666666666669,-0.4343533333333332,32.0,25.9,0,18.0,1641.0,49.0,-2.7352,0.05,-1.0919333333333334,-0.11,8.776933333333332,-6.759333333333334,46.02693333333333,0,1,1,100.0,0.2754017135262157,-3.8284666666666665,4.103868380192882
2,62.0,1,20.0,1.0,6,2,-3.732266666666667,-0.004546666666666668,0.1401866666666666,-0.3581733333333337,32.0,25.9,0,18.0,1641.0,49.0,-2.6884,0.05,-1.0945333333333334,-0.11,8.584533333333335,-7.175333333333332,47.39453333333333,0,1,1,100.0,0.26050481085281435,-3.732266666666667,3.992771477519481
2,63.0,1,20.0,1.0,6,2,-3.636066666666667,-0.004286666666666668,0.1586466666666666,-0.28199333333333354,32.0,25.9,0,18.0,1641.0,49.0,-2.6416,0.05,-1.0971333333333335,-0.11,8.392133333333334,-7.591333333333333,48.76213333333333,0,1,1,100.0,0.24560790817941294,-3.636066666666667,3.88167457484608
2,64.0,1,20.0,1.0,6,2,-3.5398666666666667,-0.004026666666666667,0.17710666666666663,-0.20581333333333343,32.0,25.9,0,18.0,1641.0,49.0,-2.5947999999999998,0.05,-1.0997333333333335,-0.11,8.199733333333333,-8.007333333333333,50.129733333333334,0,1,1,100.0,0.2307110055060115,-3.5398666666666667,3.7705776721726783
2,65.0,1,20.0,1.0,6,2,-2.31,0.0,-0.02479999999999999,0.08120000000000002,32.0,25.9,0,18.0,1641.0,49.0,-1.779,0.033,-1.13,-0.1,4.821,-13.128,63.72,0,1,1,100.0,-0.0,-2.31,2.31
2,66.0,1,20.0,1.0,6,2,-1.8960000000000026,-0.00047999999999999546,-0.0453200000000003,-0.00807999999999979,32.0,25.9,0,18.0,1641.0,49.0,-1.555200000000001,0.03,-1.13,-0.09520000000000005,3.800400000000006,-14.965199999999989,66.12599999999999,0,1,1,100.0,0.027501974166279256,-1.8960000000000026,1.9235019741662818
2,67.0,1,20.0,1.0,6,2,-1.4513999999999987,-0.0012600000000000022,-0.04090000000000026,-0.11962000000000075,32.0,25.9,0,18.0,1641.0,49.0,-1.3913999999999997,0.03,-1.1274,-0.09,2.869599999999998,-16.977600000000006,67.48060000000001,0,1,1,100.0,0.07219268218648385,-1.4513999999999987,1.5235926821864825
2,68.0,1,20.0,0.9600000000000023,6,2,-0.9736000000000015,-0.002039999999999998,-0.1242800000000001,-0.3746799999999997,32.0,25.9,0,17.96,1641.0,49.0,-1.3128,0.03,-1.1196000000000002,-0.08960000000000001,2.0700000000000016,-19.13319999999999,67.62559999999999,0,1,1,100.0,0.11688339020668782,-0.9736000000000015,1.0904833902066893
2,69.0,1,20.0,0.18000000000000677,6,2,-0.4588000000000046,-0.002819999999999993,-0.09074000000000029,-0.48543999999999904,32.0,25.9,0,17.180000000000007,1641.0,49.0,-1.3673999999999995,0.03,-1.1118000000000001,-0.08180000000000007,1.4850000000000052,-21.34059999999998,65.97980000000001,0,1,1,100.0,0.16157409822689175,-0.4588000000000046,0.6203740982268964
2,70.0,1,20.0,0.6000000000000001,6,2,0.08599999999999994,-0.0036,-0.060200000000000004,-0.5452,32.0,25.9,0,17.6,1641.0,49.0,-1.5539999999999998,0.03,-1.098,-0.07400000000000001,1.092,-23.398,62.827999999999996,0,1,1,100.0,0.20626480624709637,0.08599999999999994,0.12026480624709643
2,71.0,1,20.0,1.0,6,2,0.6587999999999965,-0.004379999999999996,-0.027140000000000213,-0.6120799999999995,32.0,25.9,0,18.0,1641.0,49.0,-1.8561999999999979,0.033799999999999955,-1.0786000000000002,-0.07,0.8630000000000008,-25.148199999999992,58.31620000000003,0,1,1,100.0,0.25095551426730034,0.6587999999999965,-0.40784448573269616
2,72.0,1,20.0,1.0,6,2,1.1940000000000008,-0.005080000000000001,-0.005280000000000104,-0.6870400000000001,32.0,25.9,0,18.0,1641.0,49.08,-2.212000000000001,0.04080000000000001,-1.0576,-0.0692,0.7756000000000001,-26.3792,53.24119999999999,0,1,1,100.0,0.29106255992645824,1.1940000000000008,-0.9029374400735426
2,73.0,1,20.0,1.0,6,2,1.505999999999999,-0.005469999999999999,-0.0407699999999999,-0.7018599999999999,32.0,25.9,0,18.0,1641.0,49.47,-2.465499999999999,0.04469999999999999,-1.0459,-0.06530000000000001,0.8029,-26.6678,49.68830000000001,0,1,1,100.0,0.31340791393656026,1.505999999999999,-1.1925920860634387
2,74.0,1,20.0,1.0,1,5,1.8179999999999972,-0.005859999999999997,-0.07625999999999969,-0.7166799999999999,32.0,25.9,0,18.0,1641.0,49.86,-2.7189999999999976,0.04859999999999997,-1.0342000000000002,-0.06140000000000003,0.8301999999999997,-26.956399999999995,46.13540000000003,0,1,1,100.0,0.33575326794666227,1.8179999999999972,-1.4822467320533348
2,75.0,1,20.0,0.0,1,5,3.17,-0.026500000000000003,-1.7615,0.089,32.0,25.845,0,19.0,1641.0,50.0,-3.785,0.065,-0.985,-0.06,1.435,-24.715,28.595,0,1,1,100.0,1.5183381570966816,3.17,-1.6516618429033183
2,76.0,1,20.0,0.0,1,5,3.825199999999996,-0.06015999999999979,-3.240400000000003,1.1186399999999956,32.0,25.810399999999998,0,19.0,1641.0,50.0,-4.156799999999999,0.07,-0.9644,-0.05720000000000004,1.9959999999999958,-22.02200000000002,19.707200000000054,0,1,1,100.0,3.4469140955070205,3.825199999999996,-0.3782859044929756
2,77.0,1,20.0,0.0,1,5,4.478600000000002,-0.09622000000000008,-2.763579999999999,1.847760000000002,32.0,25.753400000000003,0,19.0,1641.0,50.0,-4.3746,0.07,-0.9487999999999999,-0.05060000000000003,2.755000000000003,-18.352999999999987,10.741999999999974,0,1,1,100.0,5.512999904748786,4.478600000000002,1.034399904748784
2,78.0,1,20.0,0.0,1,5,5.1103999999999985,-0.1250799999999999,-2.368120000000001,2.546639999999998,32.0,25.6676,0,19.0,1641.0,50.0,-4.3044,0.07,-0.9332,-0.05839999999999998,3.7299999999999973,-13.712000000000014,1.9280000000000246,0,1,1,100.0,7.166556101496332,5.1103999999999985,2.0561561014963337
2,79.0,1,20.0,0.0,1,5,5.478699999999997,-0.1399899999999999,-2.100380000000002,2.9088599999999976,32.0,25.6283,0,19.0,1641.0,50.0,-4.097800000000002,0.06690000000000004,-0.9238000000000001,-0.06,4.379499999999995,-10.717100000000022,-3.2310999999999632,0,1,1,100.0,8.020836174036388,5.478699999999997,2.542136174036391
2,80.0,1,20.0,0.0,1,6,5.779,-0.1513,-1.8656,3.1841999999999997,32.0,25.601,0,19.0,1641.0,50.0,-3.856,0.063,-0.916,-0.06,4.945,-8.147,-7.447,0,1,1,100.0,8.668851440329355,5.779,2.8898514403293554
2,81.0,1,20.0,0.0,1,6,6.757799999999999,-0.18177999999999997,-1.1855400000000007,4.181779999999999,32.0,25.501600000000003,0,19.0,1641.0,50.0,-2.3750000000000027,0.038200000000000046,-0.9,-0.07119999999999997,6.934999999999999,0.6059999999999915,-21.305999999999987,0,1,1,100.0,10.415226799888103,6.757799999999999,3.6574267998881043
2,82.0,1,20.0,0.0,1,6,6.921600000000001,-0.18516000000000002,-1.0838799999999997,4.380160000000001,32.0,25.465200000000003,0,19.0,1641.0,50.0,-1.9199999999999986,0.03039999999999998,-0.9,-0.07640000000000002,7.260000000000001,2.0620000000000043,-23.672000000000008,0,1,1,100.0,10.608886534642323,6.921600000000001,3.6872865346423227
2,83.0,1,20.0,0.0,1,6,7.085399999999999,-0.18853999999999999,-0.9822200000000003,4.578539999999999,32.0,25.428800000000003,0,19.0,1641.0,50.0,-1.4650000000000012,0.022600000000000023,-0.9,-0.08159999999999999,7.584999999999999,3.5179999999999954,-26.037999999999993,0,1,1,100.0,10.80254626939654,7.085399999999999,3.717146269396541
2,84.0,1,20.0,0.0,1,6,7.249199999999998,-0.19191999999999998,-0.8805600000000009,4.776919999999998,32.0,25.392400000000002,0,19.0,1641.0,50.0,-1.010000000000004,0.014800000000000068,-0.9,-0.08679999999999995,7.909999999999997,4.973999999999987,-28.40399999999998,0,1,1,100.0,10.996206004150759,7.249199999999998,3.7470060041507605
2,85.0,1,20.0,0.0,1,6,8.403,-0.2129,-0.23679999999999998,6.0247,32.0,25.209,0,19.0,1641.0,50.0,4.9879999999999995,-0.082,-0.913,-0.126,8.952,13.274,-45.632000000000005,0,1,1,100.0,12.198271458335228,8.403,3.795271458335227
2,86.0,1,20.0,0.0,1,6,8.6352,-0.21508,-0.09648000000000065,6.369879999999998,32.0,25.1544,0,19.0,1641.0,50.0,7.217199999999988,-0.11399999999999977,-0.9208,-0.14079999999999995,8.560400000000005,14.116,-49.16279999999999,0,1,1,100.0,12.323176257673746,8.6352,3.6879762576737463
2,87.0,1,20.0,0.0,1,6,8.7834,-0.21586,0.015840000000000326,6.670960000000001,32.0,25.0998,0,19.0,1641.0,50.0,9.432400000000007,-0.1530000000000001,-0.9286000000000001,-0.1486,7.8817999999999975,14.272,-51.23760000000001,0,1,1,100.0,12.36786696569395,8.7834,3.5844669656939505
2,88.0,1,20.0,0.0,1,6,8.854800000000001,-0.21216000000000002,0.30927999999999906,7.428359999999997,32.0,24.93,0,19.0,1641.0,50.0,11.468399999999995,-0.1919999999999999,-0.9364,-0.15639999999999998,7.145600000000002,14.3896,-51.776399999999995,0,1,1,100.0,12.155872581495547,8.854800000000001,3.3010725814955464
2,89.0,1,20.0,0.0,1,6,8.859,-0.20874,0.3647200000000016,7.713120000000002,32.0,24.8568,0,19.0,1641.0,50.0,13.250999999999987,-0.22679999999999972,-0.9483999999999998,-0.16,6.447200000000006,14.759199999999995,-50.988000000000014,0,1,1,100.0,11.959921015560804,8.859,3.100921015560804
2,90.0,1,20.0,0.0,3,7,8.8,-0.206,0.2602,7.666399999999999,32.0,24.852,0,19.0,1641.0,50.0,14.732,-0.256,-0.964,-0.156,5.824,15.501999999999999,-48.942,0,1,1,100.0,11.802930579694959,8.8,3.002930579694958
2,91.0,1,20.0,0.0,3,7,8.683,-0.20210000000000003,0.3818799999999993,8.081359999999998,32.0,24.7428,0,19.0,1641.0,50.0,15.870799999999994,-0.27939999999999987,-0.9795999999999999,-0.1404000000000001,5.293600000000003,16.679799999999993,-45.71280000000002,0,1,1,100.0,11.57947703959394,8.683,2.8964770395939397
2,92.0,1,20.0,0.0,3,7,8.489999999999998,-0.1944,0.5848800000000006,8.636920000000002,32.0,24.603199999999998,0,19.0,1641.0,50.0,16.6068,-0.2952,-0.9876,-0.12479999999999995,4.839199999999999,18.237600000000004,-41.29039999999999,0,1,1,100.0,11.138299537343203,8.489999999999998,2.6482995373432043
2,93.0,1,20.0,0.0,3,7,8.3409,-0.18822000000000003,0.6766199999999999,8.934819999999998,32.0,24.5519,0,19.0,1641.0,50.0,16.9623,-0.30269999999999997,-0.9954,-0.11460000000000002,4.543400000000001,19.2492,-38.12180000000001,0,1,1,100.0,10.784211619952357,8.3409,2.4433116199523575
2,94.0,1,20.0,0.0,3,7,8.212200000000001,-0.18276000000000003,0.7179599999999996,9.116559999999998,32.0,24.5402,0,19.0,1641.0,50.0,17.153399999999998,-0.3066,-1.0031999999999999,-0.10680000000000008,4.317200000000002,20.013599999999993,-35.52440000000002,0,1,1,100.0,10.471376663810927,8.212200000000001,2.2591766638109263
2,95.0,1,20.0,0.0,3,7,7.666,-0.15360000000000001,1.4746,9.6327,32.0,24.511,0,19.0,1641.0,50.0,17.447,-0.32,-1.021,-0.077,3.354,22.073,-25.604,0,1,1,100.0,8.800631733209446,7.666,1.1346317332094458
2,96.0,1,20.0,0.0,3,7,7.322800000000002,-0.1348800000000001,1.6196799999999991,9.138960000000003,32.0,24.674799999999998,0,19.0,1641.0,50.0,17.345599999999997,-0.32,-1.0288,-0.05360000000000014,2.683200000000004,22.4084,-20.33120000000003,0,1,1,100.0,7.72805474072455,7.322800000000002,0.4052547407245486
2,97.0,1,20.0,0.0,3,7,6.959799999999999,-0.11219999999999992,1.59316,8.153519999999997,32.660000000000004,24.9574,0,19.0,1641.0,50.0,17.1254,-0.32,-1.0366,-0.04339999999999998,1.9199999999999977,22.0706,-15.441199999999986,0,1,1,100.0,6.428586461367832,6.959799999999999,-0.5312135386321666
2,98.0,1,20.0,0.4399999999999977,3,7,6.593200000000001,-0.09320000000000005,1.3409600000000013,6.795320000000005,33.0,25.244,0,19.439999999999998,1641.0,50.0,16.8396,-0.31560000000000005,-1.0444,-0.03560000000000002,1.1136000000000024,21.179200000000005,-10.964000000000013,0,1,1,100.0,5.339966650619275,6.593200000000001,-1.253233349380726
2,99.0,1,20.0,0.7800000000000068,3,7,6.226600000000003,-0.0789200000000001,0.9717000000000026,5.214640000000014,33.0,25.5016,0,19.78000000000001,1641.0,50.0,16.5132,-0.31,-1.0522,-0.027800000000000068,0.29560000000000697,19.785200000000017,-6.950000000000031,0,1,1,100.0,4.521782919172463,6.226600000000003,-1.7048170808275405
2,100.0,1,20.0,0.0,3,7,5.86,-0.068,0.687,3.625,33.0,25.72,0,19.0,1641.0,50.0,16.17,-0.31,-1.06,-0.02,-0.5,17.96,-3.44,0,1,1,100.0,3.8961130068895984,5.86,-1.963886993110402
3,0.0,1,20.0,0.0,0,1,5.42,-0.057,0.583,2.122,33.0,25.86,0,19.0,1641.0,50.0,15.71,-0.3,-1.06,-0.02,-1.41,15.08,0.2,0,1,1,100.0,3.2658594322456924,5.42,-2.1541405677543075
3,1.0,1,20.0,0.0,0,1,5.164,-0.05316,0.3206,1.22216,33.0,25.86,0,19.0,1641.0,50.0,15.4284,-0.29359999999999997,-1.06,-0.02,-1.8772000000000002,13.16,1.9791999999999998,0,1,1,100.0,3.045843638915456,5.164,-2.1181563610845435
3,2.0,1,20.0,0.0,0,1,4.618,-0.051,0.173,0.716,33.0,25.86,0,41.8,1641.0,50.0,14.7698,-0.2786,-1.0686,-0.0214,-2.7432,8.9284,5.2940000000000005,0,1,1,100.0,2.9220847551671985,4.618,-1.6959152448328019
3,3.0,1,20.0,0.0,0,1,4.522,-0.051,0.173,0.716,33.0,25.86,0,48.2,1641.0,50.0,14.632200000000001,-0.27540000000000003,-1.0654000000000001,-0.0246,-2.8648,8.147599999999999,5.806,0,1,1,100.0,2.9220847551671985,4.522,-1.5999152448328018
3,4.0,1,20.0,0.0,0,1,4.426,-0.051,0.173,0.716,33.0,25.86,0,54.6,1641.0,50.0,14.4946,-0.2722,-1.0622,-0.0278,-2.9863999999999997,7.3668,6.3180000000000005,0,1,1,100.0,2.9220847551671985,4.426,-1.5039152448328017
3,5.0,1,20.0,0.0,0,1,4.074,-0.0538,-0.2196,-0.0,33.0,25.98,0,7.0,1641.0,50.0,13.922,-0.26,-1.06,-0.03,-3.342,4.494,7.948,0,1,1,100.0,3.082512937803829,4.074,-0.9914870621961707
3,6.0,1,20.0,0.0,0,1,3.9588,-0.05316,-0.010319999999999848,-0.0,33.0,25.916,0,7.0,1641.0,50.0,13.6724,-0.26,-1.06,-0.03,-3.4444000000000004,3.482799999999999,8.357600000000001,0,1,1,100.0,3.045843638915456,3.9588,-0.9129563610845439
3,7.0,1,20.0,0.0,0,1,3.8676,-0.05252,0.11736000000000006,-0.0,33.0,25.9144,0,7.0,1641.0,50.0,13.4324,-0.2552,-1.0552000000000001,-0.034800000000000005,-3.5276,2.6635999999999993,8.4936,0,1,1,100.0,3.0091743400270836,3.8676,-0.8584256599729163
3,8.0,1,20.0,0.0,0,1,3.7916,-0.051399999999999994,0.2304400000000001,-0.0,33.0,25.93,0,7.0,1641.0,50.0,13.198,-0.2488,-1.05,-0.04,-3.5995999999999997,1.9527999999999996,8.4592,0,1,1,100.0,2.945003066972431,3.7916,-0.8465969330275689
3,9.0,1,20.0,0.0,0,1,3.7468,-0.0482,0.39812000000000003,-0.0,33.0,25.93,0,7.0,1641.0,50.0,12.974,-0.2424,-1.05,-0.04,-3.6508,1.4344,8.0816,0,1,1,100.0,2.7616565725305677,3.7468,-0.9851434274694322
3,10.0,1,20.0,0.0,0,1,3.726,-0.043,0.6286,-0.0,33.0,25.93,0,7.0,1641.0,50.0,12.754000000000001,-0.236,-1.046,-0.04,-3.702,1.02,7.404,0,1,1,100.0,2.4637185190625397,3.726,-1.2622814809374603
3,11.0,1,20.0,0.0,0,1,3.7212,-0.03651999999999999,0.8724799999999999,-0.0,33.0,25.93,0,7.0,1641.0,50.0,12.5356,-0.2296,-1.04,-0.040400000000000005,-3.7532,0.6771999999999998,6.516799999999998,0,1,1,100.0,2.0924418678177656,3.7212,-1.6287581321822344
3,12.0,1,20.0,0.0,0,1,3.7404,-0.028839999999999987,0.7521599999999997,-0.0,33.0,25.93,0,7.0,1641.0,50.0,12.3052,-0.22319999999999998,-1.04,-0.046800000000000015,-3.8044000000000002,0.4723999999999996,5.185599999999997,0,1,1,100.0,1.6524102811572934,3.7404,-2.0879897188427066
3,13.0,1,20.0,0.0,0,1,3.7574666666666667,-0.023613333333333333,0.74192,-0.0,33.0,25.9268,0,7.0,1641.0,50.0,12.148399999999999,-0.22,-1.0389333333333333,-0.05,-3.840666666666667,0.3497333333333333,4.220266666666666,0,1,1,100.0,1.3529443402355839,3.7574666666666667,-2.404522326431083
3,14.0,1,20.0,0.0,0,1,3.7723999999999998,-0.020839999999999997,0.8417600000000001,-0.0,33.0,25.9204,0,7.0,1641.0,50.0,12.065199999999999,-0.22,-1.0368,-0.05,-3.862,0.3091999999999999,3.620799999999999,0,1,1,100.0,1.1940440450526355,3.7723999999999998,-2.578355954947364
3,15.0,1,20.0,0.0,0,1,3.787333333333333,-0.01806666666666667,0.9416,-0.0,33.0,25.913999999999998,0,7.0,1641.0,50.0,11.982,-0.22,-1.0346666666666666,-0.05,-3.8833333333333333,0.26866666666666666,3.021333333333333,0,1,1,100.0,1.0351437498696874,3.787333333333333,-2.752189583463646
3,16.0,1,20.0,0.0,0,1,3.8022666666666667,-0.01529333333333333,1.04144,-0.0,33.0,25.9076,0,7.0,1641.0,50.0,11.8988,-0.22,-1.0325333333333333,-0.05,-3.904666666666667,0.2281333333333333,2.421866666666666,0,1,1,100.0,0.8762434546867388,3.8022666666666667,-2.9260232119799277
3,17.0,1,20.0,0.0,0,1,3.8171999999999997,-0.012519999999999995,1.14128,-0.0,33.0,25.9012,0,7.0,1641.0,50.0,11.8156,-0.22,-1.0304,-0.05,-3.926,0.18759999999999993,1.8223999999999991,0,1,1,100.0,0.7173431595037904,3.8171999999999997,-3.0998568404962095
3,18.0,1,20.0,1.0,0,1,4.138,0.04052000000000001,1.57264,-0.0,33.0,25.93,0,8.0,1641.0,50.0,10.5336,-0.1896,-1.02,-0.06,-4.192,0.039599999999999996,-8.202000000000002,0,1,1,100.0,-2.321624985870096,4.138,-6.4596249858700965
3,19.0,1,20.0,1.0,0,1,4.2356,0.057640000000000025,1.8512000000000002,-0.0,33.0,25.93,0,8.0,1641.0,50.0,10.1592,-0.17839999999999998,-1.02,-0.06,-4.252800000000001,0.03160000000000001,-11.224400000000005,0,1,1,100.0,-3.3025287311340663,4.2356,-7.538128731134066
3,20.0,1,20.0,1.0,0,1,4.338,0.0762,1.992,-0.0,33.0,25.93,0,8.0,1641.0,50.0,9.756,-0.17200000000000001,-1.02,-0.06,-4.304,0.038,-14.482,0,1,1,100.0,-4.365938398896874,4.338,-8.703938398896874
3,21.0,1,20.0,1.0,0,1,4.436,0.09476000000000002,1.90048,-0.0,33.0,25.93,0,8.0,1641.0,50.0,9.3176,-0.1656,-1.0156,-0.06440000000000001,-4.364,0.057600000000000026,-17.8804,0,1,1,100.0,-5.429348066659682,4.436,-9.865348066659681
3,22.0,1,20.0,1.0,0,1,4.5312,0.11260000000000002,1.6459199999999987,-0.0,33.0,25.927599999999998,0,8.0,1641.0,50.0,8.854399999999998,-0.15839999999999999,-1.01,-0.07,-4.428,0.08320000000000005,-21.328400000000006,0,1,1,100.0,-6.45150477317307,4.5312,-10.98270477317307
3,23.0,1,20.0,1.0,0,1,4.6208,0.12540000000000004,0.9892799999999983,-0.0,33.0,25.9084,0,8.0,1641.0,50.0,8.329599999999997,-0.14559999999999998,-1.01,-0.07,-4.492,0.10880000000000006,-24.67560000000001,0,1,1,100.0,-7.184890750940525,4.6208,-11.805690750940524
3,24.0,1,20.0,1.0,0,1,4.6996,0.131,0.3790799999999979,-0.0,33.0,25.9108,0,8.0,1641.0,50.0,7.743599999999998,-0.1364,-1.01,-0.07,-4.538,0.14520000000000016,-27.70240000000001,0,1,1,100.0,-7.505747116213785,4.6996,-12.205347116213785
3,25.0,1,20.0,1.0,6,2,4.77,0.131,-0.195,-0.0,33.0,25.93,0,8.0,1641.0,50.0,7.11,-0.13,-1.01,-0.07,-4.57,0.19,-30.48,0,1,1,100.0,-7.505747116213785,4.77,-12.275747116213784
3,26.0,1,20.0,0.6799999999999997,6,2,4.795599999999999,0.13068000000000002,-0.19948000000000002,-0.025600000000000022,33.0,25.9204,0,11.200000000000003,1641.0,50.0,6.7324,-0.1236,-1.01,-0.07320000000000002,-4.5476,0.19640000000000002,-31.2864,0,1,1,100.0,-7.487412466769599,4.795599999999999,-12.283012466769598
3,27.0,1,20.0,0.3599999999999994,6,2,4.821199999999999,0.13036,-0.20396,-0.051200000000000044,33.0,25.9108,0,14.400000000000006,1641.0,50.0,6.354799999999999,-0.11719999999999998,-1.01,-0.07640000000000001,-4.5252,0.2028,-32.092800000000004,0,1,1,100.0,-7.469077817325412,4.821199999999999,-12.29027781732541
3,28.0,1,20.0,0.03999999999999909,6,2,4.8468,0.13004000000000002,-0.20844000000000001,-0.07680000000000008,33.0,25.9012,0,17.60000000000001,1641.0,50.0,5.977199999999999,-0.11079999999999998,-1.01,-0.07960000000000002,-4.5028,0.20920000000000002,-32.8992,0,1,1,100.0,-7.450743167881226,4.8468,-12.297543167881226
3,29.0,1,20.0,0.0,6,2,4.884399999999999,0.07107999999999992,-2.176559999999998,2.896760000000001,33.0,25.65,0,18.0,1641.0,50.0,3.890799999999997,-0.06879999999999996,-1.02,-0.08,-4.047199999999999,0.29360000000000014,-31.995199999999993,0,1,1,100.0,-4.072584007789887,4.884399999999999,-8.956984007789886
3,30.0,1,20.0,0.2,6,2,4.866,0.0538,-1.5746,3.145,33.0,25.65,0,18.2,1641.0,50.0,3.058,-0.056,-1.02,-0.082,-3.778,0.332,-30.299999999999997,0,1,1,100.0,-3.082512937803829,4.866,-7.948512937803828
3,31.0,1,20.0,0.8400000000000006,6,2,4.821199999999999,0.043559999999999995,-0.9493199999999995,3.3466,33.0,25.65,0,18.84,1641.0,50.0,2.251599999999999,-0.04319999999999999,-1.02,-0.0884,-3.4516,0.37040000000000006,-27.804,0,1,1,100.0,-2.4958041555898656,4.821199999999999,-7.317004155589865
3,32.0,1,20.0,0.5199999999999988,6,2,4.7572,0.03619999999999999,-0.7661199999999999,3.074919999999999,33.0,25.6836,0,18.52,1641.0,50.0,1.5027999999999988,-0.03039999999999998,-1.02,-0.09,-3.0531999999999995,0.38,-24.674399999999995,0,1,1,100.0,-2.0741072183735794,4.7572,-6.8313072183735795
3,33.0,1,20.0,0.12000000000000172,6,2,4.6796,0.029919999999999985,-0.7090399999999996,2.658319999999999,33.0,25.7284,0,18.12,1641.0,50.0,0.7911999999999983,-0.017599999999999966,-1.0212,-0.09,-2.6127999999999987,0.36319999999999975,-21.23159999999999,0,1,1,100.0,-1.7142897230314222,4.6796,-6.393889723031422
3,34.0,1,20.0,0.7600000000000023,6,2,4.5708,0.02415999999999998,-0.5599199999999995,2.2973599999999985,33.0,25.7732,0,18.76,1641.0,50.0,0.15759999999999774,-0.0047999999999999545,-1.0276,-0.09,-2.094399999999998,0.2735999999999997,-17.346799999999988,0,1,1,100.0,-1.3842660330360679,4.5708,-5.9550660330360685
3,35.0,1,20.0,1.0,6,2,4.446000000000001,0.0188,-0.4972,1.8624,33.0,25.817999999999998,0,19.0,1641.0,50.0,-0.41200000000000003,0.008,-1.03,-0.094,-1.504,0.11199999999999999,-13.238,0,1,1,100.0,-1.0771606548459478,4.446000000000001,-5.523160654845949
3,36.0,1,20.0,1.0,6,2,4.3100000000000005,0.013639999999999996,-0.4964000000000001,1.3596399999999993,33.0,25.8616,0,19.0,1641.0,50.0,-0.9372000000000004,0.020400000000000005,-1.03,-0.1,-0.8647999999999993,-0.10000000000000028,-8.979999999999995,0,1,1,100.0,-0.7815144325584427,4.3100000000000005,-5.091514432558443
3,37.0,1,20.0,1.0,6,2,4.15,0.00787999999999999,-0.6468000000000003,0.5058799999999984,33.0,25.8872,0,19.0,1641.0,50.0,-1.3724000000000007,0.02680000000000001,-1.03,-0.1,-0.14159999999999864,-0.42000000000000054,-4.499999999999992,0,1,1,100.0,-0.4514907425630881,4.15,-4.601490742563088
3,38.0,1,20.0,1.0,6,2,4.0412,0.0042533333333333295,-0.6961866666666665,-0.04174666666666729,33.0,25.9,0,19.0,1641.0,50.0,-1.6465333333333336,0.031066666666666673,-1.0310666666666668,-0.1,0.3512000000000007,-0.6504000000000003,-1.487733333333329,0,1,1,100.0,-0.24369804886230992,4.0412,-4.28489804886231
3,39.0,1,20.0,1.0,6,2,3.9836,0.0027599999999999947,-0.6445599999999998,-0.2832400000000008,33.0,25.9,0,19.0,1641.0,50.0,-1.7596000000000005,0.03320000000000001,-1.0332000000000001,-0.1,0.6136000000000009,-0.7912000000000005,0.056800000000005804,0,1,1,100.0,-0.1581363514561069,3.9836,-4.141736351456107
3,40.0,1,20.0,1.0,6,2,3.926,0.0012666666666666668,-0.5929333333333333,-0.5247333333333333,33.0,25.9,0,19.0,1641.0,50.0,-1.8726666666666667,0.035333333333333335,-1.0353333333333334,-0.1,0.876,-0.9319999999999999,1.6013333333333337,0,1,1,100.0,-0.07257465404990428,3.926,-3.9985746540499045
3,41.0,1,20.0,1.0,6,2,3.8684,-0.00022666666666667446,-0.5413066666666664,-0.7662266666666678,33.0,25.9,0,19.0,1641.0,50.0,-1.985733333333334,0.037466666666666676,-1.0374666666666668,-0.1,1.1384000000000014,-1.0728000000000009,3.1458666666666755,0,1,1,100.0,0.012987043356299107,3.8684,-3.8554129566437005
3,42.0,1,20.0,1.0,6,2,3.8108,-0.0017200000000000026,-0.4896799999999999,-1.0077200000000002,33.0,25.9,0,19.0,1641.0,50.0,-2.0988,0.0396,-1.0396,-0.1,1.4008000000000005,-1.2136000000000002,4.690400000000003,0,1,1,100.0,0.09854874076250174,3.8108,-3.7122512592374983
3,43.0,1,20.0,1.0,6,2,3.0896000000000003,-0.010960000000000003,0.10023999999999984,-1.3138800000000002,33.0,25.86,0,19.0,1641.0,50.0,-3.1268,0.05519999999999999,-1.0652000000000001,-0.1,4.293599999999999,-3.311199999999999,24.12279999999999,0,1,1,100.0,0.6279617434633824,3.0896000000000003,-2.461638256536618
3,44.0,1,20.0,1.0,6,2,2.9215999999999993,-0.009679999999999996,0.17880000000000018,-1.1687599999999994,33.0,25.8664,0,19.0,1641.0,50.0,-3.3332000000000006,0.06160000000000002,-1.0732000000000002,-0.1,4.845600000000002,-3.816800000000002,29.212400000000017,0,1,1,100.0,0.5546231456866366,2.9215999999999993,-2.3669768543133625
3,45.0,1,20.0,1.0,6,2,2.7680000000000002,-0.0084,0.22999999999999998,-0.9358,33.0,25.892,0,19.0,1641.0,50.0,-3.5060000000000002,0.068,-1.086,-0.1,5.268000000000001,-4.284,34.422,0,1,1,100.0,0.4812845479098915,2.7680000000000002,-2.2867154520901085
3,46.0,1,20.0,1.0,6,2,2.6275999999999993,-0.0071199999999999935,0.19891999999999965,-0.6720399999999985,33.0,25.9,0,19.0,1641.0,50.0,-3.6304000000000007,0.07,-1.0988000000000002,-0.1,5.545200000000001,-4.716000000000002,39.68880000000003,0,1,1,100.0,0.4079459501331458,2.6275999999999993,-2.2196540498668536
3,47.0,1,20.0,1.0,6,2,2.4979999999999998,-0.005759999999999997,0.14372000000000007,-0.40299999999999964,33.0,25.9,0,19.0,1641.0,50.0,-3.7216,0.07,-1.1116000000000001,-0.0992,5.7316,-5.130400000000001,44.96800000000001,0,1,1,100.0,0.330023689995354,2.4979999999999998,-2.167976310004646
3,48.0,1,20.0,1.0,6,2,2.4019999999999992,-0.0038399999999999862,0.18148000000000028,-0.1949999999999985,33.0,25.9,0,19.0,1641.0,50.0,-3.7344000000000004,0.07,-1.1244,-0.09279999999999995,5.744400000000001,-5.5336000000000025,50.15200000000004,0,1,1,100.0,0.22001579333023533,2.4019999999999992,-2.181984206669764
3,49.0,1,20.0,1.0,6,2,2.3311999999999995,-0.0022799999999999956,0.14255999999999966,-0.016879999999999448,33.0,25.9,0,19.0,1641.0,50.0,-3.7039999999999997,0.07,-1.1372,-0.09,5.6708,-5.951200000000002,55.073200000000014,0,1,1,100.0,0.13063437728982744,2.3311999999999995,-2.200565622710172
3,50.0,1,20.0,1.0,6,2,2.28,-0.001,0.044,0.138,33.0,25.9,0,19.0,1641.0,50.0,-3.64,0.07,-1.15,-0.09,5.53,-6.38,59.79,0,1,1,100.0,0.057295779513082325,2.28,-2.2227042204869174
3,51.0,1,20.0,1.0,6,2,2.2736,-0.001,0.024159999999999893,0.013199999999999346,33.0,25.9,0,19.0,1641.0,50.0,-3.5439999999999996,0.07,-1.1563999999999999,-0.08359999999999997,5.299599999999999,-6.892000000000002,63.610800000000026,0,1,1,100.0,0.057295779513082325,2.2736,-2.2163042204869177
3,52.0,1,20.0,1.0,6,2,2.2798,-0.0011400000000000006,-0.008980000000000089,-0.09592000000000016,33.0,25.9,0,19.0,1641.0,50.0,-3.4704,0.07,-1.1614,-0.08,5.114,-7.32,66.313,0,1,1,100.0,0.06531718864491388,2.2798,-2.214482811355086
3,53.0,1,20.0,1.0,6,2,2.3022,-0.0014600000000000023,-0.05922000000000035,-0.18488000000000065,33.0,25.9,0,19.0,1641.0,50.0,-3.4255999999999998,0.07,-1.1645999999999999,-0.08,4.985999999999999,-7.640000000000002,67.57700000000001,0,1,1,100.0,0.08365183808910033,2.3022,-2.2185481619108995
3,54.0,1,20.0,1.0,6,2,2.3245999999999998,-0.0017800000000000012,-0.10946000000000017,-0.2738400000000003,33.0,25.9,0,19.0,1641.0,50.0,-3.3808,0.07,-1.1678,-0.08,4.857999999999999,-7.960000000000001,68.841,0,1,1,100.0,0.10198648753328661,2.3245999999999998,-2.222613512466713
3,55.0,1,20.0,0.8,6,2,2.562,-0.0044,-0.11760000000000001,-0.7368,33.0,25.9,0,18.8,1641.0,50.0,-3.314,0.07,-1.166,-0.07,4.36,-9.612,70.89399999999999,0,1,1,100.0,0.25210142985756223,2.562,-2.3098985701424377
3,56.0,1,20.0,0.15999999999999653,6,2,2.728400000000001,-0.005680000000000007,-0.12272000000000002,-0.924960000000001,33.0,25.9,0,18.159999999999997,1641.0,50.0,-3.3588000000000005,0.07,-1.1531999999999998,-0.07,4.199999999999999,-10.418400000000004,70.0428,0,1,1,100.0,0.325440027634308,2.728400000000001,-2.402959972365693
3,57.0,1,20.0,0.48000000000000115,6,2,2.9380000000000006,-0.007440000000000003,-0.15376000000000006,-1.0900800000000002,33.0,25.9,0,18.48,1641.0,50.0,-3.4852000000000003,0.07,-1.1452,-0.07,4.1024,-11.1384,67.8236,0,1,1,100.0,0.42628059957733266,2.9380000000000006,-2.5117194004226677
3,58.0,1,20.0,1.0,6,2,3.146400000000001,-0.009120000000000003,-0.18431999999999993,-1.2302400000000004,33.0,25.897599999999997,0,19.0,1641.0,50.0,-3.633400000000001,0.07060000000000002,-1.1381999999999999,-0.06939999999999999,4.0418,-11.7354,65.23899999999999,0,1,1,100.0,0.522537509159311,3.146400000000001,-2.6238624908406902
3,59.0,1,20.0,1.0,6,2,3.287200000000001,-0.009760000000000001,-0.17535999999999996,-1.2955200000000002,33.0,25.8848,0,19.0,1641.0,50.0,-3.7582000000000004,0.07380000000000002,-1.1286,-0.0662,4.0514,-11.924199999999999,63.047,0,1,1,100.0,0.5592068080476835,3.287200000000001,-2.7279931919523173
3,60.0,1,20.0,1.0,6,2,3.428,-0.0104,-0.1664,-1.3608,33.0,25.872,0,19.0,1641.0,50.0,-3.883,0.077,-1.119,-0.063,4.061,-12.113,60.855,0,1,1,100.0,0.5958761069360561,3.428,-2.832123893063944
3,61.0,1,20.0,1.0,6,2,3.5808000000000018,-0.011080000000000007,-0.15503999999999976,-1.4309600000000007,33.0,25.86,0,19.0,1641.0,50.040000000000006,-4.019200000000001,0.08,-1.1088,-0.06,4.0764000000000005,-12.2816,58.43359999999996,0,1,1,100.0,0.6348372370049525,3.5808000000000018,-2.945962762995049
3,62.0,1,20.0,1.0,1,5,3.9136000000000006,-0.012360000000000001,-0.10767999999999991,-1.5743200000000002,33.0,25.86,0,19.0,1641.0,50.68,-4.3264000000000005,0.08,-1.0896000000000001,-0.06,4.178800000000001,-12.1472,52.57119999999999,0,1,1,100.0,0.7081758347816975,3.9136000000000006,-3.205424165218303
3,63.0,1,20.0,0.0,1,5,4.738266666666668,-0.019906666666666736,-0.5009466666666722,-1.6975866666666641,33.0,25.9,0,19.0,1641.0,51.0,-4.970933333333334,0.09,-1.0478666666666667,-0.06,4.524800000000001,-10.406666666666663,37.82893333333332,0,1,1,100.0,1.1405679841737628,4.738266666666668,-3.597698682492905
3,64.0,1,20.0,0.0,1,5,4.8748000000000005,-0.029720000000000035,-1.2768400000000026,-1.3547599999999989,33.0,25.9,0,19.0,1641.0,51.0,-5.032800000000001,0.09,-1.0436,-0.06,4.614400000000001,-9.819999999999997,35.42679999999999,0,1,1,100.0,1.7028305671288086,4.8748000000000005,-3.171969432871192
3,65.0,1,20.0,0.0,1,5,5.011333333333333,-0.03953333333333334,-2.0527333333333333,-1.0119333333333334,33.0,25.9,0,19.0,1641.0,51.0,-5.094666666666667,0.09,-1.0393333333333334,-0.06,4.704000000000001,-9.233333333333333,33.02466666666667,0,1,1,100.0,2.265093150083855,5.011333333333333,-2.746240183249478
3,66.0,1,20.0,0.0,1,5,5.147866666666667,-0.04934666666666672,-2.8286266666666706,-0.6691066666666649,33.0,25.9,0,19.0,1641.0,51.0,-5.156533333333334,0.09,-1.0350666666666666,-0.06,4.7936000000000005,-8.646666666666663,30.62253333333332,0,1,1,100.0,2.8273557330389054,5.147866666666667,-2.320510933627762
3,67.0,1,20.0,0.0,1,5,5.2844,-0.05916000000000002,-3.6045200000000013,-0.3262799999999994,33.0,25.9,0,19.0,1641.0,51.0,-5.218400000000001,0.09,-1.0308,-0.06,4.8832,-8.059999999999999,28.220399999999994,0,1,1,100.0,3.3896183159939515,5.2844,-1.8947816840060483
3,68.0,1,20.0,0.0,1,6,6.9932000000000025,-0.16716000000000014,-2.180359999999997,1.8111600000000028,33.0,25.7392,0,19.0,1641.0,51.0,-4.270799999999995,0.06959999999999991,-0.9695999999999999,-0.07,7.152800000000005,3.0548000000000215,0.1295999999999535,0,1,1,100.0,9.577562503406849,6.9932000000000025,2.5843625034068465
3,69.0,1,20.0,0.0,1,6,7.410800000000001,-0.18684000000000006,-1.817159999999999,2.216120000000002,33.0,25.7152,0,19.0,1641.0,51.0,-3.5699999999999967,0.056799999999999955,-0.9583999999999999,-0.07160000000000002,7.890400000000003,6.00040000000001,-6.307200000000021,0,1,1,100.0,10.705143444224305,7.410800000000001,3.294343444224304
3,70.0,1,20.0,0.0,1,6,7.814,-0.2022,-1.5297999999999998,2.7166,33.0,25.696,0,19.0,1641.0,51.0,-2.6100000000000003,0.044,-0.952,-0.078,8.652000000000001,8.681999999999999,-12.336000000000002,0,1,1,100.0,11.585206617545245,7.814,3.7712066175452446
3,71.0,1,20.0,0.0,1,6,8.0654,-0.21096000000000004,-1.3797199999999994,2.994660000000001,33.0,25.6746,0,19.0,1641.0,51.0,-1.8655999999999966,0.031199999999999933,-0.9456,-0.08220000000000002,9.125400000000003,10.228400000000006,-16.070200000000014,0,1,1,100.0,12.087117646079848,8.0654,4.021717646079848
3,72.0,1,20.0,0.0,1,6,8.2478,-0.21672,-1.2920399999999999,3.1716200000000003,33.0,25.6522,0,19.0,1641.0,51.0,-1.2191999999999987,0.01839999999999998,-0.9392,-0.0854,9.4678,11.258800000000003,-18.761400000000005,0,1,1,100.0,12.4171413360752,8.2478,4.169341336075201
3,73.0,1,20.0,0.0,1,6,8.430200000000001,-0.22248000000000004,-1.2043599999999992,3.3485800000000014,33.0,25.6298,0,19.0,1641.0,51.0,-0.5727999999999953,0.005599999999999909,-0.9328,-0.08860000000000003,9.810200000000004,12.289200000000008,-21.452600000000018,0,1,1,100.0,12.747165026070558,8.430200000000001,4.316965026070557
3,74.0,1,20.0,0.0,1,6,9.1476,-0.2426,-0.6899599999999996,4.116840000000002,33.0,25.514799999999997,0,19.0,1641.0,51.0,3.1192000000000064,-0.04800000000000011,-0.9164,-0.11360000000000002,10.704,15.061600000000002,-32.16600000000001,0,1,1,100.0,13.899956109873772,9.1476,4.752356109873771
3,75.0,1,20.0,0.0,1,6,9.41,-0.249,-0.553,4.481,33.0,25.47,0,19.0,1641.0,51.0,4.86,-0.08,-0.91,-0.12,10.8,15.58,-36.07,0,1,1,100.0,14.2666490987575,9.41,4.856649098757499
3,76.0,1,20.0,0.0,1,6,9.608400000000001,-0.25348000000000004,-0.46659999999999957,4.697320000000001,33.0,25.4508,0,19.0,1641.0,51.0,6.69680000000001,-0.10560000000000014,-0.9036,-0.12640000000000004,10.524799999999999,15.4008,-39.12920000000002,0,1,1,100.0,14.52333419097611,9.608400000000001,4.914934190976108
3,77.0,1,20.0,0.0,1,6,9.749400000000001,-0.25642,-0.3871999999999999,4.8817200000000005,33.0,25.430200000000003,0,19.0,1641.0,51.0,8.134600000000002,-0.12700000000000003,-0.8986000000000001,-0.13140000000000002,10.2412,15.1404,-41.3288,0,1,1,100.0,14.691783782744569,9.749400000000001,4.942383782744567
3,78.0,1,20.0,0.0,1,6,9.816600000000001,-0.25738,-0.31679999999999947,5.025080000000001,33.0,25.4078,0,19.0,1641.0,51.0,9.059400000000007,-0.14300000000000013,-0.8954,-0.13460000000000003,9.946799999999998,14.775599999999997,-42.42320000000001,0,1,1,100.0,14.746787731077129,9.816600000000001,4.930187731077128
3,79.0,1,20.0,0.0,1,6,9.8838,-0.25834,-0.24639999999999973,5.16844,33.0,25.3854,0,19.0,1641.0,51.0,9.984200000000003,-0.15900000000000006,-0.8922,-0.13780000000000003,9.652399999999998,14.410799999999998,-43.51760000000001,0,1,1,100.0,14.801791679409687,9.8838,4.9179916794096865
3,80.0,1,20.0,0.0,1,6,10.04,-0.2612,-0.1318,5.5316,33.0,25.33,0,19.0,1641.0,51.0,13.946,-0.218,-0.88,-0.15,7.786,11.956000000000001,-46.528,0,1,1,100.0,14.965657608817102,10.04,4.925657608817103
3,81.0,1,20.0,0.0,1,6,10.04,-0.26184,-0.09596000000000013,5.655119999999999,33.0,25.33,0,19.0,1641.0,51.0,15.629199999999994,-0.2435999999999999,-0.88,-0.15,6.717200000000004,10.567200000000005,-47.03359999999999,0,1,1,100.0,15.002326907705477,10.04,4.962326907705478
3,82.0,1,20.0,0.0,1,6,9.991999999999999,-0.26152000000000003,-0.01739999999999901,5.73064,33.0,25.3156,0,19.0,1641.0,51.0,17.187600000000018,-0.2692000000000003,-0.8752,-0.15,5.547599999999988,9.058399999999983,-46.9392,0,1,1,100.0,14.98399225826129,9.991999999999999,4.991992258261291
3,83.0,1,20.0,0.0,3,7,9.9172,-0.261,0.05163999999999976,5.78596,33.0,25.3,0,19.0,1641.0,51.0,18.66960000000001,-0.29360000000000014,-0.87,-0.15,4.3275999999999915,7.493999999999988,-46.5068,0,1,1,100.0,14.954198452914486,9.9172,5.036998452914487
3,84.0,1,20.0,0.0,3,7,9.7956,-0.261,0.017719999999999875,5.82308,33.0,25.3,0,19.0,1641.0,51.0,20.000800000000005,-0.3128000000000001,-0.87,-0.15,3.0347999999999953,5.861999999999994,-45.4764,0,1,1,100.0,14.954198452914486,9.7956,5.158598452914486
3,85.0,1,20.0,0.0,3,7,9.646,-0.2606,0.032999999999999995,5.8914,33.0,25.284000000000002,0,19.0,1641.0,51.0,21.124,-0.332,-0.87,-0.15,1.7899999999999998,4.33,-44.050000000000004,0,1,1,100.0,14.931280141109253,9.646,5.2852801411092525
3,86.0,1,20.0,0.0,3,7,9.4768,-0.25976000000000005,0.10871999999999808,6.018759999999998,33.0,25.253200000000003,0,19.0,1641.0,51.0,22.086399999999998,-0.35079999999999995,-0.8704,-0.1496,0.5880000000000035,2.8800000000000043,-42.35560000000001,0,1,1,100.0,14.883151686318266,9.4768,5.406351686318265
3,87.0,1,20.0,0.0,3,7,9.265599999999997,-0.25592,0.6482400000000058,6.750920000000008,33.0,25.1444,0,19.0,1641.0,51.0,22.508800000000004,-0.36360000000000015,-0.8768,-0.14319999999999994,-0.4040000000000105,1.759999999999988,-40.20519999999998,0,1,1,100.0,14.663135892988027,9.265599999999997,5.39753589298803
3,88.0,1,20.0,0.0,3,7,9.119466666666666,-0.2522933333333333,0.9522400000000005,7.214706666666668,33.0,25.0708,0,19.0,1641.0,51.0,22.686933333333332,-0.37,-0.8821333333333333,-0.13786666666666664,-0.9981333333333348,1.102933333333332,-38.70653333333333,0,1,1,100.0,14.455343199287249,9.119466666666666,5.335876532620583
3,89.0,1,20.0,0.0,3,7,9.0384,-0.24888,1.0207200000000003,7.410120000000001,33.0,25.0324,0,19.0,1641.0,51.0,22.6208,-0.37,-0.8864000000000001,-0.1336,-1.1944000000000008,0.9087999999999993,-37.8596,0,1,1,100.0,14.259773605215928,9.0384,5.221373605215929
3,90.0,1,20.0,0.0,3,7,8.957333333333333,-0.24546666666666667,1.0892000000000002,7.605533333333333,33.0,24.994,0,19.0,1641.0,51.0,22.554666666666666,-0.37,-0.8906666666666667,-0.12933333333333333,-1.3906666666666667,0.7146666666666667,-37.01266666666667,0,1,1,100.0,14.064204011144607,8.957333333333333,5.1068706778112745
3,91.0,1,20.0,0.0,3,7,8.876266666666666,-0.24205333333333334,1.1576799999999998,7.800946666666666,33.0,24.9556,0,19.0,1641.0,51.0,22.488533333333333,-0.37,-0.8949333333333334,-0.1250666666666667,-1.5869333333333326,0.5205333333333341,-36.165733333333336,0,1,1,100.0,13.868634417073286,8.876266666666666,4.99236775040662
3,92.0,1,20.0,0.0,3,7,8.795199999999998,-0.23863999999999996,1.2261600000000008,7.996360000000002,33.0,24.9172,0,19.0,1641.0,51.0,22.4224,-0.37,-0.8992000000000001,-0.12079999999999995,-1.7832000000000021,0.32639999999999797,-35.31879999999999,0,1,1,100.0,13.673064823001964,8.795199999999998,4.877864823001966
3,93.0,1,20.0,1.0,3,7,7.670799999999998,-0.16839999999999986,1.8441199999999998,9.001359999999998,33.0,24.7428,0,20.0,1641.0,51.0,18.702799999999993,-0.32959999999999995,-0.9756000000000001,-0.06959999999999991,-1.6299999999999977,1.7928000000000064,-23.79279999999998,0,1,1,100.0,9.648609270003055,7.670799999999998,1.977809270003057
3,94.0,1,20.0,0.8399999999999977,3,7,7.376399999999999,-0.14951999999999993,1.8116399999999997,8.685519999999999,33.0,24.848399999999998,0,19.839999999999996,1641.0,51.0,17.509199999999996,-0.3151999999999999,-0.9948,-0.056799999999999955,-1.2955999999999985,2.7080000000000033,-20.85839999999999,0,1,1,100.0,8.566864952796065,7.376399999999999,1.1904649527960656
3,95.0,1,20.0,0.19999999999999996,3,7,7.082,-0.1316,1.7662,8.1076,33.0,25.002,0,19.2,1641.0,51.0,16.306,-0.296,-1.014,-0.044,-0.918,3.6999999999999997,-17.972,0,1,1,100.0,7.540124583921633,7.082,0.45812458392163347
3,96.0,1,20.0,0.0,3,7,6.890999999999998,-0.11961999999999987,1.7649800000000002,7.659479999999994,33.0,25.105,0,19.0,1641.0,51.0,15.542799999999993,-0.2833999999999999,-1.0244000000000002,-0.03779999999999995,-0.6745999999999974,4.289400000000006,-16.12399999999998,0,1,1,100.0,6.8537211453549,6.890999999999998,-0.03727885464509839
3,97.0,1,20.0,0.0,3,7,6.746999999999999,-0.1103399999999999,1.7838600000000002,7.270359999999996,33.0,25.185000000000002,0,19.0,1641.0,51.0,14.979599999999994,-0.2737999999999999,-1.0308000000000002,-0.034599999999999964,-0.49219999999999803,4.695800000000005,-14.747999999999985,0,1,1,100.0,6.322016311473497,6.746999999999999,-0.4249836885265017
3,98.0,1,20.0,0.0,3,7,6.602999999999999,-0.10105999999999994,1.80274,6.881239999999997,33.0,25.265,0,19.0,1641.0,51.0,14.416399999999996,-0.26419999999999993,-1.0372000000000001,-0.03139999999999998,-0.3097999999999987,5.102200000000003,-13.37199999999999,0,1,1,100.0,5.7903114775920965,6.602999999999999,-0.8126885224079023
3,99.0,1,20.0,0.0,3,7,5.965999999999999,-0.06515999999999995,1.2779999999999987,4.712399999999996,33.0,25.6048,0,19.0,1641.0,51.0,12.200799999999997,-0.23279999999999995,-1.0672000000000001,-0.016399999999999977,0.31080000000000063,6.214400000000001,-7.363599999999992,0,1,1,100.0,3.7333929930724414,5.965999999999999,-2.232607006927558
3,100.0,1,20.0,0.0,3,7,5.71,-0.053,0.926,3.65,33.0,25.72,0,19.0,1641.0,51.0,11.42,-0.22,-1.08,-0.01,0.49,6.4,-4.97,0,1,1,100.0,3.036676314193363,5.71,-2.673323685806637
4,0.0,1,20.0,0.0,0,1,5.34,-0.043,0.515,2.296,33.0,25.83,0,19.0,1641.0,51.0,10.53,-0.2,-1.09,-0.01,0.6,6.08,-1.61,0,1,1,100.0,2.4637185190625397,5.34,-2.87628148093746
4,1.0,1,20.0,0.0,0,1,5.2377,-0.040209999999999996,0.44959,1.9658499999999999,33.0,25.83,0,19.0,1641.0,51.0,10.3471,-0.19690000000000002,-1.0931000000000002,-0.01,0.5907,5.8041,-0.711,0,1,1,100.0,2.3038632942210397,5.2377,-2.9338367057789605
4,2.0,1,20.0,0.0,0,1,5.1354,-0.03742,0.38418,1.6357,33.0,25.83,0,19.0,1641.0,51.0,10.1642,-0.1938,-1.0962,-0.01,0.5813999999999999,5.5282,0.18800000000000017,0,1,1,100.0,2.1440080693795407,5.1354,-2.991391930620459
4,3.0,1,20.0,0.0,0,1,5.0331,-0.03463,0.31877,1.30555,33.0,25.83,0,19.0,1641.0,51.0,9.9813,-0.1907,-1.0993000000000002,-0.01,0.5720999999999999,5.2523,1.0870000000000004,0,1,1,100.0,1.984152844538041,5.0331,-3.048947155461959
4,4.0,1,20.0,0.0,0,1,4.866,-0.034,0.304,1.231,33.0,25.83,0,28.6,1641.0,51.0,9.7624,-0.19,-1.1,-0.01,0.49319999999999997,4.5228,2.4372000000000003,0,1,1,100.0,1.9480565034447992,4.866,-2.9179434965552007
4,5.0,1,20.0,0.0,0,1,4.439,-0.0339,0.324,1.1079,33.0,25.843999999999998,0,53.5,1641.0,51.0,9.337,-0.18,-1.0990000000000002,-0.011,0.167,2.0,5.872,0,1,1,100.0,1.9423269254934907,4.439,-2.4966730745065093
4,6.0,1,20.0,0.0,0,1,4.3088,-0.033280000000000004,0.44800000000000006,0.34467999999999965,33.0,25.930799999999998,0,19.399999999999984,1641.0,51.0,9.256400000000001,-0.18,-1.0928,-0.017200000000000003,0.02439999999999994,1.0079999999999996,6.938400000000001,0,1,1,100.0,1.90680354219538,4.3088,-2.4019964578046196
4,7.0,1,20.0,0.0,0,1,4.1956,-0.033,0.33604000000000006,-0.0,33.34,25.9564,0,4.0,1641.0,51.0,9.196200000000001,-0.18,-1.09,-0.02,-0.11139999999999996,0.0772000000000003,7.8858,0,1,1,100.0,1.8907607239317168,4.1956,-2.304839276068283
4,8.0,1,20.0,0.0,0,1,4.0964,-0.033,0.02975999999999994,-0.0,33.96,25.9316,0,4.0,1641.0,51.0,9.152800000000001,-0.18,-1.09,-0.02,-0.2416,-0.8032,8.735199999999999,0,1,1,100.0,1.8907607239317168,4.0964,-2.2056392760682835
4,9.0,1,20.0,0.0,0,1,4.0204,-0.033,-0.05554000000000004,-0.0,34.0,25.912599999999998,0,4.0,1641.0,51.0,9.121,-0.1742,-1.0842,-0.02,-0.35440000000000005,-1.5270000000000004,9.3526,0,1,1,100.0,1.8907607239317168,4.0204,-2.129639276068284
4,10.0,1,20.0,0.0,0,1,3.962,-0.0329,-0.0882,-0.0,34.0,25.903,0,4.0,1641.0,51.0,9.096,-0.17,-1.0790000000000002,-0.021,-0.447,-2.0909999999999997,9.808,0,1,1,100.0,1.8850311459804083,3.962,-2.076968854019592
4,11.0,1,20.0,0.0,0,1,3.9372000000000003,-0.03259,-0.042319999999999976,-0.0,34.0,25.9123,0,4.0,1641.0,51.0,9.0836,-0.17,-1.0759,-0.0241,-0.49970000000000003,-2.3421,9.9568,0,1,1,100.0,1.867269454331353,3.9372000000000003,-2.0699305456686474
4,12.0,1,20.0,0.0,0,1,3.9124000000000003,-0.03228,0.00356000000000004,-0.0,34.0,25.921599999999998,0,4.0,1641.0,51.0,9.071200000000001,-0.17,-1.0728,-0.027200000000000002,-0.5524,-2.5932,10.1056,0,1,1,100.0,1.8495077626822976,3.9124000000000003,-2.062892237317703
4,13.0,1,20.0,0.0,0,1,3.8882,-0.03194,0.060120000000000215,-0.0,34.0,25.93,0,4.0,1641.0,51.0,9.057,-0.17,-1.07,-0.03,-0.6084,-2.8494,10.2376,0,1,1,100.0,1.8300271976478495,3.8882,-2.0581728023521504
4,14.0,1,20.0,0.0,0,1,3.8696,-0.03132,0.21635999999999994,-0.0,34.0,25.93,0,4.0,1641.0,51.0,9.026,-0.17,-1.07,-0.03,-0.6951999999999999,-3.1532,10.2128,0,1,1,100.0,1.7945038143497385,3.8696,-2.0750961856502617
4,15.0,1,20.0,0.0,0,1,3.863,-0.0295,0.3069,-0.0,34.0,25.93,0,4.0,1641.0,51.0,8.991999999999999,-0.17,-1.0670000000000002,-0.033,-0.782,-3.364,10.011,0,1,1,100.0,1.6902254956359284,3.863,-2.172774504364072
4,16.0,1,20.0,0.0,0,1,3.8692,-0.026399999999999996,0.32736000000000004,-0.0,34.0,25.93,0,4.0,1641.0,51.0,8.954799999999999,-0.17,-1.0608,-0.039200000000000006,-0.8688,-3.4756000000000005,9.6204,0,1,1,100.0,1.5126085791453732,3.8692,-2.356591420854627
4,17.0,1,20.0,0.0,0,1,3.9478,-0.015599999999999994,0.6866800000000002,-0.0,34.0,25.9138,0,4.0,1641.0,51.0,8.7798,-0.16,-1.0446,-0.04,-1.1064,-3.3058,7.398799999999999,0,1,1,100.0,0.8938141604040839,3.9478,-3.0539858395959163
4,18.0,1,20.0,0.0,0,1,3.996,-0.009399999999999992,0.8450799999999998,-0.0,34.0,25.9,0,4.0,1641.0,51.0,8.688,-0.16,-1.04,-0.04160000000000001,-1.2088,-3.1471999999999998,6.205599999999998,0,1,1,100.0,0.5385803274229733,3.996,-3.4574196725770268
4,19.0,1,20.0,0.0,0,1,4.058,-0.0032000000000000036,0.76014,-0.0,34.0,25.9,0,4.0,1641.0,51.0,8.564,-0.16,-1.04,-0.0478,-1.3204,-2.9426,4.754800000000001,0,1,1,100.0,0.18334649444186363,4.058,-3.874653505558136
4,20.0,1,20.0,0.0,0,1,4.132,0.0058000000000000005,1.0312000000000001,-0.0,34.0,25.9,0,4.0,1641.0,51.0,8.416,-0.156,-1.036,-0.05,-1.4440000000000002,-2.706,3.1,0,1,1,100.0,-0.3323155211758775,4.132,-4.464315521175877
4,21.0,1,20.0,0.020000000000001707,0,1,4.2128000000000005,0.016440000000000038,1.4879200000000006,-0.0,34.0,25.900599999999997,0,4.020000000000001,1641.0,51.0,8.2532,-0.1498,-1.03,-0.05,-1.5738000000000003,-2.4505999999999992,1.3223999999999942,0,1,1,100.0,-0.9419426151950756,4.2128000000000005,-5.154742615195076
4,22.0,1,20.0,0.6400000000000006,0,1,4.2996,0.03008000000000001,1.6404400000000003,-0.0,34.0,25.9192,0,4.640000000000001,1641.0,51.0,8.042399999999999,-0.1436,-1.03,-0.05,-1.6916000000000002,-2.1592,-0.7732000000000018,0,1,1,100.0,-1.7234570477535167,4.2996,-6.023057047753516
4,23.0,1,20.0,1.0,0,1,4.388999999999999,0.045019999999999984,1.75136,-0.0,34.0,25.9222,0,5.0,1641.0,51.0,7.8108,-0.13740000000000002,-1.0274,-0.052599999999999994,-1.8068,-1.8600000000000003,-3.0169999999999977,0,1,1,100.0,-2.579455993678965,4.388999999999999,-6.9684559936789645
4,24.0,1,20.0,1.0,0,1,4.482,0.06176000000000003,1.80468,-0.0,34.0,25.903599999999997,0,5.0,1641.0,51.0,7.5504,-0.13119999999999998,-1.0212,-0.05880000000000001,-1.9184,-1.5499999999999994,-5.466000000000005,0,1,1,100.0,-3.538587342727966,4.482,-8.020587342727966
4,25.0,1,20.0,1.0,0,1,4.575,0.078,1.6395,-0.0,34.0,25.915,0,5.0,1641.0,51.0,7.245,-0.13,-1.02,-0.06,-2.0149999999999997,-1.2349999999999999,-8.195,0,1,1,100.0,-4.469070802020421,4.575,-9.044070802020421
4,26.0,1,20.0,1.0,0,1,4.6584,0.09196000000000001,1.3849199999999988,-0.0,34.0,25.93,0,5.0,1641.0,51.0,6.9521999999999995,-0.1288,-1.02,-0.06,-2.0972,-0.9499999999999995,-10.741000000000003,0,1,1,100.0,-5.268919884023052,4.6584,-9.927319884023053
4,27.0,1,20.0,1.0,0,1,4.7018,0.09692,0.9763399999999995,-0.0,34.0,25.93,0,5.0,1641.0,51.0,6.7569,-0.1226,-1.02,-0.06,-2.1344,-0.7949999999999998,-12.2445,0,1,1,100.0,-5.553106950407939,4.7018,-10.254906950407939
4,28.0,1,20.0,1.0,0,1,4.7452000000000005,0.10188,0.5677600000000004,-0.0,34.0,25.93,0,5.0,1641.0,51.0,6.5616,-0.1164,-1.02,-0.06,-2.1715999999999998,-0.6400000000000001,-13.748,0,1,1,100.0,-5.837294016792827,4.7452000000000005,-10.582494016792827
4,29.0,1,20.0,1.0,0,1,4.7886,0.10684,0.1591799999999992,-0.0,34.0,25.93,0,5.0,1641.0,51.0,6.3663,-0.11019999999999999,-1.02,-0.06,-2.2088,-0.48499999999999965,-15.251500000000004,0,1,1,100.0,-6.1214810831777156,4.7886,-10.910081083177715
4,30.0,1,20.0,1.0,0,1,4.986,0.0972,-0.8062,-0.0,34.0,25.912,0,5.0,1641.0,51.0,4.9959999999999996,-0.08800000000000001,-1.02,-0.07,-2.222,0.146,-22.012,0,1,1,100.0,-5.569149768671601,4.986,-10.555149768671601
4,31.0,1,20.0,1.0,0,1,5.0454,0.08715999999999996,-1.2475800000000004,-0.0,34.0,25.906599999999997,0,5.0,1641.0,51.0,4.386799999999998,-0.07559999999999997,-1.02,-0.07,-2.1327999999999996,0.3228000000000004,-23.866800000000005,0,1,1,100.0,-4.993900142360253,5.0454,-10.039300142360254
4,32.0,1,20.0,1.0,0,1,5.0888,0.07351999999999999,-1.3337600000000003,-0.0,34.0,25.9252,0,5.0,1641.0,51.0,3.7295999999999996,-0.06319999999999999,-1.02,-0.07,-1.9715999999999998,0.4716000000000002,-25.0696,0,1,1,100.0,-4.212385709801811,5.0888,-9.30118570980181
4,33.0,1,20.0,1.0,0,1,5.118399999999999,0.059420000000000014,-1.44064,-0.0,34.0,25.93,0,5.0,1641.0,51.0,3.0494000000000008,-0.05080000000000001,-1.02,-0.0746,-1.7230000000000003,0.6157999999999999,-25.357,0,1,1,100.0,-3.4045152186673526,5.118399999999999,-8.522915218667352
4,34.0,1,20.0,0.9199999999999988,6,2,5.14,0.046439999999999995,-1.5627200000000003,-0.025120000000000354,34.0,25.927599999999998,0,5.960000000000013,1641.0,51.0,2.363599999999999,-0.038399999999999976,-1.0208,-0.08,-1.4303999999999992,0.7568000000000003,-25.165199999999995,0,1,1,100.0,-2.660816000587543,5.14,-7.800816000587543
4,35.0,1,20.0,0.29999999999999993,6,2,5.14,0.0421,-1.7388000000000001,-0.2198,34.0,25.909,0,13.4,1641.0,51.0,1.6940000000000002,-0.026000000000000002,-1.0270000000000001,-0.08,-1.046,0.887,-23.887999999999998,0,1,1,100.0,-2.4121523175007655,5.14,-7.552152317500765
4,36.0,1,20.0,0.0,6,2,5.124,0.03327999999999996,-1.6745599999999992,-0.3690400000000003,34.0,25.9,0,17.0,1641.0,51.0,1.0467999999999984,-0.01679999999999998,-1.03,-0.08,-0.5943999999999986,1.0076000000000003,-22.012399999999992,0,1,1,100.0,-1.9068035421953775,5.124,-7.030803542195377
4,37.0,1,20.0,0.0,6,2,5.093,0.020259999999999986,-1.3850199999999997,-0.4756800000000001,34.0,25.9,0,17.0,1641.0,51.0,0.42059999999999936,-0.010599999999999995,-1.03,-0.08,-0.07979999999999961,1.1192,-19.575799999999997,0,1,1,100.0,-1.1608124929350472,5.093,-6.253812492935047
4,38.0,1,20.0,0.0,6,2,5.0648,0.014800000000000004,-1.2718800000000001,-0.7606799999999997,34.0,25.8888,0,17.0,1641.0,51.0,0.11080000000000025,-0.0044000000000000055,-1.0328,-0.0828,0.26399999999999973,1.1383999999999999,-17.786,0,1,1,100.0,-0.8479775367936186,5.0648,-5.912777536793619
4,39.0,1,20.0,0.0,6,2,5.0369,0.01014999999999999,-1.1776399999999998,-1.0647900000000006,34.0,25.8764,0,17.0,1641.0,51.0,-0.1651000000000005,0.0018000000000000114,-1.0359,-0.0859,0.5895000000000007,1.1477,-16.065499999999997,0,1,1,100.0,-0.581552162057785,5.0369,-5.618452162057785
4,40.0,1,20.0,0.0,6,2,5.009,0.0055,-1.0834,-1.3689,34.0,25.864,0,17.0,1641.0,51.0,-0.44099999999999995,0.008,-1.0390000000000001,-0.089,0.915,1.157,-14.344999999999999,0,1,1,100.0,-0.31512678732195276,5.009,-5.324126787321953
4,41.0,1,20.0,0.4200000000000017,6,2,4.9454,-0.0018800000000000238,-0.9303599999999995,-1.8420600000000016,34.0,25.8474,0,17.42,1641.0,51.0,-0.8618000000000013,0.014200000000000018,-1.04,-0.09,1.540800000000002,1.0213999999999994,-10.896199999999988,0,1,1,100.0,0.10771606548459613,4.9454,-4.837683934515404
4,42.0,1,20.0,0.9599999999999966,6,2,4.8632,-0.010440000000000038,-0.7580399999999997,-2.3944000000000027,34.0,25.827199999999998,0,17.959999999999997,1641.0,51.0,-1.3468000000000024,0.02080000000000007,-1.0404,-0.09,2.310800000000004,0.8003999999999974,-6.583599999999973,0,1,1,100.0,0.5981679381165816,4.8632,-4.265032061883418
4,43.0,1,20.0,0.3399999999999977,6,2,4.7578,-0.017260000000000025,-0.7121599999999999,-2.927600000000002,34.0,25.7838,0,17.339999999999996,1641.0,51.0,-1.7622000000000015,0.03320000000000005,-1.0466,-0.09,3.0982000000000025,0.3415999999999983,-1.6793999999999822,0,1,1,100.0,0.9889251543958023,4.7578,-3.768874845604197
4,44.0,1,20.0,0.28000000000000114,6,2,4.644,-0.021560000000000003,-0.4545999999999991,-3.0444399999999994,34.0,25.76,0,17.28,1641.0,51.0,-2.1524000000000005,0.04280000000000001,-1.0528,-0.09,3.849200000000001,-0.2012000000000012,3.4124000000000096,0,1,1,100.0,1.235297006302055,4.644,-3.408702993697945
4,45.0,1,20.0,0.9,6,2,4.52,-0.0228,0.059999999999999984,-2.6557,34.0,25.76,0,17.9,1641.0,51.0,-2.512,0.049,-1.0590000000000002,-0.09,4.556,-0.8460000000000001,8.732,0,1,1,100.0,1.306343772898277,4.52,-3.2136562271017226
4,46.0,1,20.0,1.0,6,2,4.1808000000000005,-0.012360000000000008,0.50512,-1.1090000000000009,34.0,25.8808,0,18.0,1641.0,51.0,-3.2116,0.06,-1.0904,-0.09,5.845999999999999,-2.7387999999999986,23.32759999999999,0,1,1,100.0,0.708175834781698,4.1808000000000005,-3.4726241652183027
4,47.0,1,20.0,1.0,6,2,4.052,-0.008299999999999983,0.47299999999999914,-0.6528599999999979,34.0,25.9,0,18.0,1641.0,51.0,-3.3896000000000006,0.06140000000000003,-1.1028000000000002,-0.08859999999999996,6.133800000000001,-3.4668000000000037,28.981200000000033,0,1,1,100.0,0.47555496995858226,4.052,-3.5764450300414174
4,48.0,1,20.0,1.0,6,2,3.9279999999999995,-0.0051999999999999885,0.31799999999999945,-0.2802399999999986,34.0,25.9,0,18.0,1641.0,51.0,-3.4764000000000004,0.06760000000000002,-1.1152000000000002,-0.08239999999999997,6.2392,-4.161200000000003,34.61080000000002,0,1,1,100.0,0.29793805346802743,3.9279999999999995,-3.630061946531972
4,49.0,1,20.0,1.0,6,2,3.8116,-0.0028599999999999967,0.25876,0.06046000000000059,34.0,25.9,0,18.0,1641.0,51.0,-3.4833999999999996,0.07,-1.1276000000000002,-0.08,6.204,-4.817600000000001,40.13020000000001,0,1,1,100.0,0.16386592940741526,3.8116,-3.6477340705925845
4,50.0,1,20.0,1.0,6,2,3.7,-0.001,0.26,0.381,34.0,25.9,0,18.0,1641.0,51.0,-3.44,0.07,-1.14,-0.08,6.08,-5.45,45.58,0,1,1,100.0,0.057295779513082325,3.7,-3.6427042204869178
4,51.0,1,20.0,1.0,6,2,3.6194,0.0008599999999999967,0.25318,0.5775399999999996,34.0,25.9,0,18.0,1641.0,51.0,-3.2664000000000004,0.06380000000000001,-1.1461999999999999,-0.08,5.7700000000000005,-6.063799999999999,50.657799999999995,0,1,1,100.0,-0.04927437038125061,3.6194,-3.6686743703812508
4,52.0,1,20.0,1.0,6,2,3.5531999999999995,0.0022400000000000033,0.19451999999999922,0.628879999999999,34.0,25.9,0,18.0,1641.0,51.0,-3.0615999999999985,0.06,-1.1523999999999999,-0.07759999999999997,5.407199999999998,-6.684800000000004,55.45720000000003,0,1,1,100.0,-0.1283425461093046,3.5531999999999995,-3.681542546109304
4,53.0,1,20.0,1.0,6,2,3.5098,0.0028600000000000023,0.053779999999999474,0.45031999999999933,34.0,25.9,0,18.0,1641.0,51.0,-2.807399999999999,0.06,-1.1585999999999999,-0.07139999999999998,4.960799999999999,-7.317200000000002,59.81580000000002,0,1,1,100.0,-0.16386592940741557,3.5098,-3.673665929407415
4,54.0,1,20.0,1.0,6,2,3.4984,0.0028399999999999996,0.02264,0.39415999999999995,34.0,25.9,0,18.0,1641.0,51.0,-2.6763999999999997,0.058399999999999994,-1.16,-0.07,4.7336,-7.652,61.647999999999996,0,1,1,100.0,-0.16272001381715379,3.4984,-3.661120013817154
4,55.0,1,20.0,1.0,6,2,3.4963333333333333,0.0026333333333333334,0.023466666666666667,0.3737,34.0,25.9,0,18.0,1641.0,51.0,-2.5813333333333333,0.05633333333333333,-1.16,-0.07,4.570333333333334,-7.9,62.74333333333333,0,1,1,100.0,-0.1508788860511168,3.4963333333333333,-3.6472122193844503
4,56.0,1,20.0,1.0,6,2,3.494266666666667,0.0024266666666666672,0.02429333333333333,0.35324000000000005,34.0,25.9,0,18.0,1641.0,51.0,-2.486266666666667,0.05426666666666667,-1.16,-0.07,4.407066666666667,-8.148,63.83866666666666,0,1,1,100.0,-0.1390377582850798,3.494266666666667,-3.6333044249517465
4,57.0,1,20.0,1.0,6,2,3.4922,0.002219999999999999,0.025120000000000003,0.3327799999999999,34.0,25.9,0,18.0,1641.0,51.0,-2.3911999999999995,0.05219999999999999,-1.16,-0.07,4.243799999999999,-8.396,64.934,0,1,1,100.0,-0.1271966305190427,3.4922,-3.619396630519043
4,58.0,1,20.0,1.0,6,2,3.4901333333333335,0.0020133333333333327,0.02594666666666667,0.31231999999999993,34.0,25.9,0,18.0,1641.0,51.0,-2.296133333333333,0.05013333333333333,-1.16,-0.07,4.080533333333333,-8.644000000000002,66.02933333333333,0,1,1,100.0,-0.11535550275300571,3.4901333333333335,-3.605488836086339
4,59.0,1,20.0,0.4199999999999988,6,2,3.8708000000000005,-0.001580000000000001,-0.15042,-0.40214000000000016,34.0,25.9,0,17.419999999999998,1641.0,51.0,-1.4571999999999998,0.03,-1.1284,-0.05419999999999999,2.3815999999999997,-12.997800000000003,68.4814,0,1,1,100.0,0.09052733163067013,3.8708000000000005,-3.78027266836933
4,60.0,1,20.0,0.2,6,2,4.048,-0.0024000000000000002,-0.1392,-0.49420000000000003,34.0,25.9,0,17.2,1641.0,51.0,-1.396,0.03,-1.114,-0.05,2.122,-14.154,66.612,0,1,1,100.0,0.1375098708313976,4.048,-3.9104901291686023
4,61.0,1,20.0,0.819999999999999,6,2,4.2588,-0.003639999999999998,-0.10572000000000006,-0.6064199999999998,34.0,25.9,0,17.82,1641.0,51.0,-1.4145999999999999,0.03,-1.0954000000000002,-0.05,1.9422000000000004,-15.251399999999999,63.6422,0,1,1,100.0,0.20855663742761954,4.2588,-4.05024336257238
4,62.0,1,20.0,1.0,6,2,4.383066666666667,-0.004146666666666668,-0.08382666666666658,-0.6483866666666668,34.0,25.9,0,18.0,1641.0,51.0,-1.4478666666666669,0.03,-1.0856000000000001,-0.048533333333333324,1.8738666666666666,-15.747466666666668,61.737199999999994,0,1,1,100.0,0.23758649904758145,4.383066666666667,-4.145480167619086
4,63.0,1,20.0,1.0,6,2,4.471933333333334,-0.004353333333333334,-0.06667333333333327,-0.6616133333333334,34.0,25.9,0,18.0,1641.0,51.0,-1.4871333333333334,0.03,-1.0794000000000001,-0.04646666666666666,1.8511333333333333,-15.997533333333335,60.267799999999994,0,1,1,100.0,0.2494276268136184,4.471933333333334,-4.222505706519716
4,64.0,1,20.0,1.0,6,2,4.5608,-0.004560000000000001,-0.04951999999999997,-0.67484,34.0,25.9,0,18.0,1641.0,51.0,-1.5264000000000002,0.03,-1.0732000000000002,-0.044399999999999995,1.8284,-16.247600000000002,58.7984,0,1,1,100.0,0.2612687545796554,4.5608,-4.299531245420345
4,65.0,1,20.0,1.0,6,2,4.649666666666667,-0.0047666666666666664,-0.03236666666666666,-0.6880666666666666,34.0,25.9,0,18.0,1641.0,51.0,-1.5656666666666668,0.03,-1.0670000000000002,-0.042333333333333334,1.8056666666666668,-16.497666666666667,57.329,0,1,1,100.0,0.2731098823456924,4.649666666666667,-4.376556784320974
4,66.0,1,20.0,1.0,6,2,4.738533333333333,-0.004973333333333333,-0.015213333333333362,-0.7012933333333333,34.0,25.9,0,18.0,1641.0,51.0,-1.6049333333333333,0.03,-1.0608,-0.04026666666666667,1.7829333333333335,-16.747733333333333,55.85960000000001,0,1,1,100.0,0.2849510101117294,4.738533333333333,-4.453582323221603
4,67.0,1,20.0,1.0,1,5,5.025400000000001,-0.005,0.035600000000000305,-0.6279399999999995,34.0,25.9,0,18.0,1641.0,51.540000000000006,-1.777400000000001,0.03,-1.0437999999999998,-0.04,1.8124000000000002,-16.904200000000003,50.82079999999997,0,1,1,100.0,0.2864788975654116,5.025400000000001,-4.738921102434589
4,68.0,1,20.0,0.0,1,5,5.939200000000001,-0.011240000000000088,-0.47068000000000765,-0.23219999999999605,34.0,25.8236,0,19.0,1641.0,52.0,-2.2044,0.04,-0.9952,-0.04,2.0628000000000006,-15.199999999999992,34.724399999999974,0,1,1,100.0,0.6440045617270503,5.939200000000001,-5.295195438272951
4,69.0,1,20.0,0.0,1,5,6.323600000000001,-0.03542000000000004,-2.561940000000004,0.8559000000000019,34.0,25.7988,0,19.0,1641.0,52.0,-2.2601999999999998,0.04,-0.9765999999999999,-0.04,2.2674000000000003,-13.339999999999996,28.115199999999987,0,1,1,100.0,2.029416510353378,6.323600000000001,-4.294183489646622
4,70.0,1,20.0,0.0,1,5,7.384,-0.1058,-2.5618,2.3456,34.0,25.68,0,19.0,1641.0,52.0,-1.772,0.026,-0.9359999999999999,-0.044000000000000004,3.388,-6.1240000000000006,11.448,0,1,1,100.0,6.06189347248411,7.384,-1.3221065275158903
4,71.0,1,20.0,0.0,1,5,7.7865,-0.12829,-2.2845200000000006,2.8093899999999996,34.0,25.619600000000002,0,19.0,1641.0,52.0,-1.3586000000000007,0.019800000000000012,-0.9298000000000001,-0.0501,4.0131,-2.8955000000000033,5.490600000000005,0,1,1,100.0,7.350475553733331,7.7865,-0.4360244462666696
4,72.0,1,20.0,0.0,1,5,7.988000000000001,-0.13728000000000004,-2.114639999999999,2.976480000000001,34.0,25.6072,0,19.0,1641.0,52.0,-1.005199999999998,0.013599999999999966,-0.9236,-0.05320000000000002,4.419200000000002,-1.2059999999999909,2.719199999999985,0,1,1,100.0,7.865564611555944,7.988000000000001,-0.12243538844405766
4,73.0,1,20.0,0.0,1,6,8.1895,-0.14627000000000004,-1.9447599999999994,3.1435700000000004,34.0,25.5948,0,19.0,1641.0,52.0,-0.6517999999999987,0.007399999999999978,-0.9174,-0.05630000000000001,4.825300000000001,0.48350000000000626,-0.0522000000000095,0,1,1,100.0,8.380653669378553,8.1895,0.1911536693785525
4,74.0,1,20.0,0.0,1,6,8.391,-0.15526,-1.7748799999999998,3.3106600000000004,34.0,25.5824,0,19.0,1641.0,52.0,-0.2983999999999993,0.0011999999999999886,-0.9112,-0.0594,5.231400000000001,2.173000000000003,-2.8236000000000043,0,1,1,100.0,8.895742727201162,8.391,0.5047427272011618
4,75.0,1,20.0,0.0,1,6,9.325,-0.185,-0.922,4.566,34.0,25.44,0,19.0,1641.0,52.0,2.295,-0.035,-0.895,-0.07500000000000001,7.435,9.334999999999999,-14.865,0,1,1,100.0,10.599719209920229,9.325,1.2747192099202298
4,76.0,1,20.0,0.0,1,6,9.6688,-0.19332,-0.6136799999999999,4.98956,34.0,25.361600000000003,0,19.0,1641.0,52.0,3.5203999999999973,-0.05359999999999997,-0.89,-0.08239999999999997,8.257999999999997,11.573599999999997,-19.103599999999993,0,1,1,100.0,11.076420095469075,9.6688,1.4076200954690758
4,77.0,1,20.0,0.0,1,6,9.972600000000002,-0.20014000000000004,-0.6843600000000003,5.276620000000002,34.0,25.3182,0,19.0,1641.0,52.0,4.865800000000007,-0.07220000000000011,-0.89,-0.09480000000000008,8.971000000000004,13.14220000000001,-22.84220000000002,0,1,1,100.0,11.467177311748298,9.972600000000002,1.4945773117482961
4,78.0,1,20.0,0.0,1,6,10.2512,-0.20552,-0.6103199999999993,5.567280000000001,34.0,25.2748,0,19.0,1641.0,52.0,6.261600000000005,-0.0944000000000001,-0.8864,-0.10360000000000003,9.507600000000002,14.196000000000003,-26.235200000000013,0,1,1,100.0,11.77542860552868,10.2512,1.5242286055286787
4,79.0,1,20.0,0.0,1,6,10.5116,-0.20986,-0.43175999999999964,5.86054,34.0,25.2314,0,19.0,1641.0,52.0,7.693800000000003,-0.11920000000000004,-0.8802,-0.10980000000000001,9.9168,14.878000000000002,-29.378600000000006,0,1,1,100.0,12.024092288615456,10.5116,1.5124922886154568
4,80.0,1,20.0,0.0,1,6,10.718,-0.2118,-0.1998,6.2474,34.0,25.164,0,19.0,1641.0,52.0,9.144,-0.144,-0.88,-0.122,9.93,14.822,-31.939999999999998,0,1,1,100.0,12.135246100870836,10.718,1.4172461008708357
4,81.0,1,20.0,0.0,1,6,10.8764,-0.213,-0.04548000000000002,6.537059999999999,34.0,25.1123,0,19.0,1641.0,52.0,10.3319,-0.16329999999999997,-0.8789,-0.1311,9.8552,14.6567,-33.9265,0,1,1,100.0,12.204001036286535,10.8764,1.3276010362865343
4,82.0,1,20.0,0.0,1,6,10.950800000000001,-0.213,-0.035559999999999946,6.6443200000000004,34.0,25.090600000000002,0,19.0,1641.0,52.0,11.041800000000004,-0.17260000000000006,-0.8758,-0.1342,9.6444,14.337399999999999,-34.903000000000006,0,1,1,100.0,12.204001036286535,10.950800000000001,1.2532010362865336
4,83.0,1,20.0,0.0,1,6,11.0252,-0.213,-0.025639999999999965,6.75158,34.0,25.0689,0,19.0,1641.0,52.0,11.751700000000001,-0.18190000000000003,-0.8727,-0.13730000000000003,9.433599999999998,14.018099999999999,-35.8795,0,1,1,100.0,12.204001036286535,11.0252,1.1788010362865347
4,84.0,1,20.0,0.0,1,6,11.2348,-0.21192,0.04532000000000037,7.065280000000001,34.0,24.9776,0,19.0,1641.0,52.0,14.732000000000014,-0.23240000000000022,-0.87,-0.15080000000000007,7.762799999999988,11.861999999999986,-39.05920000000001,0,1,1,100.0,12.142121594412405,11.2348,0.9073215944124051
4,85.0,1,20.0,0.0,1,6,11.272,-0.2113,0.07880000000000001,7.1527,34.0,24.959,0,19.0,1641.0,52.0,15.91,-0.251,-0.87,-0.157,6.622,10.559999999999999,-39.828,0,1,1,100.0,12.106598211114294,11.272,0.8345982111142938
4,86.0,1,20.0,0.0,1,6,11.277199999999999,-0.20843999999999996,0.40412000000000436,7.707960000000008,34.0,24.837999999999997,0,19.0,1641.0,52.0,16.928000000000008,-0.2696000000000001,-0.8732000000000001,-0.16,5.487599999999992,9.389199999999992,-40.1552,0,1,1,100.0,11.942732281706878,11.277199999999999,0.665532281706879
4,87.0,1,20.0,0.0,3,7,11.2524,-0.20348000000000002,1.0030399999999977,8.701819999999996,34.0,24.621000000000002,0,19.0,1641.0,52.0,17.795999999999996,-0.2881999999999999,-0.8794,-0.16,4.359200000000004,8.341400000000004,-40.068400000000004,0,1,1,100.0,11.658545215321992,11.2524,0.40614521532199177
4,88.0,1,20.0,0.0,3,7,11.1828,-0.1974,0.7602799999999987,8.681519999999999,34.0,24.5776,0,19.0,1641.0,52.0,18.3392,-0.3012,-0.8968,-0.14879999999999996,3.465999999999997,7.8199999999999985,-39.135999999999996,0,1,1,100.0,11.31018687588245,11.1828,0.12738687588245057
4,89.0,1,20.0,0.18000000000000682,3,7,11.0976,-0.19083999999999993,0.5673800000000017,8.793580000000008,34.0,24.5096,0,19.180000000000007,1641.0,52.0,18.7576,-0.3118000000000001,-0.9136000000000002,-0.13639999999999988,2.698799999999994,7.535000000000002,-37.842999999999975,0,1,1,100.0,10.934326562276626,11.0976,-0.16327343772337422
4,90.0,1,20.0,0.8,3,7,10.985999999999999,-0.1834,0.7168,9.4948,34.0,24.336000000000002,0,19.8,1641.0,52.0,18.956,-0.318,-0.926,-0.124,2.178,7.69,-35.89,0,1,1,100.0,10.508045962699299,10.985999999999999,-0.47795403730069985
4,91.0,1,20.0,0.5799999999999954,3,7,10.844999999999999,-0.17553999999999995,0.855720000000001,9.7756,34.0,24.267400000000002,0,19.579999999999995,1641.0,52.0,19.0032,-0.32420000000000004,-0.9426000000000001,-0.11159999999999991,1.841999999999998,8.126400000000004,-33.41199999999998,0,1,1,100.0,10.057701135726468,10.844999999999999,-0.7872988642735308
4,92.0,1,20.0,0.0,3,7,10.688,-0.16740000000000005,0.9821599999999999,9.8466,34.0,24.2528,0,19.0,1641.0,52.0,18.970000000000002,-0.33039999999999997,-0.9611999999999999,-0.09880000000000007,1.6036000000000004,8.707199999999997,-30.64800000000001,0,1,1,100.0,9.591313490489984,10.688,-1.0966865095100164
4,93.0,1,20.0,0.0,3,7,10.501999999999999,-0.15809999999999996,1.00014,9.7784,34.0,24.2962,0,19.0,1641.0,52.0,18.815,-0.33660000000000007,-0.9798,-0.08019999999999994,1.5043999999999997,9.438800000000002,-27.361999999999988,0,1,1,100.0,9.058462741018314,10.501999999999999,-1.443537258981685
4,94.0,1,20.0,0.0,3,7,10.3524,-0.15131999999999995,0.9439199999999984,9.549759999999996,34.0,24.3732,0,19.0,1641.0,52.0,18.6768,-0.34,-0.9942000000000001,-0.0657999999999999,1.4331999999999996,9.977200000000003,-24.74799999999998,0,1,1,100.0,8.669997355919614,10.3524,-1.6824026440803852
4,95.0,1,20.0,0.0,3,7,10.247,-0.14759999999999998,0.7976,9.1263,34.0,24.491,0,19.0,1641.0,52.0,18.559,-0.34,-1.0035,-0.0565,1.396,10.281,-22.95,0,1,1,100.0,8.45685705613095,10.247,-1.79014294386905
4,96.0,1,20.0,0.0,3,7,10.1416,-0.14387999999999995,0.651279999999999,8.702839999999997,34.0,24.6088,0,19.0,1641.0,52.0,18.441200000000002,-0.34,-1.0128000000000001,-0.047199999999999936,1.3587999999999998,10.584800000000003,-21.151999999999987,0,1,1,100.0,8.243716756342282,10.1416,-1.8978832436577182
4,97.0,1,20.0,0.13999999999999774,3,7,9.648200000000001,-0.13046000000000002,0.6060399999999997,7.062300000000003,34.0,25.0948,0,19.139999999999997,1641.0,52.0,17.8484,-0.33860000000000007,-1.0414,-0.017200000000000045,1.068200000000001,11.3076,-13.030600000000012,0,1,1,100.0,7.474807395276721,9.648200000000001,-2.17339260472328
4,98.0,1,20.0,0.7600000000000023,3,7,9.4188,-0.12363999999999997,0.6903600000000003,6.222199999999997,34.0,25.293200000000002,0,19.76,1641.0,52.0,17.575599999999998,-0.3324,-1.0476,-0.0047999999999999545,0.8387999999999992,11.2084,-9.490399999999987,0,1,1,100.0,7.084050178997497,9.4188,-2.334749821002502
4,99.0,1,20.0,0.6199999999999931,3,7,9.189399999999997,-0.11605999999999991,0.7587200000000006,5.30267999999999,34.0,25.465000000000003,0,19.619999999999994,1641.0,52.0,17.325599999999998,-0.33,-1.0576,0.003800000000000068,0.5409999999999963,10.831799999999994,-6.178199999999965,0,1,1,100.0,6.649748170288329,9.189399999999997,-2.5396518297116684
4,100.0,1,20.0,0.0,3,7,8.96,-0.108,0.817,4.333,34.0,25.62,0,19.0,1641.0,52.0,17.09,-0.33,-1.07,0.01,0.2,10.28,-3.01,0,1,1,100.0,6.18794418741289,8.96,-2.7720558125871104
5,0.0,1,20.0,0.0,0,1,8.6,-0.095,0.805,2.733,34.0,25.79,0,19.0,1641.0,52.0,16.76,-0.32,-1.07,0.01,-0.48,8.68,1.15,0,1,1,100.0,5.443099053742821,8.6,-3.1569009462571787
5,1.0,1,20.0,0.0,0,1,8.398399999999999,-0.08366,1.27876,1.71618,34.0,25.79,0,19.0,1641.0,52.0,16.6088,-0.32,-1.0763,0.0163,-0.9399,7.2940000000000005,2.9014,0,1,1,100.0,4.793364914064467,8.398399999999999,-3.6050350859355316
5,2.0,1,20.0,0.0,0,1,8.202,-0.077,1.557,1.119,34.0,25.79,0,24.2,1641.0,52.0,16.4654,-0.3174,-1.0774000000000001,0.017400000000000002,-1.3894,5.809200000000001,4.307,0,1,1,100.0,4.411775022507339,8.202,-3.7902249774926613
5,3.0,1,20.0,0.0,0,1,8.013,-0.077,1.557,1.119,34.0,25.79,0,36.8,1641.0,52.0,16.333099999999998,-0.3111,-1.0711000000000002,0.011100000000000002,-1.8240999999999998,4.183800000000001,5.2204999999999995,0,1,1,100.0,4.411775022507339,8.013,-3.6012249774926612
5,4.0,1,20.0,0.0,0,1,7.915,-0.077,1.557,1.119,34.0,25.79,0,44.2,1641.0,52.0,16.244999999999997,-0.31,-1.07,0.01,-2.043,3.2084,5.5126,0,1,1,100.0,4.411775022507339,7.915,-3.5032249774926614
5,5.0,1,20.0,0.0,0,1,7.836250000000001,-0.077,1.557,1.119,34.0,25.79,0,50.5,1641.0,52.0,16.166249999999998,-0.31,-1.07,0.01,-2.21625,2.3705,5.6732499999999995,0,1,1,100.0,4.411775022507339,7.836250000000001,-3.424474977492662
5,6.0,1,20.0,0.0,0,1,7.7575,-0.077,1.557,1.119,34.0,25.79,0,56.8,1641.0,52.0,16.0875,-0.31,-1.07,0.01,-2.3895,1.5326000000000002,5.8339,0,1,1,100.0,4.411775022507339,7.7575,-3.3457249774926616
5,7.0,1,20.0,0.0,0,1,7.4585,-0.052,4.775439999999999,-0.0,34.0,25.9177,0,5.0,1641.0,52.0,15.634699999999999,-0.2959,-1.0659,0.0,-2.8879,-2.0100000000000002,5.4758000000000004,0,1,1,100.0,2.979380534680281,7.4585,-4.4791194653197195
5,8.0,1,20.0,0.0,0,1,7.3656,-0.05192,0.16488,-0.0,34.0,25.9,0,5.0,1641.0,52.0,15.4252,-0.28959999999999997,-1.06,-0.0003999999999999986,-3.0024,-3.2491999999999996,5.072,0,1,1,100.0,2.974796872319234,7.3656,-4.3908031276807655
5,9.0,1,20.0,0.0,0,1,7.2963,-0.050660000000000004,0.17873999999999998,-0.0,34.0,25.9,0,5.0,1641.0,52.0,15.1921,-0.2833,-1.06,-0.006699999999999996,-3.0402,-4.1815999999999995,4.4735000000000005,0,1,1,100.0,2.9026041901327506,7.2963,-4.393695809867249
5,10.0,1,20.0,0.0,0,1,7.239,-0.0488,0.24,-0.0,34.0,25.9,0,5.0,1641.0,52.0,14.947000000000001,-0.277,-1.057,-0.01,-3.057,-4.952,3.779,0,1,1,100.0,2.7960340402384176,7.239,-4.442965959761582
5,11.0,1,20.0,0.0,0,1,7.1949000000000005,-0.04628,0.35339999999999994,-0.0,34.0,25.9,0,5.0,1641.0,52.0,14.6887,-0.2707,-1.0507,-0.01,-3.0507,-5.5442,2.9789000000000003,0,1,1,100.0,2.65164867586545,7.1949000000000005,-4.54325132413455
5,12.0,1,20.0,0.0,0,1,7.1788,-0.04152,0.45559999999999995,-0.0,34.0,25.9,0,5.0,1641.0,52.0,14.4136,-0.2644,-1.0444,-0.015599999999999994,-3.022,-5.8956,1.999600000000001,0,1,1,100.0,2.378920765383178,7.1788,-4.799879234616822
5,13.0,1,20.0,0.0,0,1,7.1719,-0.037335,0.5062400000000001,-0.0,34.0,25.9,0,5.0,1641.0,52.0,14.176300000000001,-0.25905,-1.04,-0.02,-2.9962,-6.1352,1.1185500000000008,0,1,1,100.0,2.1391379281209284,7.1719,-5.0327620718790715
5,14.0,1,20.0,0.0,0,1,7.1782,-0.03513,0.44072,-0.0,34.0,25.9,0,5.0,1641.0,52.0,14.0314,-0.2559,-1.04,-0.02,-2.9836,-6.1856,0.5168999999999998,0,1,1,100.0,2.012800734294582,7.1782,-5.165399265705418
5,15.0,1,20.0,0.0,0,1,7.1845,-0.032925,0.3752,-0.0,34.0,25.9,0,5.0,1641.0,52.0,13.8865,-0.25275000000000003,-1.04,-0.02,-2.971,-6.236000000000001,-0.08474999999999998,0,1,1,100.0,1.8864635404682357,7.1845,-5.298036459531764
5,16.0,1,20.0,0.07999999999999972,0,1,7.1932,-0.030520000000000002,0.32536,-0.0,34.0,25.9,0,5.08,1641.0,52.0,13.7192,-0.2492,-1.0392000000000001,-0.0208,-2.9584,-6.2704,-0.7835999999999994,0,1,1,100.0,1.7486671907392726,7.1932,-5.4445328092607275
5,17.0,1,20.0,0.7099999999999995,0,1,7.218400000000001,-0.026740000000000003,0.38331999999999994,-0.0,34.0,25.9,0,5.709999999999999,1641.0,52.0,13.3979,-0.2429,-1.0329,-0.027099999999999992,-2.9457999999999998,-6.1948,-2.1506999999999987,0,1,1,100.0,1.5320891441798214,7.218400000000001,-5.68631085582018
5,18.0,1,20.0,1.0,0,1,7.2419,-0.023640000000000005,0.4676299999999998,-0.0,34.0,25.9,0,6.0,1641.0,52.0,13.1548,-0.2383,-1.0283,-0.03,-2.9383,-6.1005,-3.1828999999999987,0,1,1,100.0,1.3544722276892665,7.2419,-5.887427772310733
5,19.0,1,20.0,1.0,0,1,7.26395,-0.02112,0.574415,-0.0,34.0,25.9,0,6.0,1641.0,52.0,12.978399999999999,-0.23515,-1.02515,-0.03,-2.93515,-5.99025,-3.9294500000000006,0,1,1,100.0,1.2100868633162987,7.26395,-6.0538631366837015
5,20.0,1,20.0,1.0,0,1,7.286,-0.018600000000000002,0.6812,-0.0,34.0,25.9,0,6.0,1641.0,52.0,12.802,-0.232,-1.022,-0.03,-2.932,-5.88,-4.676,0,1,1,100.0,1.0657014989433313,7.286,-6.220298501056668
5,21.0,1,20.0,1.0,0,1,7.5007,0.01490999999999997,1.12364,-0.0,34.0,25.923099999999998,0,6.0,1641.0,52.0,11.271300000000002,-0.20540000000000003,-1.02,-0.04,-2.8293000000000004,-4.4944000000000015,-11.104699999999994,0,1,1,100.0,-0.8542800725400557,7.5007,-8.354980072540055
5,22.0,1,20.0,1.0,0,1,7.5574,0.02561999999999999,1.10348,-0.0,34.0,25.9042,0,6.0,1641.0,52.0,10.8366,-0.1928,-1.02,-0.04,-2.7725999999999997,-4.0408,-12.925399999999998,0,1,1,100.0,-1.4679178711251686,7.5574,-9.02531787112517
5,23.0,1,20.0,1.0,0,1,7.6141000000000005,0.037800000000000014,1.1529,-0.0,34.0,25.9,0,6.0,1641.0,52.0,10.382299999999999,-0.1851,-1.02,-0.04490000000000001,-2.6963,-3.5920999999999994,-14.819600000000003,0,1,1,100.0,-2.1657804655945125,7.6141000000000005,-9.779880465594513
5,24.0,1,20.0,1.0,0,1,7.6684,0.05015999999999998,1.2304799999999998,-0.0,34.0,25.9,0,6.0,1641.0,52.0,9.92,-0.17880000000000001,-1.02,-0.05,-2.6096,-3.149600000000001,-16.7492,0,1,1,100.0,-2.873956300376208,7.6684,-10.542356300376209
5,25.0,1,20.0,1.0,0,1,7.7125,0.0615,1.3432499999999998,-0.0,34.0,25.9,0,6.0,1641.0,52.0,9.4475,-0.17250000000000001,-1.02,-0.05,-2.5025,-2.7275,-18.740000000000002,0,1,1,100.0,-3.523690440054563,7.7125,-11.236190440054564
5,26.0,1,20.0,1.0,0,1,7.7490000000000006,0.07093999999999998,1.0266200000000016,-0.0,34.0,25.9,0,6.0,1641.0,52.0,8.952200000000001,-0.16240000000000004,-1.02,-0.05,-2.3878000000000004,-2.332000000000001,-20.688999999999997,0,1,1,100.0,-4.064562598658059,7.7490000000000006,-11.81356259865806
5,27.0,1,20.0,1.0,0,1,7.78015,0.079,0.43403500000000017,-0.0,34.0,25.9,0,6.0,1641.0,52.0,8.4455,-0.1499,-1.02,-0.05005,-2.2688,-1.9574500000000001,-22.592599999999997,0,1,1,100.0,-4.5263665815335035,7.78015,-12.306516581533504
5,28.0,1,20.0,1.0,0,1,7.7896,0.079,0.24723999999999985,-0.0,34.0,25.9,0,6.0,1641.0,52.0,8.161999999999999,-0.14359999999999998,-1.02,-0.053200000000000004,-2.1932,-1.7967999999999997,-23.386400000000002,0,1,1,100.0,-4.5263665815335035,7.7896,-12.315966581533504
5,29.0,1,20.0,1.0,6,2,7.79905,0.079,0.060445000000000346,-0.0,34.0,25.9,0,6.0,1641.0,52.0,7.8785,-0.1373,-1.02,-0.05635,-2.1176,-1.6361500000000002,-24.1802,0,1,1,100.0,-4.5263665815335035,7.79905,-12.325416581533503
5,30.0,1,20.0,1.0,6,2,7.8084999999999996,0.079,-0.12635,-0.0,34.0,25.9,0,6.0,1641.0,52.0,7.595,-0.131,-1.02,-0.0595,-2.042,-1.4755,-24.974,0,1,1,100.0,-4.5263665815335035,7.8084999999999996,-12.334866581533504
5,31.0,1,20.0,0.4700000000000017,6,2,7.8046999999999995,0.079,-0.10618000000000016,-0.030209999999999904,34.0,25.9,0,11.829999999999982,1641.0,52.0,7.020000000000001,-0.12470000000000002,-1.02,-0.06,-1.8657000000000004,-1.0843000000000012,-25.826099999999997,0,1,1,100.0,-4.5263665815335035,7.8046999999999995,-12.331066581533502
5,32.0,1,20.0,0.0,6,2,7.7372,0.04600000000000002,-1.8960000000000001,0.9238000000000003,34.0,25.841199999999997,0,17.0,1641.0,52.0,5.2776000000000005,-0.09680000000000001,-1.0216,-0.061599999999999995,-1.2056000000000004,0.2571999999999995,-25.753600000000002,0,1,1,100.0,-2.635605857601788,7.7372,-10.372805857601787
5,33.0,1,20.0,0.0,6,2,7.6868,0.03024999999999999,-1.69125,0.5016999999999996,34.0,25.885299999999997,0,17.0,1641.0,52.0,4.559399999999999,-0.0842,-1.0279,-0.06790000000000002,-0.8338999999999996,0.8368000000000005,-24.310899999999997,0,1,1,100.0,-1.7331973302707395,7.6868,-9.41999733027074
5,34.0,1,20.0,0.4199999999999989,6,2,7.6154,0.01786000000000002,-1.325220000000001,0.04474000000000082,34.0,25.9,0,17.419999999999998,1641.0,52.0,3.8412000000000015,-0.07160000000000002,-1.03,-0.07,-0.37400000000000094,1.340799999999999,-22.057600000000004,0,1,1,100.0,-1.0233026221036516,7.6154,-8.638702622103652
5,35.0,1,20.0,0.95,6,2,7.532,0.00735,-0.9095500000000001,-0.46530000000000005,34.0,25.898,0,17.95,1641.0,52.0,3.125,-0.059,-1.0305,-0.07,0.1385,1.785,-19.312,0,1,1,100.0,-0.42112397942115504,7.532,-7.9531239794211555
5,36.0,1,20.0,0.32000000000000167,6,2,7.4312000000000005,-0.0008399999999999788,-0.8534800000000001,-1.3888799999999977,34.0,25.872799999999998,0,17.32,1641.0,52.0,2.4320000000000017,-0.04640000000000003,-1.0368,-0.07,0.7495999999999984,1.9739999999999993,-15.55720000000001,0,1,1,100.0,0.048128454790987936,7.4312000000000005,-7.383071545209012
5,37.0,1,20.0,0.30999999999999944,6,2,7.318,-0.008719999999999993,-0.79493,-2.1958999999999995,34.0,25.8383,0,17.31,1641.0,52.0,1.7576000000000007,-0.03380000000000001,-1.0431000000000001,-0.0731,1.3668999999999993,1.9987000000000001,-11.349800000000005,0,1,1,100.0,0.49961919735407745,7.318,-6.8183808026459225
5,38.0,1,20.0,0.9400000000000006,6,2,7.191999999999999,-0.016280000000000006,-0.7338199999999999,-2.8826000000000005,34.0,25.7942,0,17.94,1641.0,52.0,1.1023999999999994,-0.02119999999999999,-1.0494,-0.07940000000000001,1.9906000000000004,1.8538,-6.675199999999996,0,1,1,100.0,0.9327752904729806,7.191999999999999,-6.259224709527019
5,39.0,1,20.0,1.0,6,2,7.11445,-0.018709999999999997,-0.5133950000000004,-2.925485,34.0,25.770049999999998,0,18.0,1641.0,52.0,0.7578500000000006,-0.014300000000000012,-1.05285,-0.08,2.2922499999999992,1.6376500000000005,-3.790400000000005,0,1,1,100.0,1.0720040346897701,7.11445,-6.04244596531023
5,40.0,1,20.0,1.0,6,2,7.042,-0.0206,-0.27619999999999995,-2.9006000000000003,34.0,25.747999999999998,0,18.0,1641.0,52.0,0.446,-0.008,-1.056,-0.08,2.56,1.414,-1.0939999999999999,0,1,1,100.0,1.180293057969496,7.042,-5.861706942030504
5,41.0,1,20.0,1.0,6,2,6.96955,-0.022490000000000003,-0.0390049999999995,-2.875715,34.0,25.725949999999997,0,18.0,1641.0,52.0,0.13414999999999944,-0.0016999999999999886,-1.05915,-0.08,2.8277500000000004,1.1903499999999996,1.6024000000000054,0,1,1,100.0,1.2885820812492217,6.96955,-5.6809679187507784
5,42.0,1,20.0,1.0,6,2,6.839600000000001,-0.02162000000000001,0.22279999999999853,-2.458220000000003,34.0,25.770599999999998,0,18.0,1641.0,52.0,-0.35939999999999694,0.009199999999999932,-1.0692,-0.08,3.157599999999998,0.6240000000000037,6.640199999999968,0,1,1,100.0,1.2387347530728405,6.839600000000001,-5.60086524692716
5,43.0,1,20.0,1.0,6,2,6.698300000000001,-0.019640000000000008,0.45801499999999995,-1.932125000000001,34.0,25.831349999999997,0,18.0,1641.0,52.0,-0.8732999999999991,0.02044999999999999,-1.0809,-0.08,3.46765,-0.032099999999998435,12.142799999999989,0,1,1,100.0,1.1252891096369373,6.698300000000001,-5.573010890363063
5,44.0,1,20.0,1.0,6,2,6.6164000000000005,-0.017120000000000003,0.47912,-1.6250000000000004,34.0,25.840799999999998,0,18.0,1641.0,52.0,-1.1063999999999996,0.023599999999999993,-1.0872000000000002,-0.08,3.5212,-0.46679999999999927,15.242399999999993,0,1,1,100.0,0.9809037452639695,6.6164000000000005,-5.635496254736031
5,45.0,1,20.0,1.0,6,2,6.5345,-0.0146,0.500225,-1.317875,34.0,25.85025,0,18.0,1641.0,52.0,-1.3395000000000001,0.02675,-1.0935000000000001,-0.08,3.57475,-0.9015000000000001,18.342,0,1,1,100.0,0.836518380891002,6.5345,-5.697981619108998
5,46.0,1,20.0,1.0,6,2,6.4526,-0.012079999999999995,0.5213300000000001,-1.0107499999999994,34.0,25.8597,0,18.0,1641.0,52.0,-1.5726000000000004,0.029900000000000003,-1.0998,-0.08,3.6283,-1.336200000000001,21.441600000000005,0,1,1,100.0,0.6921330165180342,6.4526,-5.760466983481966
5,47.0,1,20.0,1.0,6,2,5.8641000000000005,-0.0013900000000000034,0.016000000000001,0.0027100000000006377,34.0,25.9,0,18.0,1641.0,52.0,-2.3866,0.05,-1.1522,-0.07,2.2959000000000027,-6.178299999999993,45.89859999999997,0,1,1,100.0,0.07964113352318462,5.8641000000000005,-5.7844588664768155
5,48.0,1,20.0,1.0,6,2,5.7564,-0.0012399999999999978,-0.08228000000000019,-0.09235999999999979,34.0,25.9,0,18.0,1641.0,52.0,-2.3956000000000004,0.05,-1.1623999999999999,-0.06760000000000002,1.768800000000002,-7.464399999999995,50.679999999999986,0,1,1,100.0,0.07104676659622196,5.7564,-5.685353233403778
5,49.0,1,20.0,1.0,6,2,5.668200000000001,-0.0018699999999999988,-0.033140000000000086,-0.1484299999999999,34.0,25.9,0,18.0,1641.0,52.0,-2.3578,0.05,-1.1686999999999999,-0.06130000000000001,1.214400000000001,-8.762199999999996,54.77499999999999,0,1,1,100.0,0.10714310768946388,5.668200000000001,-5.561056892310536
5,50.0,1,20.0,1.0,6,2,5.61,-0.0025,-0.08249999999999999,-0.292,34.0,25.9,0,18.0,1641.0,52.0,-2.2950000000000004,0.05,-1.17,-0.06,0.7000000000000001,-10.04,57.75,0,1,1,100.0,0.1432394487827058,5.61,-5.466760551217295
5,51.0,1,20.0,1.0,6,2,5.5687,-0.0031300000000000013,-0.13757999999999995,-0.4513000000000002,34.0,25.9,0,18.0,1641.0,52.0,-2.2309,0.04869999999999999,-1.1686999999999999,-0.05869999999999999,0.21809999999999927,-11.290500000000003,60.101000000000006,0,1,1,100.0,0.17933578987594775,5.5687,-5.389364210124052
5,52.0,1,20.0,1.0,6,2,5.5624,-0.003759999999999997,-0.11616000000000011,-0.5835999999999992,34.0,25.9,0,18.0,1641.0,52.0,-2.1868000000000003,0.042400000000000035,-1.1623999999999999,-0.05240000000000004,-0.17879999999999788,-12.455999999999994,61.17199999999999,0,1,1,100.0,0.21543213096918937,5.5624,-5.346967869030811
5,53.0,1,20.0,0.6100000000000022,6,2,5.5912,-0.004779999999999995,-0.11501999999999996,-0.7197999999999996,34.0,25.9,0,17.610000000000003,1641.0,52.0,-2.1739,0.04,-1.1561,-0.05,-0.4781999999999991,-13.496699999999997,61.1939,0,1,1,100.0,0.27387382607253324,5.5912,-5.317326173927467
5,54.0,1,20.0,0.0,6,2,5.643199999999999,-0.006019999999999999,-0.12538000000000005,-0.8572199999999998,34.0,25.9,0,17.0,1641.0,52.0,-2.1822,0.04019999999999999,-1.1494,-0.04980000000000001,-0.7121999999999998,-14.450199999999999,60.51820000000001,0,1,1,100.0,0.3449205926687555,5.643199999999999,-5.298279407331243
5,55.0,1,20.0,0.0,6,2,5.744,-0.0066500000000000005,-0.10585,-0.9586499999999999,34.0,25.9,0,17.0,1641.0,52.0,-2.2515,0.0465,-1.1305,-0.043500000000000004,-0.7815,-15.0865,58.2565,0,1,1,100.0,0.38101693376199747,5.744,-5.3629830662380025
5,56.0,1,20.0,0.14000000000000057,6,2,5.8336,-0.007280000000000001,-0.09948000000000001,-1.02942,34.0,25.9,0,17.14,1641.0,52.0,-2.3194000000000004,0.05,-1.1172000000000002,-0.04,-0.7975999999999999,-15.4764,56.172599999999996,0,1,1,100.0,0.41711327485523936,5.8336,-5.41648672514476
5,57.0,1,20.0,0.4549999999999983,6,2,5.909199999999999,-0.007909999999999997,-0.10955999999999995,-1.0618649999999998,34.0,25.9,0,17.455,1641.0,52.0,-2.38555,0.05,-1.1109000000000002,-0.04,-0.7472000000000003,-15.5583,54.31095000000001,0,1,1,100.0,0.45320961594848097,5.909199999999999,-5.4559903840515185
5,58.0,1,20.0,0.7699999999999989,6,2,5.9848,-0.008539999999999997,-0.11963999999999997,-1.09431,34.0,25.9,0,17.77,1641.0,52.0,-2.4516999999999998,0.05,-1.1046,-0.04,-0.6968000000000002,-15.640199999999998,52.44930000000001,0,1,1,100.0,0.48930595704172286,5.9848,-5.495494042958277
5,59.0,1,20.0,1.0,6,2,6.4262999999999995,-0.009,0.06379000000000012,-1.11198,34.0,25.86,0,18.0,1641.0,52.17,-2.8024999999999993,0.05,-1.0649000000000002,-0.04,-0.15120000000000072,-14.678900000000002,41.690900000000006,0,1,1,100.0,0.5156620156177408,6.4262999999999995,-5.910637984382259
5,60.0,1,20.0,1.0,1,5,6.672,-0.009,-0.007400000000000004,-1.1082,34.0,25.86,0,18.0,1641.0,52.8,-2.96,0.05,-1.046,-0.04,0.252,-13.526,35.876,0,1,1,100.0,0.5156620156177408,6.672,-6.156337984382259
5,61.0,1,20.0,0.5699999999999988,1,5,6.9392000000000005,-0.009,-0.033010000000000005,-1.0984,34.0,25.86,0,18.43,1641.0,53.0,-3.053,0.05,-1.0271,-0.04,0.741200000000001,-11.857099999999997,29.80309999999999,0,1,1,100.0,0.5156620156177408,6.9392000000000005,-6.42353798438226
5,62.0,1,20.0,0.0,1,5,7.2044,-0.010289999999999926,-0.142779999999994,-1.0401700000000027,34.0,25.859099999999998,0,19.0,1641.0,53.0,-3.1046,0.05,-1.0094,-0.04,1.2505999999999982,-10.005200000000007,23.910200000000017,0,1,1,100.0,0.5895735711896128,7.2044,-6.614826428810387
5,63.0,1,20.0,0.0,1,5,7.3556,-0.02383499999999995,-1.253469999999996,-0.5484550000000018,34.0,25.84965,0,19.0,1641.0,53.0,-3.0479000000000003,0.05,-1.0031,-0.04,1.571899999999999,-8.694800000000006,20.86730000000001,0,1,1,100.0,1.3656449046943142,7.3556,-5.989955095305685
5,64.0,1,20.0,0.0,1,5,7.5068,-0.037379999999999976,-2.3641599999999983,-0.05674000000000093,34.0,25.8402,0,19.0,1641.0,53.0,-2.9912,0.05,-0.9968,-0.04,1.8931999999999995,-7.384400000000003,17.824400000000004,0,1,1,100.0,2.141716238199016,7.5068,-5.365083761800984
5,65.0,1,20.0,0.0,1,5,7.658,-0.050925,-3.4748500000000004,0.43497499999999995,34.0,25.83075,0,19.0,1641.0,53.0,-2.9345000000000003,0.05,-0.9904999999999999,-0.04,2.2145,-6.074,14.7815,0,1,1,100.0,2.9177875717037174,7.658,-4.740212428296283
5,66.0,1,20.0,0.0,1,5,7.960000000000001,-0.07984000000000005,-3.1697599999999992,0.980920000000001,34.0,25.8068,0,19.0,1641.0,53.0,-2.6167999999999996,0.04419999999999999,-0.9783999999999999,-0.045800000000000014,2.924400000000001,-3.075799999999994,9.32579999999999,0,1,1,100.0,4.574495036324495,7.960000000000001,-3.3855049636755057
5,67.0,1,20.0,0.0,1,5,8.7587,-0.1442999999999999,-2.2858100000000023,2.362199999999997,34.0,25.698999999999998,0,19.0,1641.0,53.0,-1.1444000000000045,0.015800000000000067,-0.9479,-0.054199999999999936,4.877799999999996,5.424699999999983,-3.9415999999999762,0,1,1,100.0,8.267780983737774,8.7587,-0.4909190162622252
5,68.0,1,20.0,0.0,1,6,9.0548,-0.16319999999999996,-1.8202400000000016,2.941799999999998,34.0,25.636,0,19.0,1641.0,53.0,-0.2876000000000032,0.0032000000000000457,-0.9416,-0.06679999999999996,5.621199999999997,8.618799999999988,-8.326399999999984,0,1,1,100.0,9.350671216535032,9.0548,0.2958712165350317
5,69.0,1,20.0,0.0,1,6,9.2334,-0.17317,-1.6009500000000003,3.2309399999999995,34.0,25.601200000000002,0,19.0,1641.0,53.0,0.331849999999999,-0.007049999999999983,-0.93765,-0.07235,6.047349999999999,10.424049999999998,-10.840599999999997,0,1,1,100.0,9.921910138280465,9.2334,0.6885101382804653
5,70.0,1,20.0,0.0,1,6,9.372,-0.1801,-1.4655,3.4212,34.0,25.576,0,19.0,1641.0,53.0,0.8704999999999999,-0.0165,-0.9345,-0.0755,6.3655,11.756499999999999,-12.718,0,1,1,100.0,10.318969890306127,9.372,0.9469698903061268
5,71.0,1,20.0,0.0,1,6,9.5106,-0.18703000000000003,-1.3300499999999997,3.6114600000000006,34.0,25.5508,0,19.0,1641.0,53.0,1.4091500000000008,-0.025950000000000018,-0.93135,-0.07865000000000001,6.683650000000001,13.088950000000002,-14.595400000000003,0,1,1,100.0,10.716029642331788,9.5106,1.2054296423317883
5,72.0,1,20.0,0.0,1,6,10.007599999999998,-0.20897999999999997,-0.8951400000000005,4.391139999999999,34.0,25.4902,0,19.0,1641.0,53.0,4.018799999999996,-0.06539999999999994,-0.9082,-0.10179999999999999,7.566799999999999,16.970599999999997,-21.284799999999994,0,1,1,100.0,11.973672002643942,10.007599999999998,1.9660720026439442
5,73.0,1,20.0,0.0,1,6,10.1084,-0.212445,-0.8078850000000003,4.555884999999999,34.0,25.45555,0,19.0,1641.0,53.0,4.699199999999998,-0.07484999999999996,-0.90505,-0.10494999999999999,7.6487,17.49665,-22.658199999999994,0,1,1,100.0,12.172201878656773,10.1084,2.063801878656774
5,74.0,1,20.0,0.0,1,6,10.2092,-0.21591,-0.7206300000000002,4.72063,34.0,25.4209,0,19.0,1641.0,53.0,5.379599999999999,-0.08429999999999999,-0.9019,-0.1081,7.7306,18.0227,-24.031599999999997,0,1,1,100.0,12.370731754669604,10.2092,2.161531754669605
5,75.0,1,20.0,0.0,1,6,10.5625,-0.22825,-0.47375,5.23375,34.0,25.3525,0,19.0,1641.0,53.0,8.587499999999999,-0.1375,-0.8875,-0.1325,7.3149999999999995,18.6125,-29.3425,0,1,1,100.0,13.07776167386104,10.5625,2.5152616738610405
5,76.0,1,20.0,0.0,1,6,10.669599999999999,-0.23140000000000002,-0.3269599999999997,5.457400000000001,34.0,25.3084,0,19.0,1641.0,53.0,9.992400000000002,-0.15640000000000004,-0.8812,-0.13880000000000003,6.798399999999999,18.2156,-31.314400000000006,0,1,1,100.0,13.25824337932725,10.669599999999999,2.5886433793272516
5,77.0,1,20.0,0.0,1,6,10.735899999999999,-0.23302,-0.17354000000000083,5.767239999999998,34.0,25.2439,0,19.0,1641.0,53.0,11.366699999999993,-0.1752999999999999,-0.8749,-0.15019999999999994,6.011500000000004,17.385200000000005,-33.026199999999996,0,1,1,100.0,13.351062542138443,10.735899999999999,2.615162542138444
5,78.0,1,20.0,0.0,1,6,10.7828,-0.234,-0.04810000000000008,6.06068,34.0,25.180200000000003,0,19.0,1641.0,53.0,12.722599999999995,-0.19419999999999993,-0.8686,-0.1614,5.089600000000004,16.359000000000005,-34.6166,0,1,1,100.0,13.407212406061264,10.7828,2.624412406061264
5,79.0,1,20.0,0.0,1,6,10.7954,-0.234,-0.026050000000000035,6.225739999999999,34.0,25.136100000000003,0,19.0,1641.0,53.0,14.039299999999997,-0.21309999999999996,-0.8623,-0.1677,3.9178000000000024,15.004500000000002,-35.9963,0,1,1,100.0,13.407212406061264,10.7954,2.6118124060612633
5,80.0,1,20.0,0.0,1,6,10.788,-0.234,-0.0334,6.3206,34.0,25.114,0,19.0,1641.0,53.0,14.914,-0.226,-0.858,-0.17,3.032,13.966,-36.852,0,1,1,100.0,13.407212406061264,10.788,2.619212406061264
5,81.0,1,20.0,0.0,1,6,10.7691,-0.234,-0.057655000000000046,6.375095,34.0,25.10455,0,19.0,1641.0,53.0,15.53455,-0.23545000000000002,-0.85485,-0.17,2.310649999999999,13.109199999999998,-37.4064,0,1,1,100.0,13.407212406061264,10.7691,2.638112406061264
5,82.0,1,20.0,0.0,1,6,10.7502,-0.234,-0.0819100000000001,6.42959,34.0,25.0951,0,19.0,1641.0,53.0,16.1551,-0.24490000000000003,-0.8517,-0.17,1.5892999999999975,12.252399999999996,-37.9608,0,1,1,100.0,13.407212406061264,10.7502,2.6570124060612645
5,83.0,1,20.0,0.0,1,6,10.552,-0.22894000000000003,0.5260199999999976,7.423429999999994,34.0,24.8992,0,19.0,1641.0,53.0,18.309699999999996,-0.28579999999999994,-0.8529,-0.17,-1.5042999999999962,8.817300000000003,-39.2052,0,1,1,100.0,13.11729576172507,10.552,2.5652957617250696
5,84.0,1,20.0,0.0,3,7,10.426000000000002,-0.2201200000000001,1.1799599999999928,8.914639999999983,34.0,24.571600000000004,0,19.0,1641.0,53.0,18.89559999999999,-0.29839999999999983,-0.8592,-0.17,-2.5563999999999885,7.7904000000000115,-39.129599999999996,0,1,1,100.0,12.611946986419687,10.426000000000002,2.185946986419685
5,85.0,1,20.0,0.0,3,7,10.2725,-0.21184999999999998,0.9835999999999999,9.13755,34.0,24.491500000000002,0,19.0,1641.0,53.0,19.107499999999998,-0.3055,-0.871,-0.159,-3.229,7.423500000000001,-38.372,0,1,1,100.0,12.13811088984649,10.2725,1.8656108898464883
5,86.0,1,20.0,0.17999999999999547,3,7,10.106000000000002,-0.20330000000000006,0.7983799999999989,9.257699999999996,34.0,24.415000000000003,0,19.179999999999996,1641.0,53.0,19.1642,-0.31,-0.8853999999999999,-0.14640000000000009,-3.7329999999999983,7.346999999999998,-37.29200000000001,0,1,1,100.0,11.64823197500964,10.106000000000002,1.5422319750096385
5,87.0,1,20.0,0.8100000000000023,3,7,9.916999999999998,-0.19384999999999997,0.9502100000000006,9.58215,34.0,24.2575,0,19.810000000000002,1641.0,53.0,18.968899999999998,-0.31,-0.9043000000000001,-0.13379999999999995,-3.9535000000000005,7.756500000000002,-35.65399999999999,0,1,1,100.0,11.106786858611006,9.916999999999998,1.1897868586110079
5,88.0,1,20.0,0.5600000000000023,3,7,9.7104,-0.18440000000000004,0.9665200000000002,9.856879999999999,34.0,24.166,0,19.560000000000002,1641.0,53.0,18.6108,-0.31,-0.9231999999999999,-0.11680000000000007,-3.9892,8.473999999999997,-33.55400000000001,0,1,1,100.0,10.565341742212382,9.7104,0.8549417422123824
5,89.0,1,20.0,0.0,3,7,9.507050000000001,-0.17533500000000005,0.9366999999999993,10.08718,34.0,24.11105,0,19.0,1641.0,53.0,18.199200000000005,-0.30965000000000004,-0.9410499999999998,-0.09895000000000011,-3.940900000000001,9.279349999999996,-31.354600000000016,0,1,1,100.0,10.045955500926292,9.507050000000001,0.5389055009262904
5,90.0,1,20.0,0.0,3,7,9.3905,-0.16935,1.006,10.1338,34.0,24.1205,0,19.0,1641.0,53.0,17.922,-0.3065,-0.9504999999999999,-0.08950000000000001,-3.859,9.723500000000001,-29.956,0,1,1,100.0,9.703040260540492,9.3905,0.31254026054049255
5,91.0,1,20.0,0.0,3,7,9.273950000000001,-0.16336500000000004,1.0752999999999995,10.18042,34.0,24.12995,0,19.0,1641.0,53.0,17.644800000000004,-0.30335,-0.9599499999999999,-0.08005000000000008,-3.777100000000001,10.167649999999997,-28.557400000000012,0,1,1,100.0,9.360125020154696,9.273950000000001,0.08617502015469469
5,92.0,1,20.0,0.0,3,7,9.157399999999999,-0.15738,1.1446000000000003,10.22704,34.0,24.139400000000002,0,19.0,1641.0,53.0,17.3676,-0.30019999999999997,-0.9694,-0.07059999999999997,-3.6952,10.611800000000002,-27.158799999999996,0,1,1,100.0,9.017209779768896,9.157399999999999,-0.14019022023110317
5,93.0,1,20.0,0.0,3,7,8.9199,-0.14697000000000005,1.11006,9.860660000000001,34.0,24.2875,0,19.0,1641.0,53.0,16.783600000000003,-0.29410000000000003,-0.9876999999999999,-0.05820000000000005,-3.5484000000000004,11.170999999999998,-24.15540000000001,0,1,1,100.0,8.420760715037712,8.9199,-0.499139284962288
5,94.0,1,20.0,0.0,3,7,8.316,-0.11958000000000008,1.3472900000000008,8.937940000000006,34.0,24.7085,0,19.0,1641.0,53.0,15.321000000000003,-0.27890000000000004,-1.0222,-0.027800000000000068,-3.3942999999999994,11.783700000000001,-16.465600000000016,0,1,1,100.0,6.851429314174388,8.316,-1.4645706858256125
5,95.0,1,20.0,0.0,3,7,8.19,-0.11265,1.265075,8.45095,34.0,24.81875,0,19.0,1641.0,53.0,15.0375,-0.27575000000000005,-1.0285,-0.021500000000000002,-3.43525,11.67975,-14.878,0,1,1,100.0,6.454369562148724,8.19,-1.7356304378512757
5,96.0,1,20.0,0.0,3,7,8.064,-0.10572000000000005,1.1828600000000005,7.963960000000004,34.0,24.929,0,19.0,1641.0,53.0,14.754000000000001,-0.27260000000000006,-1.0348,-0.015200000000000047,-3.4761999999999995,11.575800000000001,-13.290400000000012,0,1,1,100.0,6.0573098101230665,8.064,-2.0066901898769336
5,97.0,1,20.0,0.0,3,7,7.915999999999999,-0.09845999999999998,1.0954199999999996,7.375989999999996,34.0,25.058500000000002,0,19.0,1641.0,53.0,14.436399999999997,-0.2689,-1.0422,-0.008899999999999977,-3.5397000000000003,11.388799999999998,-11.46629999999999,0,1,1,100.0,5.641342450858084,7.915999999999999,-2.2746575491419145
5,98.0,1,20.0,0.0,3,7,7.664000000000001,-0.08964000000000003,0.9832800000000005,6.310660000000004,34.0,25.279,0,19.0,1641.0,53.0,13.957600000000001,-0.26260000000000006,-1.0548,-0.002600000000000023,-3.709799999999999,10.809200000000002,-8.524200000000011,0,1,1,100.0,5.135993675552701,7.664000000000001,-2.5280063244472997
5,99.0,1,20.0,0.0,3,7,7.419400000000002,-0.08082000000000009,0.8334000000000019,5.200930000000012,34.0,25.473599999999998,0,19.0,1641.0,53.0,13.530600000000005,-0.2563000000000001,-1.0637,0.0,-3.8983999999999974,10.01870000000001,-5.807800000000028,0,1,1,100.0,4.630644900247319,7.419400000000002,-2.7887550997526835
5,100.0,1,20.0,0.0,3,7,7.18,-0.072,0.657,4.06,34.0,25.65,0,19.0,1641.0,53.0,13.14,-0.25,-1.07,0.0,-4.1,9.08,-3.25,0,1,1,100.0,4.125296124941927,7.18,-3.054703875058073
6,0.0,1,20.0,0.0,0,1,6.82,-0.06,0.789,2.464,34.0,25.83,0,19.0,1641.0,53.0,12.67,-0.24,-1.08,0.0,-4.38,7.15,0.01,0,1,1,100.0,3.437746770784939,6.82,-3.382253229215061
6,1.0,1,20.0,0.0,0,1,6.596,-0.06,0.789,2.464,34.0,25.83,0,33.0,1641.0,53.0,12.432,-0.24,-1.08,0.0,-4.513,5.533,1.6480000000000004,0,1,1,100.0,3.437746770784939,6.596,-3.158253229215061
6,2.0,1,20.0,0.0,0,1,6.384,-0.06,0.789,2.464,34.0,25.83,0,47.0,1641.0,53.0,12.218,-0.236,-1.08,-0.004,-4.59,3.896,3.01,0,1,1,100.0,3.437746770784939,6.384,-2.946253229215061
6,3.0,1,20.0,0.0,0,1,6.185,-0.06,0.789,2.464,34.0,25.83,0,61.0,1641.0,53.0,12.024000000000001,-0.23,-1.08,-0.011,-4.612,2.268,4.128,0,1,1,100.0,3.437746770784939,6.185,-2.7472532292150604
6,4.0,1,20.0,0.0,0,1,6.01,-0.06,0.789,2.464,34.0,25.83,0,75.0,1641.0,53.0,11.841999999999999,-0.23,-1.08,-0.018000000000000002,-4.556,0.7839999999999998,5.024,0,1,1,100.0,3.437746770784939,6.01,-2.5722532292150606
6,5.0,1,20.0,0.0,0,1,5.859999999999999,-0.056999999999999995,0.01599999999999996,1.232,34.5,25.9,0,42.0,1641.0,53.0,11.665,-0.225,-1.08,-0.02,-4.46,-0.51,5.825,0,1,1,100.0,3.265859432245692,5.859999999999999,-2.5941405677543075
6,6.0,1,20.0,0.0,0,1,5.744,-0.0542,-0.6894,-0.0,35.0,25.962999999999997,0,5.0,1641.0,53.0,11.514,-0.219,-1.0790000000000002,-0.021,-4.359999999999999,-1.512,6.462,0,1,1,100.0,3.1054312496090617,5.744,-2.638568750390938
6,7.0,1,20.0,0.0,0,1,5.688,-0.0549,-0.4528,-0.0,35.0,25.938499999999998,0,5.0,1641.0,53.0,11.423,-0.2155,-1.0755000000000001,-0.0245,-4.29,-1.974,6.784,0,1,1,100.0,3.1455382952682194,5.688,-2.5424617047317803
6,8.0,1,20.0,0.0,0,1,5.632,-0.055600000000000004,-0.21619999999999995,-0.0,35.0,25.913999999999998,0,5.0,1641.0,53.0,11.331999999999999,-0.212,-1.072,-0.027999999999999997,-4.22,-2.436,7.106,0,1,1,100.0,3.1856453409273775,5.632,-2.446354659072622
6,9.0,1,20.0,0.0,0,1,5.466,-0.0563,-0.0174,-0.0,35.0,25.9,0,5.0,1641.0,53.0,10.955,-0.207,-1.0670000000000002,-0.033,-3.952,-3.7720000000000002,8.116,0,1,1,100.0,3.2257523865865347,5.466,-2.2402476134134655
6,10.0,1,20.0,0.0,0,1,5.41,-0.057,-0.023,-0.0,35.0,25.9,0,5.0,1641.0,53.0,10.78,-0.2,-1.06,-0.04,-3.84,-4.15,8.41,0,1,1,100.0,3.2658594322456924,5.41,-2.1441405677543077
6,11.0,1,20.0,0.0,0,1,5.389,-0.0563,0.008499999999999997,-0.0,35.0,25.9,0,5.0,1641.0,53.0,10.619,-0.2,-1.053,-0.04,-3.7560000000000002,-4.297000000000001,8.459,0,1,1,100.0,3.2257523865865347,5.389,-2.1632476134134655
6,12.0,1,20.0,0.0,0,1,5.3839999999999995,-0.056,0.0576,-0.0,35.0,25.9,0,5.0,1641.0,53.0,10.462,-0.196,-1.05,-0.044000000000000004,-3.688,-4.34,8.356,0,1,1,100.0,3.20856365273261,5.3839999999999995,-2.1754363472673894
6,13.0,1,20.0,0.0,0,1,5.3919999999999995,-0.056,0.106,-0.0,35.0,25.9,0,5.0,1641.0,53.0,10.319,-0.19,-1.0495,-0.05,-3.638,-4.298,8.1355,0,1,1,100.0,3.20856365273261,5.3919999999999995,-2.1834363472673894
6,14.0,1,20.0,0.0,0,1,5.406,-0.056,0.07100000000000001,-0.0,35.0,25.9,0,5.0,1641.0,53.0,10.241999999999999,-0.19,-1.046,-0.05,-3.624,-4.2139999999999995,7.894,0,1,1,100.0,3.20856365273261,5.406,-2.1974363472673897
6,15.0,1,20.0,0.0,0,1,5.42,-0.056,0.036,-0.0,35.0,25.9,0,5.0,1641.0,53.0,10.165,-0.19,-1.0425,-0.05,-3.6100000000000003,-4.13,7.6525,0,1,1,100.0,3.20856365273261,5.42,-2.21143634726739
6,16.0,1,20.0,0.0,0,1,5.444,-0.0558,0.0228,-0.0,35.0,25.9,0,5.0,1641.0,53.0,10.064,-0.188,-1.038,-0.052000000000000005,-3.6,-3.9920000000000004,7.284000000000001,0,1,1,100.0,3.1971044968299935,5.444,-2.2468955031700064
6,17.0,1,20.0,0.0,0,1,5.493,-0.0551,0.0641,-0.0,35.0,25.9,0,5.0,1641.0,53.0,9.903,-0.181,-1.0310000000000001,-0.059,-3.6,-3.7190000000000003,6.598,0,1,1,100.0,3.1569974511708363,5.493,-2.336002548829164
6,18.0,1,20.0,0.0,0,1,5.56,-0.0538,0.076,-0.0,35.0,25.9,0,5.0,1641.0,53.0,9.73,-0.17400000000000002,-1.03,-0.06,-3.606,-3.398,5.774,0,1,1,100.0,3.082512937803829,5.56,-2.4774870621961704
6,19.0,1,20.0,0.0,0,1,5.7589999999999995,-0.0498,0.1737,-0.0,35.0,25.9,0,5.0,1641.0,53.0,9.27,-0.167,-1.02,-0.063,-3.576,-2.531,3.508,0,1,1,100.0,2.8533298197514996,5.7589999999999995,-2.9056701802485
6,20.0,1,20.0,0.0,0,1,5.85,-0.047,0.236,-0.0,35.0,25.9,0,5.0,1641.0,53.0,9.06,-0.16,-1.02,-0.07,-3.52,-2.16,2.5,0,1,1,100.0,2.6929016371148693,5.85,-3.1570983628851303
6,21.0,1,20.0,0.0,0,1,5.948,-0.042800000000000005,0.4264,-0.0,35.0,25.921,0,5.0,1641.0,53.0,8.843,-0.16,-1.02,-0.07,-3.408,-1.817,1.422,0,1,1,100.0,2.4522593631599237,5.948,-3.4957406368400767
6,22.0,1,20.0,0.0,0,1,6.05,-0.0374,0.4988,-0.0,35.0,25.918,0,5.0,1641.0,53.0,8.626,-0.156,-1.02,-0.07400000000000001,-3.268,-1.494,0.30000000000000004,0,1,1,100.0,2.142862153789279,6.05,-3.9071378462107207
6,23.0,1,20.0,0.1,0,1,6.154999999999999,-0.0313,0.48219999999999996,-0.0,35.0,25.9,0,5.1,1641.0,53.0,8.408999999999999,-0.15,-1.02,-0.08,-3.101,-1.189,-0.864,0,1,1,100.0,1.7933578987594767,6.154999999999999,-4.361642101240522
6,24.0,1,20.0,0.8,0,1,6.26,-0.0264,0.4626,-0.0,35.0,25.9,0,5.8,1641.0,53.0,8.192,-0.15,-1.02,-0.08,-2.8979999999999997,-0.9019999999999999,-2.082,0,1,1,100.0,1.5126085791453734,6.26,-4.747391420854626
6,25.0,1,20.0,1.0,0,1,6.327500000000001,-0.02325,0.50075,-0.0,35.0,25.9075,0,6.0,1641.0,53.0,8.055,-0.1475,-1.02,-0.08,-2.7525,-0.7274999999999999,-2.89,0,1,1,100.0,1.332126873679164,6.327500000000001,-4.995373126320836
6,26.0,1,20.0,1.0,0,1,6.38,-0.0208,0.562,-0.0,35.0,25.918,0,6.0,1641.0,53.0,7.95,-0.14400000000000002,-1.02,-0.08,-2.63,-0.598,-3.534,0,1,1,100.0,1.1917522138721122,6.38,-5.188247786127888
6,27.0,1,20.0,1.0,0,1,6.4325,-0.018349999999999998,0.62325,-0.0,35.0,25.9285,0,6.0,1641.0,53.0,7.845,-0.1405,-1.02,-0.08,-2.5075000000000003,-0.4685,-4.178,0,1,1,100.0,1.0513775540650605,6.4325,-5.38112244593494
6,28.0,1,20.0,1.0,0,1,6.524,-0.010799999999999999,0.5636,-0.0,35.0,25.912,0,6.0,1641.0,53.0,7.65,-0.134,-1.02,-0.086,-2.262,-0.258,-5.434,0,1,1,100.0,0.618794418741289,6.524,-5.905205581258711
6,29.0,1,20.0,1.0,0,1,6.74,0.0044,0.516,-0.0,35.0,25.921,0,6.0,1641.0,53.0,7.1370000000000005,-0.127,-1.017,-0.09,-1.587,0.232,-8.758000000000001,0,1,1,100.0,-0.25210142985756223,6.74,-6.992101429857563
6,30.0,1,20.0,1.0,6,2,6.81,0.01,0.747,-0.0,35.0,25.9,0,6.0,1641.0,53.0,6.92,-0.12,-1.01,-0.09,-1.3,0.4,-10.13,0,1,1,100.0,-0.5729577951308232,6.81,-7.382957795130823
6,31.0,1,20.0,0.29999999999999993,6,2,6.873,0.0135,1.0746,0.14279999999999998,35.0,25.9,0,13.700000000000001,1641.0,53.0,6.661,-0.12,-1.01,-0.09,-0.992,0.5890000000000001,-11.369,0,1,1,100.0,-0.7734930234266113,6.873,-7.646493023426611
6,32.0,1,20.0,0.0,6,2,6.928,0.0146,0.7034,0.5976,35.0,25.884,0,17.0,1641.0,53.0,6.37,-0.11599999999999999,-1.01,-0.09,-0.6839999999999999,0.802,-12.416,0,1,1,100.0,-0.836518380891002,6.928,-7.764518380891002
6,33.0,1,20.0,0.1,6,2,6.974,0.0137,-0.0824,1.1622,35.0,25.86,0,17.1,1641.0,53.0,6.045999999999999,-0.109,-1.0110000000000001,-0.09,-0.371,1.028,-13.237,0,1,1,100.0,-0.7849521793292279,6.974,-7.758952179329228
6,34.0,1,20.0,0.8,6,2,7.002,0.0116,-0.2112,0.9816,35.0,25.86,0,17.8,1641.0,53.0,5.667999999999999,-0.10200000000000001,-1.018,-0.09,-0.02799999999999997,1.224,-13.566,0,1,1,100.0,-0.6646310423517549,7.002,-7.666631042351755
6,35.0,1,20.0,0.5,6,2,7.015,0.0075,-0.323,0.47550000000000003,35.0,25.88,0,17.5,1641.0,53.0,5.234999999999999,-0.095,-1.02,-0.095,0.37500000000000006,1.365,-13.360000000000001,0,1,1,100.0,-0.4297183463481174,7.015,-7.444718346348117
6,36.0,1,20.0,0.2,6,2,7.018,0.003,-0.402,-0.1496,35.0,25.9,0,17.2,1641.0,53.0,4.7700000000000005,-0.088,-1.02,-0.1,0.8340000000000001,1.448,-12.704,0,1,1,100.0,-0.17188733853924698,7.018,-7.189887338539247
6,37.0,1,20.0,0.9,6,2,7.011,-0.0005,-0.416,-0.7467,35.0,25.9,0,17.9,1641.0,53.0,4.28,-0.081,-1.02,-0.1,1.373,1.4409999999999998,-11.458,0,1,1,100.0,0.028647889756541162,7.011,-6.982352110243459
6,38.0,1,20.0,1.0,6,2,6.9799999999999995,-0.0058000000000000005,-0.3916,-1.3599999999999999,35.0,25.875999999999998,0,18.0,1641.0,53.0,3.796,-0.068,-1.026,-0.1,2.0140000000000002,1.308,-9.540000000000001,0,1,1,100.0,0.3323155211758775,6.9799999999999995,-6.647684478824122
6,39.0,1,20.0,1.0,6,2,6.939,-0.0114,-0.407,-1.9390999999999998,35.0,25.839,0,18.0,1641.0,53.0,3.331,-0.057,-1.03,-0.1,2.714,1.097,-7.234,0,1,1,100.0,0.6531718864491385,6.939,-6.285828113550862
6,40.0,1,20.0,1.0,6,2,6.89,-0.017,-0.484,-2.469,35.0,25.79,0,18.0,1641.0,53.0,2.89,-0.05,-1.03,-0.1,3.47,0.81,-4.56,0,1,1,100.0,0.9740282517223996,6.89,-5.9159717482776
6,41.0,1,20.0,1.0,6,2,6.858499999999999,-0.0191,-0.41364999999999996,-2.62125,35.0,25.7795,0,18.0,1641.0,53.0,2.7115,-0.0465,-1.03,-0.1,3.869,0.6175,-3.0025,0,1,1,100.0,1.0943493886998723,6.858499999999999,-5.764150611300127
6,42.0,1,20.0,1.0,6,2,6.827,-0.0212,-0.3433,-2.7735,35.0,25.769000000000002,0,18.0,1641.0,53.0,2.533,-0.043000000000000003,-1.03,-0.1,4.268000000000001,0.425,-1.4449999999999998,0,1,1,100.0,1.2146705256773453,6.827,-5.612329474322655
6,43.0,1,20.0,1.0,6,2,6.688000000000001,-0.026,-0.1447,-3.1,35.0,25.72,0,18.0,1641.0,53.0,1.9849999999999999,-0.039,-1.04,-0.1,5.833,-0.486,5.1530000000000005,0,1,1,100.0,1.4896902673401404,6.688000000000001,-5.19830973265986
6,44.0,1,20.0,1.0,6,2,6.604,-0.026,-0.0726,-3.065,35.0,25.72,0,18.0,1641.0,53.0,1.81,-0.032,-1.04,-0.1,6.554,-1.018,8.604,0,1,1,100.0,1.4896902673401404,6.604,-5.114309732659859
6,45.0,1,20.0,1.0,6,2,6.52,-0.025,0.0635,-2.8925,35.0,25.74,0,18.0,1641.0,53.0,1.675,-0.03,-1.045,-0.1,7.215,-1.575,12.075,0,1,1,100.0,1.4323944878270582,6.52,-5.087605512172941
6,46.0,1,20.0,1.0,6,2,6.436,-0.0236,0.17179999999999998,-2.6772,35.0,25.76,0,18.0,1641.0,53.0,1.566,-0.03,-1.052,-0.1,7.818,-2.15,15.556000000000001,0,1,1,100.0,1.3521803965087429,6.436,-5.083819603491257
6,47.0,1,20.0,1.0,6,2,6.352,-0.022199999999999998,0.14659999999999998,-2.4924,35.0,25.76,0,18.0,1641.0,53.0,1.482,-0.03,-1.0590000000000002,-0.1,8.336,-2.745,19.041999999999998,0,1,1,100.0,1.2719663051904275,6.352,-5.080033694809573
6,48.0,1,20.0,1.0,6,2,6.274,-0.0202,0.1964,-2.2104,35.0,25.802,0,18.0,1641.0,53.0,1.4100000000000001,-0.03,-1.066,-0.1,8.734,-3.346,22.564,0,1,1,100.0,1.157374746164263,6.274,-5.116625253835737
6,49.0,1,20.0,1.0,6,2,6.206,-0.0178,0.2326,-1.8981,35.0,25.83,0,18.0,1641.0,53.0,1.343,-0.027,-1.076,-0.097,9.030999999999999,-3.948,26.154999999999998,0,1,1,100.0,1.0198648753328654,6.206,-5.186135124667135
6,50.0,1,20.0,1.0,6,2,6.15,-0.015,0.234,-1.567,35.0,25.83,0,18.0,1641.0,53.0,1.28,-0.02,-1.09,-0.09,9.22,-4.55,29.83,0,1,1,100.0,0.8594366926962348,6.15,-5.290563307303765
6,51.0,1,20.0,1.0,6,2,6.1325,-0.0136,0.2333,-1.40845,35.0,25.8405,0,18.0,1641.0,53.0,1.252,-0.02,-1.0935000000000001,-0.09,9.2095,-4.8545,31.776,0,1,1,100.0,0.7792226013779195,6.1325,-5.3532773986220805
6,52.0,1,20.0,1.0,6,2,6.115,-0.012199999999999999,0.2326,-1.2499,35.0,25.851,0,18.0,1641.0,53.0,1.224,-0.02,-1.097,-0.09,9.199,-5.159,33.722,0,1,1,100.0,0.6990085100596043,6.115,-5.415991489940396
6,53.0,1,20.0,1.0,6,2,6.083,-0.0057,0.3129,-0.501,35.0,25.9,0,18.0,1641.0,53.0,1.176,-0.02,-1.122,-0.09,8.771,-6.359999999999999,41.968,0,1,1,100.0,0.32658594322456924,6.083,-5.756414056775431
