gait_percent,walk_dt_ms_mean,walk_dt_ms_sd,walk_exec_ms_mean,walk_exec_ms_sd,walk_tilt_forward_deg_mean,walk_tilt_forward_deg_sd,walk_pos_rad_mean,walk_pos_rad_sd,walk_vel_rad_s_mean,walk_vel_rad_s_sd,walk_tq_nm_mean,walk_tq_nm_sd,walk_temp_c_mean,walk_temp_c_sd,walk_vbus_v_mean,walk_vbus_v_sd,walk_fb_age_ms_mean,walk_fb_age_ms_sd,walk_typical_stride_ms_mean,walk_typical_stride_ms_sd,walk_effective_step_count_mean,walk_effective_step_count_sd,walk_tilt_accel_deg_mean,walk_tilt_accel_deg_sd,walk_acc_x_mean,walk_acc_x_sd,walk_acc_y_mean,walk_acc_y_sd,walk_acc_z_mean,walk_acc_z_sd,walk_gyr_x_mean,walk_gyr_x_sd,walk_gyr_y_mean,walk_gyr_y_sd,walk_gyr_z_mean,walk_gyr_z_sd,cfg_assist_pct_mean,cfg_assist_pct_sd,ankle_joint_angle_deg_mean,ankle_joint_angle_deg_sd,leg_tilt_angle_deg_mean,leg_tilt_angle_deg_sd,foot_tilt_angle_deg_mean,foot_tilt_angle_deg_sd
0.0,20.0,0.0,0.0,0.0,0.2876923076923077,2.900279031668929,-0.003846153846153846,0.053397896818277266,-0.4755769230769232,0.410133751166804,0.7782692307692307,0.5680246866249605,38.30769230769231,1.892495300268527,26.82884615384615,0.02581889588296518,17.23076923076923,6.179370144651911,1634.5,483.9881196889031,14.346153846153847,8.480293899116033,8.946153846153846,4.137687351091745,-0.17115384615384613,0.07936381659557071,-1.0796153846153846,0.024245538844211195,-0.11423076923076922,0.02369355641064919,-7.505769230769231,1.7904416730559487,-0.593076923076923,6.714896734414175,-0.030769230769230736,2.390618201347799,100.0,0.0,0.22036838274262444,3.059474122562334,0.2876923076923077,2.900279031668929,-0.06732392494968337,2.1965011823970935
1.0,20.0,0.0,0.0,0.0,-0.5732871794871794,2.9881234194847948,-0.008090064102564104,0.049611037778302634,-0.40282153846153845,0.3360735168494216,0.5671388461538461,0.46376298531320426,38.30769230769231,1.892495300268527,26.82677692307692,0.022334069180376986,19.588461538461537,9.726184325749822,1634.5,483.9881196889031,14.346153846153847,8.480293899116033,8.090702564102564,3.9909510608839764,-0.15288589743589742,0.07617808283406392,-1.0736557692307693,0.022336549988407246,-0.11641089743589744,0.02328798018163385,-7.245110897435898,1.7982198149339086,-1.6628916666666667,6.363425737829602,3.647400641025641,3.1326927406110787,100.0,0.0,0.46352652906721503,2.842503081960825,-0.5732871794871794,2.9881234194847948,1.0368137085543945,2.102639294923727
2.0,20.0,0.0,0.0,0.0,-1.3829666666666667,3.092928452727106,-0.011273974358974361,0.04571352745104116,-0.3717946153846154,0.30282234188686635,0.5167615384615384,0.450411558605614,38.30769230769231,1.892495300268527,26.825876923076923,0.020972750085619763,28.830769230769228,16.24351610288288,1634.5,483.9881196889031,14.346153846153847,8.480293899116033,7.30059358974359,3.8355571287973764,-0.13773333333333332,0.07298942450032668,-1.0690807692307693,0.020507579461862796,-0.11844102564102564,0.023925769106769114,-7.042452564102563,1.7962324932956037,-2.563287179487179,6.078880771370678,6.93665512820513,4.247095803528621,100.0,0.0,0.6459511491079385,2.6191921896000907,-1.3829666666666667,3.092928452727106,2.0289178157746055,2.1400775059068824
3.0,20.0,0.0,0.0,0.0,-2.290148076923077,3.197386833102331,-0.015397307692307693,0.03980307471115188,-0.3823046153846154,0.32518691572977865,0.510636923076923,0.4516252785730155,38.30769230769231,1.892495300268527,26.828061538461533,0.023663695010257262,42.334615384615375,24.517845620000013,1634.5,483.9881196889031,14.346153846153847,8.480293899116033,6.426930769230769,3.7344780697729885,-0.1191346153846154,0.07038321357998763,-1.0630384615384616,0.017340330491039155,-0.12135576923076924,0.022891283611554323,-6.887994230769231,1.781080573715121,-3.3158307692307694,5.569185967770819,10.598967307692307,5.127876732585181,100.0,0.0,0.8822007466335479,2.280548192592901,-2.290148076923077,3.197386833102331,3.1723488235566246,2.0428868775651354
4.0,20.0,0.0,0.0,0.0,-2.993007692307692,3.323987437993481,-0.01884461538461539,0.0359272016422954,-0.4382807692307692,0.3465891989768069,0.48944769230769225,0.43381837630333453,38.30769230769231,1.892495300268527,26.82681538461538,0.02097876435460792,54.22615384615385,29.02404617925255,1634.5,483.9881196889031,14.346153846153847,8.480293899116033,5.805046153846154,3.6278292728551347,-0.10755384615384617,0.06815608692270547,-1.058446153846154,0.01517980845120863,-0.1239230769230769,0.022700278547935184,-6.73933076923077,1.6415279213633205,-3.748953846153846,5.325800775337416,13.366815384615384,5.641743928658394,100.0,0.0,1.079716928085762,2.058477023819007,-2.993007692307692,3.323987437993481,4.072724620393454,2.2472238477890243
5.0,20.0,0.0,0.0,0.0,-3.5733269230769236,3.3203319975337036,-0.02901153846153846,0.036000675153925396,-2.227271153846154,1.7564495530998365,0.2588471153846154,0.29307426877217685,38.30769230769231,1.892495300268527,26.836298076923075,0.02036369554265257,39.15,24.867042445775493,1634.5,483.9881196889031,14.346153846153847,8.480293899116033,5.2162788461538465,3.430663043295657,-0.09593269230769232,0.06348435073670942,-1.0536153846153848,0.013903638151439145,-0.1268173076923077,0.02364694036152539,-6.655778846153846,1.5770396290628257,-4.102317307692308,5.138890975958574,15.580903846153843,5.914270632578849,100.0,0.0,1.662238711027615,2.0626867459414107,-3.5733269230769236,3.3203319975337036,5.235565634104538,2.3334441082304966
6.0,20.0,0.0,0.0,0.0,-4.050144871794871,3.360037424724675,-0.04419294871794872,0.038087252662822896,-3.697884487179487,3.402613497878481,0.017084999999999993,0.0871167483897327,38.33615384615385,1.8807659650750317,26.85269871794872,0.01648236358662477,13.213076923076924,7.333892701277142,1634.5,483.9881196889031,14.346153846153847,8.480293899116033,4.750298717948718,3.3452588489048303,-0.08686025641025642,0.061737027261139936,-1.0477076923076925,0.012764667581317524,-0.12941538461538465,0.02340002892831874,-6.618023076923077,1.5697602110660576,-4.132211538461539,4.885195321812787,17.573228205128206,6.145273140803732,100.0,0.0,2.5320694457765436,2.182238830828158,-4.050144871794871,3.360037424724675,6.582214317571415,2.283050614420542
7.0,20.0,0.0,0.0,0.0,-4.465222435897436,3.5869345221634044,-0.05245955128205128,0.03423262000736105,-1.3475964743589743,1.7439391501406192,0.0031824999999999866,0.016227629602008967,38.38461538461539,1.8778055932800515,26.85388782051282,0.015560119649419933,12.041153846153843,2.9219723844322347,1634.5,483.9881196889031,14.346153846153847,8.480293899116033,4.349945512820513,3.384740187989349,-0.07937628205128203,0.06308846085248111,-1.0421346153846154,0.009412669857492822,-0.13257884615384616,0.022899808615256693,-6.569309615384616,1.5228538609478737,-4.176969230769231,4.621901290250083,19.310448717948717,6.928041370106662,100.0,0.0,3.0057108836116457,1.9613846480968895,-4.465222435897436,3.5869345221634044,7.470933319509081,2.608065770981758
8.0,20.0,0.0,0.0,0.0,-4.783023076923078,3.6030504251045605,-0.05941230769230769,0.03294787159228253,-0.7036707692307692,0.8438285364452808,0.0,0.0,38.42307692307692,1.8148956316676046,26.84881538461539,0.014981366888443383,11.692307692307692,2.4782127555031392,1634.5,483.9881196889031,14.346153846153847,8.480293899116033,4.001761538461539,3.2381427486850445,-0.07289999999999999,0.05916180524629045,-1.0379,0.00861798120211458,-0.1355230769230769,0.0232548370485335,-6.484876923076921,1.5312348074172537,-4.155676923076923,4.408330870005807,20.773630769230767,7.054415510006154,100.0,0.0,3.4040744819018673,1.8877739861767688,-4.783023076923078,3.6030504251045605,8.187097558824943,2.6041146074760855
9.0,20.0,0.0,0.0,0.0,-5.014666025641025,3.6366158428788364,-0.06602141025641027,0.031142745870845565,-0.514215064102564,0.3127102371719014,0.0,0.0,38.42307692307692,1.8148956316676046,26.84948717948718,0.016693096582248296,11.496153846153845,2.42589872323323,1634.5,483.9881196889031,14.346153846153847,8.480293899116033,3.746239102564103,3.142745903848142,-0.06732948717948718,0.05763252270640487,-1.0359384615384617,0.00806986130850224,-0.1390846153846154,0.022592825273660525,-6.378471153846153,1.620465712576053,-3.9503115384615386,4.163940749465767,22.082255128205126,7.137469581568603,100.0,0.0,3.7827481651940342,1.7843479008479228,-5.014666025641025,3.6366158428788364,8.79741419083506,2.631140650690119
10.0,20.0,0.0,0.0,0.0,-5.197269230769231,3.6533543907777934,-0.07266730769230768,0.030540942822079652,-0.4338980769230769,0.1947178268576194,0.0,0.0,38.43846153846154,1.821664496679215,26.855,0.016348700254148182,11.307692307692308,2.478212755503139,1634.5,483.9881196889031,14.346153846153847,8.480293899116033,3.5038846153846155,3.0212737059316304,-0.06259615384615386,0.05528544459996124,-1.0318846153846155,0.006448732731797298,-0.1430576923076923,0.022223558186337724,-6.172096153846153,1.6966367202157966,-3.7655769230769236,3.92536968116968,23.306057692307686,6.952032158048354,100.0,0.0,4.163530039347773,1.7498671260555299,-5.197269230769231,3.6533543907777934,9.360799270117003,2.6946136341955413
11.0,20.0,0.0,0.0,0.0,-5.271965384615385,3.6556282394896016,-0.07766865384615386,0.02996405428368105,-0.3632657692307693,0.20191440642357497,0.0,0.0,38.46153846153846,1.838059177083681,26.85143076923077,0.014768365359260604,11.294230769230769,2.486536825509605,1634.5,483.9881196889031,14.346153846153847,8.480293899116033,3.3756173076923073,2.917907333893327,-0.06124423076923077,0.052353686263572834,-1.027548076923077,0.005944164882794424,-0.14673269230769231,0.021843282456204663,-5.905767307692306,1.7536560734044921,-3.6043153846153837,3.645230488371599,24.197751923076922,6.750554390366479,100.0,0.0,4.450086065847144,1.7168138475558192,-5.271965384615385,3.6556282394896016,9.722051450462528,2.7055036111513595
12.0,20.0,0.0,0.0,0.0,-5.278992307692308,3.652449144990038,-0.08250307692307692,0.028778501249263247,-0.33289076923076927,0.14523399163895698,0.0,0.0,38.46153846153846,1.838059177083681,26.851846153846154,0.016235103467960185,11.26923076923077,2.5069135175780164,1634.5,483.9881196889031,14.346153846153847,8.480293899116033,3.3198692307692306,2.815628287365963,-0.06033846153846155,0.050590078686818245,-1.0259076923076924,0.005586621381616853,-0.15063076923076923,0.021458252850234928,-5.581723076923077,1.8559826922269922,-3.396807692307692,3.360484531959411,24.93650769230769,6.636254628081902,100.0,0.0,4.727078104535486,1.6488866622947513,-5.278992307692308,3.652449144990038,10.006070412227793,2.693843960151853
13.0,20.0,0.0,0.0,0.0,-5.226738461538461,3.620165263970906,-0.08676471153846153,0.029126831052544346,-0.3216657692307692,0.11053204118889969,0.0,0.0,38.48346153846153,1.8604062831708397,26.856234615384615,0.017138890099599388,11.26923076923077,2.5069135175780164,1634.5,483.9881196889031,14.346153846153847,8.480293899116033,3.31388076923077,2.716974164326077,-0.060018269230769236,0.04890274100584358,-1.0246192307692308,0.0054536607324452676,-0.1537394230769231,0.02147594488384262,-5.178015384615384,1.9535916946367902,-3.2489307692307694,3.1274574651968305,25.476829807692305,6.3744468671015655,100.0,0.0,4.971251781823882,1.6688444899013803,-5.226738461538461,3.620165263970906,10.197990243362343,2.660551225142483
14.0,20.0,0.0,0.0,0.0,-5.111444871794872,3.5740992422078075,-0.09087506410256412,0.0290046602021153,-0.32538487179487174,0.1134582146684879,0.0,0.0,38.5,1.8814887722226779,26.854469230769233,0.014974639073600639,11.26923076923077,2.5069135175780164,1634.5,483.9881196889031,14.346153846153847,8.480293899116033,3.3644769230769236,2.637749494596891,-0.06059807692307692,0.04665163765779125,-1.0213307692307694,0.0045261700569703975,-0.15634038461538463,0.022216273401409015,-4.716646153846154,2.0447327688929464,-3.0989358974358967,2.883482326523078,25.83889294871795,6.084803660099428,100.0,0.0,5.206757636057735,1.6618446157922722,-5.111444871794872,3.5740992422078075,10.318202507852607,2.6374107360586247
15.0,20.0,0.0,0.0,0.0,-4.964320512820513,3.5441995886622273,-0.09497772435897435,0.02874841737050512,-0.33751378205128213,0.1223966686171171,0.0,0.0,38.5,1.8814887722226779,26.849307692307693,0.015387057498480199,11.26923076923077,2.5069135175780164,1634.5,483.9881196889031,14.346153846153847,8.480293899116033,3.4763942307692304,2.547549796542824,-0.06189903846153847,0.045618993018680956,-1.0200480769230769,0.004026176368944377,-0.1595528846153846,0.019639315577335018,-4.294221153846154,2.0941533328853015,-2.999967948717949,2.696550943342761,26.03014262820513,5.850440220594196,100.0,0.0,5.441822753526103,1.6471629830105277,-4.964320512820513,3.5441995886622273,10.406143266346614,2.6128149772668
16.0,20.0,0.0,0.0,0.0,-4.792430769230769,3.5131012786732163,-0.09896115384615387,0.028552069252777187,-0.352,0.11617536895573007,0.0,0.0,38.5,1.8814887722226779,26.85283846153846,0.016405074261899938,10.99846153846154,2.4314599602834384,1634.5,483.9881196889031,14.346153846153847,8.480293899116033,3.5966230769230774,2.48961917944214,-0.06401153846153847,0.04428963153536573,-1.0184538461538462,0.004875262517586588,-0.16231153846153848,0.020193272680238374,-3.836507692307692,2.161378110914067,-2.8957923076923078,2.502148485110039,26.16781923076923,5.609054728776979,100.0,0.0,5.67005645112945,1.635913064549379,-4.792430769230769,3.5131012786732163,10.462487220360218,2.589997096503905
17.0,20.0,0.0,0.0,0.0,-4.531751282051282,3.441505065952405,-0.10411769230769231,0.028749858894637007,-0.3650613461538461,0.11822360296960745,0.0,0.0,38.5,1.8814887722226779,26.851476923076923,0.014606417978198496,10.656923076923077,2.363270224465699,1634.5,483.9881196889031,14.346153846153847,8.480293899116033,3.78256858974359,2.4227056175107977,-0.06693076923076924,0.042313610285398894,-1.0162788461538463,0.004492308383825023,-0.16474615384615385,0.02018298750471259,-3.222125,2.2658666657263837,-2.800180128205128,2.3150082993228684,26.280510256410253,5.208490243573632,100.0,0.0,5.965504341872485,1.6472455762593505,-4.531751282051282,3.441505065952405,10.497255623923767,2.521063809099889
18.0,20.0,0.0,0.0,0.0,-4.217933333333333,3.3365772145452026,-0.10913423076923075,0.02833729135581973,-0.3967076923076923,0.10686667159812523,0.0,0.0,38.5,1.8814887722226779,26.85089230769231,0.014721872790563311,10.547692307692309,2.3645588302130407,1634.5,483.9881196889031,14.346153846153847,8.480293899116033,4.046514102564102,2.294153997353042,-0.07119615384615384,0.041076401797326224,-1.0139076923076922,0.0043333980271305,-0.16653846153846155,0.018764798467834964,-2.636457692307692,2.191903351003064,-2.7826641025641026,2.0984614080251607,26.157016666666664,4.80632738707587,100.0,0.0,6.25293082348369,1.623607197521021,-4.217933333333333,3.3365772145452026,10.470864156817024,2.4702937846998845
19.0,20.0,0.0,0.0,0.0,-3.9374576923076927,3.246405325577578,-0.11354730769230771,0.028151008551409635,-0.4240196153846153,0.12453100810579733,0.0,0.0,38.5,1.8814887722226779,26.850919230769232,0.017435825629565294,10.538461538461538,2.3703294156006116,1634.5,483.9881196889031,14.346153846153847,8.480293899116033,4.278942307692308,2.2282005993039453,-0.07573269230769232,0.04002092438289674,-1.0121846153846155,0.004012051077211488,-0.16708076923076925,0.018498692261471224,-2.132109615384615,2.1680784716434616,-2.7598923076923074,1.9500107229290975,26.065590384615383,4.5760990367346555,100.0,0.0,6.505781505842577,1.6129339790324617,-3.9374576923076927,3.246405325577578,10.44323919815027,2.43819545496907
20.0,20.0,0.0,0.0,0.0,-3.582935897435898,3.2104624215478585,-0.11930769230769231,0.02889902314026442,-0.45598076923076925,0.13216566276981556,0.0,0.0,38.5,1.8814887722226779,26.855461538461537,0.01784876638702118,10.538461538461538,2.3703294156006116,1634.5,483.9881196889031,14.346153846153847,8.480293899116033,4.594782051282052,2.2122597816959475,-0.07992307692307692,0.03917644504231907,-1.0113846153846153,0.0044097793421160976,-0.169,0.018549393521083105,-1.5184615384615385,2.225186414317133,-2.7310128205128206,1.7941148470132855,25.98279487179487,4.347062493303238,100.0,0.0,6.8358272326762055,1.6557920579880543,-3.582935897435898,3.2104624215478585,10.418763130112104,2.398838206364044
21.0,20.0,0.0,0.0,0.0,-3.084838461538462,3.086201648379694,-0.12678096153846155,0.02857373136358746,-0.4578671153846154,0.12290683515714718,0.0,0.0,38.5,1.8814887722226779,26.856707692307694,0.01498983450414051,10.135384615384615,2.0709364659867875,1634.5,483.9881196889031,14.346153846153847,8.480293899116033,5.030375,2.1388010489641154,-0.08854038461538463,0.03802926246781752,-1.0091307692307692,0.004311544431478749,-0.17040384615384616,0.01809586650634295,-0.7849461538461538,2.0815527472021014,-2.7571326923076924,1.5663158369206582,25.768773076923075,4.002306073608833,100.0,0.0,7.264014018764263,1.637154212074152,-3.084838461538462,3.086201648379694,10.348852480302725,2.3566235657729426
22.0,20.0,0.0,0.0,0.0,-2.7122038461538462,2.9859754755162697,-0.132655,0.028378667798189545,-0.4690069230769232,0.12865330878820747,-0.0003230769230769244,0.0016473755351607525,38.5,1.8814887722226779,26.85370769230769,0.016068874834957603,10.096923076923076,2.0886948445970166,1634.5,483.9881196889031,14.346153846153847,8.480293899116033,5.349796153846153,2.0758849113533766,-0.09446153846153847,0.03675400470069162,-1.0065384615384614,0.005217208213063922,-0.17116153846153848,0.017530409622666023,-0.2875192307692307,2.0434840110006696,-2.763330769230769,1.42970336049664,25.654976923076923,3.799983394417159,100.0,0.0,7.600571631307935,1.6259778930400774,-2.7122038461538462,2.9859754755162697,10.312775477461782,2.3153651452871187
23.0,20.0,0.0,0.0,0.0,-2.3610057692307693,2.9226577644783154,-0.1382330769230769,0.02849852350831261,-0.4965888461538461,0.12239608113258928,-0.0008884615384615388,0.004530282721692053,38.521153846153844,1.8551643095382726,26.85265,0.018286240729028676,10.266538461538461,2.3691161935332636,1634.5,483.9881196889031,14.346153846153847,8.480293899116033,5.6554769230769235,2.0436887494053866,-0.10065576923076923,0.03634668162823967,-1.0042115384615384,0.005403523067264686,-0.17175,0.0174541055342289,0.16049807692307708,2.0406847239826518,-2.761915384615385,1.3018004251627229,25.60578269230769,3.6079377818621627,100.0,0.0,7.920171896799564,1.6328451193806723,-2.3610057692307693,2.9226577644783154,10.281177666030333,2.274811257839467
24.0,20.0,0.0,0.0,0.0,-1.9310615384615382,2.91175885362465,-0.14399076923076926,0.029020262841411612,-0.4831807692307692,0.1899875305786793,-0.06597230769230772,0.33639408427982437,38.53846153846154,1.838059177083681,26.849884615384614,0.02585857988842655,10.0,2.078460969082653,1634.5,483.9881196889031,14.346153846153847,8.480293899116033,6.0226538461538475,2.027898950979712,-0.10564615384615385,0.03576265348957463,-1.0027692307692306,0.004484173879837336,-0.1726923076923077,0.01662713259890407,0.675346153846154,1.8660003889025893,-2.7637846153846155,1.1401882524188038,25.52021538461539,3.5070400624677562,100.0,0.0,8.250063365765273,1.6627385811732158,-1.9310615384615382,2.91175885362465,10.18112490422681,2.36891625794479
25.0,20.0,0.0,0.0,0.0,-1.4280769230769228,2.8268810823673065,-0.15163942307692307,0.029777808996866214,-0.49616346153846147,0.18521268439698832,-0.0763269230769231,0.3891924701817263,38.53846153846154,1.838059177083681,26.848221153846154,0.028377308445576465,10.0,2.078460969082651,1634.5,483.9881196889031,14.346153846153847,8.480293899116033,6.441634615384615,2.0384789295339423,-0.11317307692307692,0.03627194296083194,-1.0017307692307693,0.003519178225753194,-0.17240384615384616,0.016740381853929873,1.2009134615384616,1.8350153118466173,-2.7814903846153842,1.0115153248487372,25.55081730769231,3.416035877708028,100.0,0.0,8.688298950106393,1.7061427786671257,-1.4280769230769228,2.8268810823673065,10.116375873183314,2.377903282371992
26.0,20.0,0.0,0.0,0.0,-1.0038692307692307,2.749269366034435,-0.15740884615384618,0.03017901182304326,-0.46473846153846154,0.1618619120532636,-0.08524076923076923,0.42057898836649543,38.53846153846154,1.838059177083681,26.847930769230768,0.027687683460062413,10.01153846153846,2.0302841028933694,1634.5,483.9881196889031,14.346153846153847,8.480293899116033,6.78945,1.9807894473163978,-0.11928846153846152,0.035326945261916744,-1.0010076923076923,0.0029456304013807475,-0.1720692307692308,0.01688444892155546,1.6025846153846155,1.8020549036457922,-2.8198269230769233,0.8814214213678686,25.618761538461534,3.277627686370363,100.0,0.0,9.018862542639466,1.7291300073357911,-1.0038692307692307,2.749269366034435,10.022731773408697,2.3763213236938365
27.0,20.0,0.0,0.0,0.0,-0.5417192307692308,2.764990578974074,-0.16307903846153848,0.03139299922018381,-0.4508409615384616,0.1556594298397576,-0.1263684615384614,0.489002872079028,38.53846153846154,1.838059177083681,26.846196153846158,0.027747842882202094,10.058846153846153,2.240989650887442,1634.5,483.9881196889031,14.346153846153847,8.480293899116033,7.162674999999999,1.9794055430482156,-0.12598846153846155,0.034807580518307527,-1.0000653846153846,0.003957670254853722,-0.17230769230769233,0.016076739049370004,2.031853846153846,1.691009862651491,-2.872588461538461,0.7451485881765719,25.707419230769233,3.362217472355914,100.0,0.0,9.34374063089778,1.7986863615740172,-0.5417192307692308,2.764990578974074,9.885459861667012,2.495464494370411
28.0,20.0,0.0,0.0,0.0,-0.029038461538461482,2.626079709388414,-0.16956384615384612,0.03181452449142348,-0.45483461538461545,0.21291986222484305,-0.16682307692307688,0.5923501021171126,38.53846153846154,1.838059177083681,26.841846153846156,0.030382116197121348,9.76923076923077,1.817860111398945,1634.5,483.9881196889031,14.346153846153847,8.480293899116033,7.564376923076924,1.9065463270128409,-0.13304615384615384,0.03406160572573443,-0.9995846153846154,0.004052030829862219,-0.17197692307692308,0.016074658508156436,2.4695615384615386,1.6730229397296195,-2.933646153846154,0.6600549948183223,25.897,3.466614946947527,100.0,0.0,9.715292742620981,1.8228379805741575,-0.029038461538461482,2.626079709388414,9.744331204159442,2.5690776814557053
29.0,20.0,0.0,0.0,0.0,0.38350576923076934,2.5565391275443807,-0.17499846153846152,0.032982065665122635,-0.473628782051282,0.19571444452544046,-0.1826911538461538,0.6437253172733035,38.53846153846154,1.838059177083681,26.84325384615385,0.03363933686349036,9.803846153846154,1.8111832086745436,1634.5,483.9881196889031,14.346153846153847,8.480293899116033,7.887096153846154,1.870944822645664,-0.1382326923076923,0.03359785690280763,-0.9991173076923078,0.004199069951970134,-0.1713615384615385,0.016047930132526794,2.814572435897436,1.6888992901751934,-2.9783711538461537,0.6044952005058563,26.168751923076925,3.5458356414667835,100.0,0.0,10.02667326743631,1.8897331622348696,0.38350576923076934,2.5565391275443807,9.643167498205539,2.6211112634279803
30.0,20.0,0.0,0.0,0.0,0.8635320512820515,2.4777498246142744,-0.1812826923076923,0.034569208675663064,-0.4660121794871795,0.18476110807428495,-0.20028205128205126,0.6878934631487168,38.53846153846154,1.838059177083681,26.844064102564104,0.035853035728375754,10.184615384615386,2.4145711516030843,1634.5,483.9881196889031,14.346153846153847,8.480293899116033,8.263403846153846,1.847840307057029,-0.14485897435897435,0.033335622998284596,-0.9992307692307693,0.003922322702763684,-0.17046153846153847,0.015740980323298213,3.244467948717949,1.720872761142652,-3.0202820512820514,0.5692283388144004,26.597878205128207,3.6813371826485044,100.0,0.0,10.386733167999484,1.9806697582225237,0.8635320512820515,2.4777498246142744,9.523201116717432,2.6782760426169867
31.0,20.0,0.0,0.0,0.0,1.3290935897435898,2.3931054995413477,-0.18652826923076923,0.03622142484614065,-0.46072499999999994,0.24824439598508558,-0.28646012820512845,0.7500113962834791,38.53846153846154,1.838059177083681,26.83270641025641,0.04253554750687236,10.925384615384615,2.889912428803658,1634.5,483.9881196889031,14.346153846153847,8.480293899116033,8.627690384615386,1.822167869984499,-0.15096858974358976,0.032352413383075485,-0.9990846153846153,0.003558954038218793,-0.16945384615384615,0.014979912703863946,3.6595826923076933,1.6930266890951429,-3.0808589743589745,0.5432012067616846,27.06938012820513,3.771396862030534,100.0,0.0,10.68728258680301,2.0753347716341564,1.3290935897435898,2.3931054995413477,9.358188997059422,2.6855095389592245
32.0,20.0,0.0,0.0,0.0,1.8042743589743593,2.2950218963720914,-0.18986615384615385,0.038066933795820546,-0.35833384615384606,0.3566115234826485,-0.5359435897435898,0.9036220374731037,38.53846153846154,1.838059177083681,26.811256410256412,0.056200152446792884,11.869230769230768,3.213522581936431,1634.5,483.9881196889031,14.346153846153847,8.480293899116033,9.007892307692307,1.7584867987956183,-0.15847435897435896,0.031463414108300884,-0.999,0.0035095298830470226,-0.1691692307692308,0.014675987714106853,4.087084615384615,1.6626407854235516,-3.17884358974359,0.5414711893243962,27.523182051282053,3.9814002808194764,100.0,0.0,10.878529287766197,2.181074645504436,1.8042743589743593,2.2950218963720914,9.074254928791838,2.67702638314397
33.0,20.0,0.0,0.013076923076923208,0.06667948594698324,2.3368955128205124,2.259413641070806,-0.19000153846153844,0.040519830176574796,-0.16244384615384597,0.641476731544189,-0.9899868589743591,1.2037393719059442,38.53846153846154,1.838059177083681,26.76528525641026,0.06729567335059021,13.824615384615383,3.3351893268829342,1634.5,483.9881196889031,14.346153846153847,8.480293899116033,9.441317307692309,1.6921145726541278,-0.16575128205128206,0.03144572322910875,-0.9989096153846154,0.004349621115241408,-0.16884615384615387,0.014785647926803362,4.582086538461538,1.5197710170652474,-3.3623935897435895,0.5760838804679774,27.91379935897436,4.252940011271892,100.0,0.0,10.886286254838739,2.321615255704569,2.3368955128205124,2.259413641070806,8.549390742018227,2.7519962444480557
34.0,20.0,0.0,0.038461538461538464,0.19611613513818404,2.833111538461539,2.2260683138353006,-0.18516384615384615,0.041458006134103755,0.29909346153846167,0.6800259139352979,-1.6891811538461543,1.2549366990548227,38.53846153846154,1.838059177083681,26.72263846153847,0.08384623582211904,14.020769230769229,2.6137175410926456,1634.5,483.9881196889031,14.346153846153847,8.480293899116033,9.86176923076923,1.6652358078708807,-0.17318846153846154,0.030446587026109542,-0.9987615384615385,0.004776699858528022,-0.16890769230769237,0.01446797630843852,5.0826692307692305,1.6128998849945348,-3.622357692307692,0.6709961145479624,28.253165384615382,4.477468711487981,100.0,0.0,10.609106903025065,2.375368778511623,2.833111538461539,2.2260683138353006,7.775995364563527,2.769513358468946
35.0,20.0,0.0,0.038461538461538464,0.19611613513818404,3.307009615384615,2.214554054974465,-0.17949519230769234,0.040789573434415055,0.4158509615384615,0.6871543564760675,-2.1632625,1.286320674486926,38.53846153846154,1.838059177083681,26.689115384615384,0.08168990851902164,14.04326923076923,2.4990453946688094,1634.5,483.9881196889031,14.346153846153847,8.480293899116033,10.255701923076924,1.620523313654004,-0.18081730769230772,0.02969196504884004,-0.9993173076923078,0.005897269576807436,-0.16875,0.01365595108368509,5.559759615384615,1.6348858132615396,-3.987375,0.8445499489373024,28.31053846153846,4.7006533655930784,100.0,0.0,10.284316962119847,2.337070405930925,3.307009615384615,2.214554054974465,6.977307346735234,2.804689859668701
36.0,20.0,0.0,0.038461538461538464,0.19611613513818404,3.778846153846154,2.218479824245561,-0.17217769230769228,0.038123277226145426,0.5586192307692308,0.6337560533702106,-2.55503,1.1286984810373406,38.53076923076923,1.8321068158312672,26.659653846153848,0.06997090955972608,13.983076923076924,2.4983686985403404,1634.5,483.9881196889031,14.346153846153847,8.480293899116033,10.629553846153843,1.6209531154800914,-0.1879769230769231,0.029148300913669836,-1.000023076923077,0.0063433308406425,-0.16849230769230772,0.013501908696978305,6.097076923076923,1.5788620388894508,-4.390246153846155,0.9840425947003597,28.36593076923077,4.857242323110449,100.0,0.0,9.86505509553287,2.184302886265341,3.778846153846154,2.218479824245561,6.086208941686715,2.7046159057247583
37.0,20.0,0.0,0.04576923076923068,0.1981549510241533,4.270196153846154,2.236885528359602,-0.16248115384615386,0.03221576646015712,0.5291411538461541,0.656668660994733,-2.914815,0.9890197042243392,38.51346153846154,1.8217331139498834,26.642898076923075,0.06377066171958547,13.599615384615387,2.6749332414387177,1634.5,483.9881196889031,14.346153846153847,8.480293899116033,10.994484615384614,1.6263914696510942,-0.19520961538461534,0.02978688644095172,-1.002003846153846,0.007291829990844872,-0.1684615384615385,0.0134736209512685,6.7057192307692315,1.7262189149743967,-4.9294442307692306,1.165136703938806,28.27780192307693,5.016083032416445,100.0,0.0,9.30948436580044,1.8458274519461146,4.270196153846154,2.236885528359602,5.039288211954284,2.4943437517308182
38.0,20.0,0.0,0.07692307692307693,0.271746488194703,4.855465384615385,2.166695060213561,-0.15371,0.027980287489588092,0.5039915384615383,0.5859003990214872,-3.052815769230769,0.7944607507897321,38.50769230769231,1.8192136932033196,26.638984615384615,0.060294820290354725,13.201538461538462,2.778211931883804,1634.5,483.9881196889031,14.346153846153847,8.480293899116033,11.374119230769228,1.5920806502232807,-0.20275384615384617,0.029928397628596566,-1.0060384615384617,0.009905920529585438,-0.1673192307692308,0.013519882225249424,7.4171653846153855,1.8798516207280418,-5.6283153846153855,1.5007721425165936,28.044403846153845,5.159315630002163,100.0,0.0,8.806934268955883,1.6031523827160952,4.855465384615385,2.166695060213561,3.951468884340499,2.4417153840523045
39.0,20.0,0.0,0.07692307692307693,0.271746488194703,5.311492307692308,2.0914965296979244,-0.14862397435897437,0.02713183493027629,0.49326903846153847,0.5152667087635667,-3.005123076923077,0.7473866364447211,38.5,1.816590212458495,26.647678846153845,0.056378813703512984,13.192307692307692,2.771558850455545,1634.5,483.9881196889031,14.346153846153847,8.480293899116033,11.616603205128207,1.5338067158327875,-0.20764423076923075,0.028997238926915362,-1.0092711538461538,0.012097480506923141,-0.1658365384615385,0.012867272886608938,8.029577564102565,1.8073203160722797,-6.119414743589744,1.6438161332252799,28.005391025641025,5.078192103878507,100.0,0.0,8.515526465229796,1.5545396319504556,5.311492307692308,2.0914965296979244,3.204034157537487,2.507419912169788
40.0,20.0,0.0,0.1,0.2898275349237888,5.752115384615385,2.0582039612618197,-0.14293333333333333,0.02706431516878924,0.5157538461538461,0.47268312703608883,-2.901180769230769,0.7128124151664199,38.5,1.816590212458495,26.664846153846153,0.05283990333654473,13.192307692307692,2.724396898680231,1634.5,483.9881196889031,14.346153846153847,8.480293899116033,11.812371794871796,1.4941566787602163,-0.2114230769230769,0.02842699150726025,-1.0140000000000002,0.013032267646115944,-0.16480769230769232,0.012623848005324624,8.648858974358975,1.8384642677410636,-6.581371794871795,1.7518872549388258,28.069474358974357,5.009281266851299,100.0,0.0,8.189476751736567,1.5506710345835177,5.752115384615385,2.0582039612618197,2.4373613671211825,2.6095724707060515
41.0,20.0,0.0,0.15,0.3591656999213594,6.223713461538462,2.069738571586165,-0.13513384615384616,0.02775200808257638,0.5563126923076922,0.3893267150022735,-2.7248038461538453,0.7160432900087923,38.5,1.816590212458495,26.679067307692304,0.056983286922232756,13.033846153846154,2.6356070677141186,1634.5,483.9881196889031,14.346153846153847,8.480293899116033,11.972151923076922,1.472588330965635,-0.21657115384615386,0.029163885794169894,-1.0190480769230772,0.015756411271410965,-0.16390576923076924,0.012555829936113958,9.327575000000001,1.9608145781409319,-7.081007692307693,1.953316366372448,28.43577884615385,5.017354290463713,100.0,0.0,7.742599053985558,1.590072936144575,6.223713461538462,2.069738571586165,1.5188855924470948,2.824416131584859
42.0,20.0,0.0,0.24538461538461545,0.38506343133806686,6.812612820512821,1.9570533809122763,-0.12584179487179487,0.02943866081239686,0.6426134615384614,0.37436127016498183,-2.4457267948717947,0.6926726387939405,38.5,1.816590212458495,26.697930769230766,0.05026413249410113,12.743461538461535,2.69596578955697,1634.5,483.9881196889031,14.346153846153847,8.480293899116033,12.142015384615384,1.439372802214161,-0.22215384615384615,0.028800642086859535,-1.026242307692308,0.01651298090780518,-0.1625846153846154,0.011988517583344235,10.16271923076923,1.9805742601617804,-7.629310256410256,2.049591788511811,29.17843974358975,5.080269072139294,100.0,0.0,7.210203732504893,1.6867110190675076,6.812612820512821,1.9570533809122763,0.3975909119920718,2.847864334372311
43.0,20.0,0.0,0.4357692307692309,0.4941187960555485,7.299078846153846,1.9356930297014079,-0.11686673076923079,0.031964306372649715,0.760855576923077,0.37662499973667946,-2.158442692307692,0.7098060736951056,38.5,1.816590212458495,26.715432692307694,0.050728731390223984,12.642500000000002,2.6456096650866696,1634.5,483.9881196889031,14.346153846153847,8.480293899116033,12.255582692307692,1.446490172862734,-0.22545576923076924,0.02831280391244596,-1.0335038461538464,0.016888451220149984,-0.1614596153846154,0.012212567455132184,10.87150769230769,2.058854847369882,-8.015811538461538,2.099279087368218,30.31537307692308,5.187527090960216,100.0,0.0,6.695970438568602,1.8314198502159502,7.299078846153846,1.9356930297014079,-0.6031084075852463,2.9859841355315506
44.0,20.0,0.0,0.5969230769230769,0.4687922288670686,7.7788,1.9468188970614488,-0.10631743589743589,0.034256434689074654,0.8609746153846154,0.37203164112995296,-1.899792051282051,0.7313018365846407,38.5,1.816590212458495,26.742346153846157,0.050803261554897526,12.481538461538461,2.5753410528435916,1634.5,483.9881196889031,14.346153846153847,8.480293899116033,12.341123076923079,1.445087878381849,-0.22823333333333334,0.02877756688039411,-1.0413564102564103,0.017636154202170486,-0.1583692307692308,0.011645386012692552,11.52221794871795,2.056351480683543,-8.376851282051282,2.172088298782856,31.76138717948718,5.288615238037915,100.0,0.0,6.091540365575751,1.9627491288495262,7.7788,1.9468188970614488,-1.6872596344242499,3.186517842780313
45.0,20.0,0.0,0.7249999999999996,0.4384632253678753,8.224467948717948,1.9337461019248112,-0.09549166666666668,0.035901030703247995,0.9796016025641028,0.34615925453482643,-1.5984083333333337,0.7256138873089156,38.5,1.816590212458495,26.758625,0.048295095506686585,12.359615384615385,2.5788376928674372,1634.5,483.9881196889031,14.346153846153847,8.480293899116033,12.419448717948718,1.442087767223642,-0.23148076923076924,0.02899261694995535,-1.0472916666666667,0.018699959150282178,-0.15704807692307693,0.011310176663246513,12.115298076923077,2.0796753077467893,-8.733823717948717,2.2337931987151514,33.49721153846154,5.403249800671956,100.0,0.0,5.471269478670087,2.056977539465696,8.224467948717948,1.9337461019248112,-2.753198470047863,3.3184664278507032
46.0,20.0,0.0,0.7965384615384615,0.3882776564026552,8.838419230769231,1.8931673912296778,-0.07891025641025641,0.037927881763192825,1.0924328205128204,0.26506524465026393,-1.1388820512820512,0.7004757504896714,38.5,1.816590212458495,26.782888461538455,0.034980935687006165,12.038461538461538,2.5215990042950005,1634.5,483.9881196889031,14.346153846153847,8.480293899116033,12.544935897435899,1.44126992823607,-0.23574358974358978,0.028687294546123874,-1.0566230769230769,0.019036770896185284,-0.15507692307692308,0.012636718171813681,12.823693589743588,1.7791075040410125,-9.371482051282051,2.622172865362377,36.330119230769235,5.305609033241648,100.0,0.0,4.521224652602841,2.1731075509021522,8.838419230769231,1.8931673912296778,-4.317194578166388,3.448219851195381
47.0,20.0,0.0,0.8648076923076923,0.3334980682679607,9.320144230769232,1.8518607978099717,-0.06488923076923077,0.037244147478289996,1.15853,0.24856435742881552,-0.8173380769230767,0.6220758659795073,38.5,1.816590212458495,26.798117307692305,0.03126675212524546,11.928076923076922,2.448836489814327,1634.5,483.9881196889031,14.346153846153847,8.480293899116033,12.654019230769231,1.4654854854332013,-0.23892307692307696,0.030043768840707162,-1.0642423076923078,0.018241522372366266,-0.15322307692307693,0.011460586640911803,13.214751923076923,1.7452873738431025,-9.901915384615386,2.90914201598235,38.87440192307692,5.355533423880032,100.0,0.0,3.7178790589273634,2.1339324620688243,9.320144230769232,1.8518607978099717,-5.602265171841868,3.411252843723323
48.0,20.0,0.0,0.9130769230769231,0.2712308128626868,9.8673,1.853458851984581,-0.0485053846153846,0.035918462576315174,1.139123076923077,0.2523484217786072,-0.4692630769230769,0.5656504493679413,38.5,1.816590212458495,26.81160769230769,0.022074381949706803,11.701538461538462,2.4666539154209572,1634.5,483.9881196889031,14.346153846153847,8.480293899116033,12.796076923076923,1.4706962803536812,-0.24414615384615385,0.03085105159658881,-1.073246153846154,0.019546646377713642,-0.1511,0.011583332853717014,13.552123076923076,1.810362686382525,-10.653207692307692,3.274449674424463,42.24978461538462,5.510538327800096,100.0,0.0,2.7791538221203322,2.0579763122214527,9.8673,1.853458851984581,-7.088146177879668,3.3945752087264616
49.0,20.0,0.0,0.9230769230769231,0.271746488194703,10.37578076923077,1.856121924016681,-0.03410410256410256,0.034225554472355445,1.0476143589743592,0.2542523652922107,-0.1781829487179486,0.5521261720072703,38.5,1.816590212458495,26.818953846153843,0.019326359838712406,11.528846153846153,2.402422655442755,1634.5,483.9881196889031,14.346153846153847,8.480293899116033,12.96187435897436,1.4945279345757814,-0.24894615384615384,0.031039307089807674,-1.0808910256410256,0.01972744181803004,-0.15054615384615386,0.011115582963362047,13.607060256410259,1.8570522278066677,-11.6294217948718,3.756056917932746,45.73253846153846,6.115203179295154,100.0,0.0,1.9540211410043655,1.960979822761066,10.37578076923077,1.856121924016681,-8.421759628226404,3.337733269350613
50.0,20.0,0.0,0.9230769230769231,0.271746488194703,10.905865384615385,1.8985013750729407,-0.021176282051282042,0.03236960445750058,0.9510064102564103,0.24609750317379483,0.07600641025641029,0.5707926778335336,38.5,1.816590212458495,26.824230769230763,0.021479865348382105,11.461538461538462,2.420425900221186,1634.5,483.9881196889031,14.346153846153847,8.480293899116033,13.171314102564102,1.535172378541774,-0.2560576923076923,0.03242046480946161,-1.089070512820513,0.020987201024376862,-0.15028846153846157,0.011754295450534734,13.461762820512822,1.9957313937351822,-12.859358974358976,4.375886883489338,49.70894230769231,6.834803295380087,100.0,0.0,1.2133115873170985,1.85464171992264,10.905865384615385,1.8985013750729407,-9.692553797298286,3.3119796664572903
51.0,20.0,0.0,0.9553846153846155,0.1973672874461371,11.389128846153845,1.9546936293533612,-0.010537307692307686,0.030124691707327695,0.827196923076923,0.26684775555389983,0.27201500000000006,0.5739859459498987,38.5,1.816590212458495,26.826928846153844,0.015984994044897335,11.280384615384614,2.1281832266404694,1634.5,483.9881196889031,14.346153846153847,8.480293899116033,13.404578846153846,1.5910755682350899,-0.2614153846153846,0.03422798787317411,-1.0960865384615386,0.02132410165841601,-0.14898076923076925,0.012085090623765109,13.151336538461537,2.1128542666051393,-14.238611538461539,4.994612489719453,53.59154230769231,7.487470854269716,100.0,0.0,0.6037432581999674,1.726017693962627,11.389128846153845,1.9546936293533612,-10.78538558795388,3.2843765297762424
52.0,20.0,0.0,0.9615384615384616,0.196116135138184,11.97069230769231,1.9389668104272602,0.0008561538461538519,0.026609250733821584,0.7117415384615384,0.28731842248894957,0.5080153846153846,0.4743689155181293,38.5,1.816590212458495,26.830284615384617,0.013755600817345897,10.923076923076923,2.038098661460272,1634.5,483.9881196889031,14.346153846153847,8.480293899116033,13.731161538461539,1.5632184748337445,-0.2698615384615385,0.033744772358670044,-1.1044461538461539,0.020927402720246544,-0.14859230769230772,0.013457070203485542,12.630738461538462,2.3635669963979313,-16.079915384615386,5.55668744981701,58.55362307692308,7.386042741133182,100.0,0.0,-0.04905400199850851,1.5245977630533654,11.97069230769231,1.9389668104272602,-12.019746309690815,3.0821304774307374
53.0,20.0,0.0,0.9615384615384616,0.196116135138184,12.54136153846154,1.8622595535696789,0.008973461538461546,0.02492312451396215,0.6000788461538459,0.3810742284786729,0.6736388461538461,0.42618398266783253,38.5,1.816590212458495,26.82886923076923,0.016205697003974708,10.923076923076923,2.038098661460272,1634.5,483.9881196889031,14.346153846153847,8.480293899116033,14.104157692307695,1.507882455146442,-0.2797192307692308,0.0330656682283092,-1.1116961538461538,0.021173407487114163,-0.14808076923076924,0.01415395405477266,11.916623076923077,2.5897323981149394,-18.13081538461539,6.057022155527737,63.44793846153846,7.91606222244757,100.0,0.0,-0.5141414737768173,1.4279898469290726,12.54136153846154,1.8622595535696789,-13.055503012238354,2.923537052012642
54.0,20.0,0.0,0.9615384615384616,0.196116135138184,13.131034615384616,1.9002398040126007,0.01623461538461539,0.02259841025041702,0.5264034615384612,0.46603418701157395,0.784074615384615,0.43457643199999496,38.5,1.816590212458495,26.82653846153846,0.01876957275854917,10.897692307692306,1.9888032737147376,1634.5,483.9881196889031,14.346153846153847,8.480293899116033,14.531019230769232,1.5115568694612136,-0.29088461538461535,0.031742674018522044,-1.1176115384615384,0.018920810277006064,-0.1471846153846154,0.014972072463294918,11.094369230769233,2.8291478664458993,-20.517250000000004,6.76514995353392,68.24071153846154,8.286696050239897,100.0,0.0,-0.9301749435566173,1.294793531054073,13.131034615384616,1.9002398040126007,-14.061209558941233,2.8656293549364262
55.0,20.0,0.0,0.9615384615384616,0.196116135138184,13.855701923076923,1.881593189320198,0.024236538461538462,0.01619471863103713,0.3354317307692306,0.4982160578282127,0.8092807692307691,0.39421915125394985,38.5,1.816590212458495,26.824230769230763,0.014654849551756772,10.790384615384614,1.8671914326479342,1634.5,483.9881196889031,14.346153846153847,8.480293899116033,15.077721153846154,1.4603767601665731,-0.30286538461538465,0.030615864414485418,-1.122528846153846,0.016473361363588845,-0.14551923076923076,0.01569425421562349,10.091192307692307,3.1485183120856166,-23.535798076923076,6.946385658750613,73.50347115384615,7.410951611745593,100.0,0.0,-1.3886513638526472,0.9278890279603099,13.855701923076923,1.881593189320198,-15.244353286929574,2.521608736330622
56.0,20.0,0.0,0.9423076923076921,0.21394032237626867,14.445553846153846,1.9219900139658939,0.02718153846153846,0.013770560973993077,0.1192546153846157,0.5260290961856064,0.7018000000000002,0.3630986663924837,38.5,1.816590212458495,26.824023076923076,0.017812564277887036,10.673076923076923,1.8509668159764916,1634.5,483.9881196889031,14.346153846153847,8.480293899116033,15.499007692307693,1.4162776987365373,-0.3118384615384615,0.028832538243076373,-1.1215846153846154,0.017173088069597487,-0.1436461538461538,0.0167194552726871,9.41686923076923,3.3645616310918407,-25.98265384615385,7.278535815958086,76.8546923076923,7.0498378832380535,100.0,0.0,-1.5573874345186742,0.7889950253373634,14.445553846153846,1.9219900139658939,-16.002941280672523,2.3614096761000174
57.0,20.0,0.0,0.8888461538461538,0.28808786052976165,15.025315384615386,1.8984024437283697,0.02719596153846154,0.012370899160467743,-0.13672519230769217,0.5184374063288272,0.5074803846153847,0.34934202596001274,38.5,1.816590212458495,26.82501346153846,0.016188252269422717,10.554615384615383,1.7345782905806943,1634.5,483.9881196889031,14.346153846153847,8.480293899116033,15.881348076923077,1.326840776090392,-0.31847884615384614,0.026261257293118782,-1.1181653846153845,0.02016615367010162,-0.14061538461538461,0.01768052470505765,8.855974999999999,3.591160679453093,-28.290009615384616,7.264275160799172,79.21789615384614,6.342359881840875,100.0,0.0,-1.5582138159539594,0.708800310676735,15.025315384615386,1.8984024437283697,-16.583529200569345,2.146397755767499
58.0,20.0,0.0,0.781153846153846,0.3657357179502919,15.707811538461538,1.8599022366408233,0.023706538461538456,0.01211522610348076,-0.3275442307692309,0.5717299690040611,0.3044284615384614,0.35963398906880106,38.5,1.816590212458495,26.828392307692305,0.012146338479622116,10.461153846153847,1.882577651887066,1634.5,483.9881196889031,14.346153846153847,8.480293899116033,16.259419230769232,1.1761147117587571,-0.32226153846153854,0.0237849208856885,-1.1096153846153847,0.025049833409548933,-0.13689230769230767,0.020245511563345062,8.367815384615383,3.8295331797692858,-30.798288461538462,6.911976543034671,80.64999230769232,5.744842938909508,100.0,0.0,-1.3582846007107132,0.694151323576173,15.707811538461538,1.8599022366408233,-17.066096139172252,1.8946669590089928
59.0,20.0,0.0,0.5651923076923079,0.46461270057808546,16.47396730769231,1.9109898403153434,0.017954038461538462,0.012456533869357949,-0.3835311538461538,0.6438282277973029,0.13929115384615381,0.40906548598068687,38.5,1.816590212458495,26.830213461538456,0.01293218896933042,10.3975,2.285375789667864,1634.5,483.9881196889031,14.346153846153847,8.480293899116033,16.487934615384617,1.1317864249733018,-0.3219846153846154,0.023182224954610257,-1.0937634615384615,0.030430496406376,-0.13144038461538463,0.02094332838510045,8.079828846153847,3.9809563177752425,-33.15275576923077,6.734207159143931,80.09055384615384,5.935620802846544,100.0,0.0,-1.0286906290617073,0.7137068180759752,16.47396730769231,1.9109898403153434,-17.502657936754016,1.7441485669260715
60.0,20.0,0.0,0.3153846153846154,0.4201831102672336,17.29026923076923,1.8683854753811873,0.010726923076923075,0.011757331591557937,-0.5651730769230767,0.2555014544893118,-0.08969615384615387,0.41655721958047437,38.48461538461539,1.796149728211389,26.832230769230765,0.011583808328206404,9.815384615384614,1.8494739376789946,1634.253846153846,483.91066467336236,14.353846153846153,8.490429000668023,16.572730769230773,1.1407078349057593,-0.31869230769230766,0.025817465763733255,-1.0715769230769232,0.03361924814974077,-0.12473076923076924,0.02033235390663402,7.835423076923076,4.114777079483912,-35.333,6.2135757177329065,77.90926923076923,6.385150946110468,100.0,0.0,-0.6146074194691791,0.6736454785321009,17.29026923076923,1.8683854753811873,-17.90487665023841,1.6145060066841395
61.0,20.0,0.0,0.05615384615384557,0.11523287458279942,18.132775000000002,1.8846621305820317,0.0027063461538461516,0.012663398718961064,-0.6662869230769228,0.1900637672891754,-0.39455596153846145,0.42119702572791107,38.46153846153846,1.7715703594442807,26.83155961538461,0.014686252205588874,9.552307692307695,1.8218980381839351,1633.0976923076921,478.57664998040076,14.441538461538462,8.511649284272792,16.426923076923078,1.275068282738675,-0.3087519230769231,0.029829624472223013,-1.0443192307692308,0.03746603015245439,-0.11691346153846155,0.021981590286839162,7.711365384615383,4.326789118475022,-36.87970000000001,5.817575724234281,73.5136923076923,7.558934954855646,100.0,0.0,-0.15506221251684751,0.7255593008878423,18.132775000000002,1.8846621305820317,-18.28783721251685,1.5175039878487502
62.0,20.0,0.0,0.0,0.0,19.110865384615384,1.9455322050158521,-0.008286153846153855,0.014472445564429838,-0.8184830769230771,0.281507236109757,-0.7156211538461539,0.2985433685390035,38.46846153846154,1.778162404973612,26.827653846153844,0.017781208750121496,9.849230769230774,2.4958796815181987,1684.2938461538458,353.93002755999026,14.680384615384614,8.480604922182959,15.976003846153844,1.4438893360589014,-0.29052692307692307,0.03442066306964243,-1.0097192307692306,0.04258042760922696,-0.10545769230769228,0.024091677784279335,7.722757692307692,4.321069817734777,-37.41008076923077,5.732567851008426,65.91221923076922,9.652217460957631,100.0,0.0,0.4747616437807105,0.8292100500746583,19.110865384615384,1.9455322050158521,-18.636103740834674,1.4921642199014247
63.0,20.0,0.0,0.0,0.0,19.899084615384616,1.9663838348485896,-0.01938711538461542,0.02305985091769148,-1.0808480769230788,0.9212691890724236,-0.8056023076923069,0.3620504680655201,38.47038461538462,1.8256187570667226,26.810915384615384,0.037313865436941436,11.493846153846151,3.4200515515682746,1697.7576923076922,350.24850049423696,14.907115384615386,8.469353360567373,15.415626923076921,1.584760647241769,-0.271325,0.037186968819735745,-0.9796192307692307,0.04325285673090987,-0.09547884615384614,0.025094135462601305,7.649188461538461,4.334858740081566,-36.891575,5.960596682216469,58.41851730769229,11.041953818613285,100.0,0.0,1.1107998884716113,1.3212321337846002,19.899084615384616,1.9663838348485896,-18.788284726913005,1.570334512420717
64.0,20.0,0.0,0.0,0.0,20.750500000000002,1.9361664814782849,-0.044349230769230794,0.05167743158656996,-1.9214815384615385,1.868151389145305,-0.5326330769230767,0.9369244889947935,38.44769230769231,1.7788812387392425,26.769253846153845,0.08404458926436224,12.99076923076923,3.5722541041498372,1703.37,351.50318090168116,15.18,8.490480316212976,14.695400000000003,1.771963076816218,-0.2496307692307692,0.039973418860345375,-0.9465538461538461,0.04661976602917893,-0.08464615384615382,0.023998153775142462,7.395715384615385,4.4316004094857036,-35.46206923076923,7.053216717031696,49.33007692307691,13.325478748692156,100.0,0.0,2.5410237477286537,2.9608987259865085,20.750500000000002,1.9361664814782849,-18.209476252271347,2.152210964671013
65.0,20.0,0.0,0.013461538461538462,0.06864064729836442,21.758403846153847,1.748016950828743,-0.08772211538461537,0.06989355382541479,-3.4352971153846146,2.4138589518272076,0.1615644230769231,1.295638334821355,38.46153846153846,1.7715703594442807,26.703721153846153,0.09635679340147953,15.301923076923078,2.9250805380102194,1704.65,351.63476648363434,15.27115384615385,8.474118515538038,13.69851923076923,1.689682788163324,-0.22259615384615383,0.035408055363368725,-0.9083846153846153,0.04236043146435307,-0.07083653846153846,0.020356809954864285,7.049057692307692,4.664972244455315,-32.926269230769236,8.253154473570417,37.67972115384615,13.601508869115758,100.0,0.0,5.026106981498089,4.004605649366717,21.758403846153847,1.748016950828743,-16.732296864655755,2.899610721999047
66.0,20.0,0.0,0.03230769230769244,0.16473755351607525,22.814507692307696,1.812186041867243,-0.16341461538461535,0.0815646093464939,-4.853890384615381,1.8736585845633278,1.3897769230769217,1.2726646091905593,38.44615384615385,1.7774657845890074,26.618938461538455,0.09069085103547363,14.693846153846156,2.2445366148460635,1704.8461538461538,351.6612793365448,15.301538461538463,8.48806583023845,12.55305,1.7074664504463901,-0.1952346153846154,0.03378127223545838,-0.8683230769230771,0.04011045058527576,-0.05856923076923077,0.019828177308684122,6.422773076923078,4.655686847764375,-28.61595769230769,9.658850327452974,24.662673076923078,13.382099041736558,100.0,0.0,9.36296777229207,4.673307873187408,22.814507692307696,1.812186041867243,-13.45153992001562,3.4298307970664377
67.0,20.0,0.0,0.0,0.0,23.69997307692308,1.7345520461047443,-0.22258615384615388,0.07614176010978058,-4.529585384615387,1.904573130082395,2.238436538461539,1.2094517160323257,38.434615384615384,1.7841395254166212,26.56158076923077,0.07667004248977945,14.74,1.8637510563377293,1704.8461538461538,351.6612793365448,15.307692307692308,8.49832562694196,11.575215384615387,1.637799158307832,-0.17313269230769232,0.030051775129957582,-0.838598076923077,0.03574602490003393,-0.04968653846153846,0.018250285245399893,5.62454423076923,5.111041363466489,-24.216175,10.641084330990429,13.503588461538458,13.676455534240642,100.0,0.0,12.753247193434252,4.3626014989879955,23.69997307692308,1.7345520461047443,-10.946725883488824,3.3695386952890374
68.0,20.0,0.0,0.0,0.0,24.60091282051282,1.718480987308318,-0.2726453846153846,0.06706658364525621,-3.067060512820514,1.8999323621859543,2.981925641025641,1.243564679290687,38.45384615384615,1.7740869807832467,26.524007692307695,0.06954316025650177,15.301538461538472,4.486412992409619,1704.8461538461538,351.6612793365448,15.307692307692308,8.49832562694196,10.639023076923078,1.5599973511022855,-0.1537,0.026315941936400397,-0.8118974358974361,0.03231612865026023,-0.041058974358974355,0.018518683196988576,4.5281128205128205,5.472334520891448,-18.95759487179487,11.09167449286252,1.8287307692307648,13.523398471087637,100.0,0.0,15.621429842182605,3.8426321892342927,24.60091282051282,1.718480987308318,-8.979482978330216,3.157005786115341
69.0,20.0,0.0,0.0,0.0,25.39063076923077,1.6975241650755328,-0.30013307692307695,0.06090939400580049,-1.6645469230769228,1.6137797097541389,3.582679038461539,1.259394388637665,38.42192307692308,1.793682288992717,26.50551730769231,0.07018604553941972,15.784615384615389,7.915943016858708,1704.8461538461538,351.6612793365448,15.307692307692308,8.49832562694196,9.922367307692308,1.4333983606061715,-0.13902692307692305,0.022249598786356694,-0.7930038461538461,0.02603303256663317,-0.035857692307692306,0.017172447072608447,3.2608807692307686,5.80914555942743,-14.107986538461533,11.019682179841281,-8.92732692307693,12.673529409586196,100.0,0.0,17.196358599967592,3.489851209231803,25.39063076923077,1.6975241650755328,-8.194272169263177,3.1997361671489317
70.0,20.0,0.0,0.0,0.0,26.15216025641026,1.6169980048642743,-0.3158980769230769,0.05098160939156243,-0.7861314102564102,1.473710898350954,4.065116666666667,1.1288418461808054,38.38846153846154,1.8296069355087006,26.502596153846152,0.07710888654763043,15.319230769230769,5.646380733232163,1704.8461538461538,351.6612793365448,15.307692307692308,8.49832562694196,9.3885,1.5087233013379227,-0.12903846153846155,0.021148486034193125,-0.7812371794871796,0.01798766077540212,-0.03273717948717949,0.018305808008323664,1.671102564102564,6.414266615925078,-9.222262820512821,10.988236351477891,-20.03642307692308,12.360166539891207,100.0,0.0,18.099626563991333,2.9210310509210484,26.15216025641026,1.6169980048642743,-8.052533692418923,3.0413105527593256
71.0,20.0,0.0,0.0,0.0,26.880058974358974,1.516299102846803,-0.3190367948717949,0.044375700404921455,-0.5641280769230796,3.1761389953077055,4.303591153846154,0.9941128473008551,38.38461538461539,1.8347081092516724,26.5055,0.08306428955935273,13.86846153846153,2.2683151320884667,1704.8461538461538,351.6612793365448,15.307692307692308,8.49832562694196,9.204816025641026,1.689596726996521,-0.12671666666666667,0.024275293796139522,-0.7791198717948719,0.013856536379173195,-0.03157884615384615,0.019062424678287507,-0.17267500000000005,6.913205175752423,-4.327541025641025,11.047600088732423,-31.711819230769226,12.270604077974957,100.0,0.0,18.279461855534834,2.5425403461389773,26.880058974358974,1.516299102846803,-8.60059711882414,2.743654593741464
72.0,20.0,0.0,0.0,0.0,27.63182820512821,1.4304503344577975,-0.31704179487179485,0.04182903308820344,-0.3803507692307671,2.656648067027195,4.303515384615385,0.9066846537544606,38.42769230769231,1.801182517552972,26.50657692307692,0.0772588030334008,13.58153846153846,2.760967500435589,1704.8461538461538,351.6612793365448,15.307692307692308,8.49832562694196,9.438379487179487,1.965334957101929,-0.1312205128205128,0.0284970034712004,-0.7879410256410257,0.01670215237677748,-0.033484615384615384,0.021079216158248242,-2.4406230769230777,7.195391494522461,1.2741820512820536,11.751712266677398,-45.86575384615385,12.886817889959662,100.0,0.0,18.16515677540623,2.3966270570671293,27.63182820512821,1.4304503344577975,-9.466671429721972,2.68772958212564
73.0,20.0,0.0,0.0,0.0,28.110297435897433,1.2817184166725566,-0.31470987179487175,0.04523949349584592,0.1602778846153846,0.1913353107148444,4.275405192307693,0.9111275220017019,38.42519230769231,1.7926463570761697,26.50891153846154,0.07932475692706796,13.384615384615385,2.7140659251672288,1704.8461538461538,351.6612793365448,15.307692307692308,8.49832562694196,9.914571794871794,2.2443604550852436,-0.14058012820512822,0.034533684045590755,-0.8024525641025643,0.02123623564272877,-0.03494038461538461,0.024566855798944926,-4.475584615384618,7.943784452926324,4.7881108974358995,11.38059302861473,-56.467059615384635,12.190060488767225,100.0,0.0,18.03154742494938,2.5920320446215097,28.110297435897433,1.2817184166725566,-10.078750010948058,2.781561004796299
74.0,20.0,0.0,0.0,0.0,28.54032307692308,1.2804386427494892,-0.3126288461538461,0.046446986582720146,0.15731679487179512,0.1904009565813526,4.290009230769231,0.9324192538077414,38.42307692307692,1.7927203222606012,26.505415384615382,0.08714500877185125,13.26923076923077,2.6820304593004494,1704.8461538461538,351.6612793365448,15.307692307692308,8.49832562694196,10.730030769230769,2.4665524208123766,-0.15629487179487178,0.040047137439447794,-0.8237884615384614,0.023804660500382276,-0.03925769230769231,0.02734327227055201,-6.814556410256412,8.427240638188463,8.744426923076926,11.989093683429378,-68.15028974358974,11.731456911196856,100.0,0.0,17.912313438660103,2.6612163022906263,28.54032307692308,1.2804386427494892,-10.62800963826297,2.8594825276588516
75.0,20.0,0.0,0.0,0.0,28.854519230769235,1.2217901352586638,-0.3102980769230769,0.0472546436464592,0.23346794871794874,0.2591440044506819,4.394274038461538,0.988649554328549,38.40384615384615,1.8221922553299956,26.496009615384615,0.08828364743170788,12.923076923076923,2.9109871442255035,1704.8461538461538,351.6612793365448,15.307692307692308,8.49832562694196,11.827884615384617,2.7786017115005612,-0.17929487179487175,0.047491778415784947,-0.8528365384615385,0.02681780586734235,-0.04524038461538461,0.030263466487601084,-9.20121794871795,8.68530361597736,12.662499999999998,12.89931018019956,-79.5247435897436,10.953539572564434,100.0,0.0,17.77877019871807,2.7074916433368026,28.854519230769235,1.2217901352586638,-11.075749032051156,2.8716611300716965
76.0,20.0,0.0,0.0,0.0,28.995853846153842,1.1677414159755637,-0.30744461538461537,0.04808311780496514,0.32647384615384606,0.3208577273520217,4.527182051282051,1.0470769875101842,38.42,1.8109445049476258,26.480851282051283,0.09097842734810828,12.923076923076923,2.9109871442255035,1704.8461538461538,351.6612793365448,15.307692307692308,8.49832562694196,12.852884615384616,2.936288672006528,-0.20223076923076924,0.05233445682282542,-0.8785128205128205,0.033904041157915225,-0.049371794871794876,0.032728953803841894,-11.085410256410256,9.334963481596228,15.72495128205128,13.544337016120162,-88.06840256410254,10.838358068309153,100.0,0.0,17.61527889556132,2.754959716054845,28.995853846153842,1.1677414159755637,-11.380574950592527,2.9346126961168837
77.0,20.0,0.0,0.0,0.0,29.03466923076923,1.1072276960117031,-0.30041403846153847,0.053095776555564786,0.4777966025641025,0.41565002726104455,4.735940641025641,1.109517021645913,38.43615384615385,1.7832174896474675,26.460081410256407,0.10594491926645677,12.692307692307692,2.976833630141003,1704.8461538461538,351.6612793365448,15.307692307692308,8.49832562694196,14.281796153846155,3.1118292004839563,-0.23478525641025644,0.05908445411761093,-0.9127064102564102,0.039639718318576246,-0.05569935897435897,0.03505071864242482,-13.427661538461543,9.628199329649423,19.557771794871794,14.8181187715271,-98.25940064102564,11.76550916870766,100.0,0.0,17.21245651032694,3.0421639066035255,29.03466923076923,1.1072276960117031,-11.82221272044229,3.2680675715422423
78.0,20.0,0.0,0.0,0.0,28.950519230769228,1.061824862778878,-0.2928630769230769,0.057045931793194955,0.5478049999999997,0.4175489320522808,4.910789230769231,1.1524283639304376,38.43076923076923,1.7867891270699474,26.434530769230772,0.11486206255933452,12.426923076923078,2.997806890686282,1704.8461538461538,351.6612793365448,15.307692307692308,8.49832562694196,15.64245384615385,3.2580501817167633,-0.265873076923077,0.06399111536888427,-0.9440384615384616,0.03714691994686049,-0.06204230769230769,0.038551546511930476,-15.585038461538463,9.499143056637353,22.641392307692307,15.870317305937482,-106.41689230769232,9.333089650610807,100.0,0.0,16.77981828290748,3.268491130141231,28.950519230769228,1.061824862778878,-12.170700947861748,3.478406003663262
79.0,20.0,0.0,0.0,0.0,28.650184615384617,1.1020860119581621,-0.2828542307692308,0.060530070290597045,0.6221440384615383,0.41216869955643026,5.154435192307693,1.1667976729154723,38.457692307692305,1.7727206383236085,26.400986538461535,0.12090283252074141,12.098076923076924,2.999682675525222,1704.8461538461538,351.6612793365448,15.307692307692308,8.49832562694196,17.405446153846153,3.3486275795890803,-0.309148076923077,0.06653217188814634,-0.9801288461538462,0.034538891624014016,-0.0679846153846154,0.042157437704943054,-17.983157692307692,10.043445120830725,25.43375769230769,17.048368909756107,-114.30244423076923,7.926039057944733,100.0,0.0,16.206353640496353,3.4681175612814226,28.650184615384617,1.1020860119581621,-12.443830974888263,3.676321446032028
80.0,20.0,0.0,0.0,0.0,28.209384615384614,1.0667674564561134,-0.2733653846153846,0.06443295394319706,0.7213397435897436,0.5196773665795372,5.41083717948718,1.194810796377473,38.42307692307692,1.7927203222606012,26.368307692307692,0.12474350299098326,12.0,3.059411708155671,1704.8461538461538,351.6612793365448,15.307692307692308,8.49832562694196,19.01167948717949,3.234143349369892,-0.34988461538461546,0.0650945938910917,-1.0107948717948718,0.031346249383735716,-0.07192307692307692,0.044579747040038774,-19.515923076923073,10.357626936410007,28.032205128205128,18.918483970992064,-119.51583333333335,7.701757359777629,100.0,0.0,15.662682803432023,3.691736322506007,28.209384615384614,1.0667674564561134,-12.546701811952591,3.9191128666681614
81.0,20.0,0.0,0.0,0.0,27.68525769230769,1.0580412967074868,-0.26466673076923075,0.06932984325587807,0.7019628846153847,0.5633073438437902,5.543638461538462,1.2231788798011267,38.457692307692305,1.7727206383236085,26.344286538461542,0.12875448851025922,11.804615384615385,3.0943422315823206,1704.8461538461538,351.6612793365448,15.307692307692308,8.49832562694196,20.414759615384618,3.1663907348278815,-0.3874923076923078,0.06437451000560349,-1.0346865384615385,0.0280885085317548,-0.07394999999999999,0.04612736498002028,-20.600936538461536,10.596439585800107,29.484105769230773,20.702134270477178,-122.31995192307691,7.688582868493791,100.0,0.0,15.164286650602163,3.9723074128653484,27.68525769230769,1.0580412967074868,-12.520971041705526,4.186048548123406
82.0,20.0,0.0,0.0,0.0,26.886599999999994,1.1306805501113029,-0.25560807692307697,0.07502012284816553,0.6882794871794874,0.5358997418710931,5.740762051282052,1.2734603963291262,38.46153846153846,1.7715703594442807,26.30711538461539,0.1350264261315028,12.119999999999997,3.215104352894318,1704.8461538461538,351.6612793365448,15.307692307692308,8.49832562694196,22.128335897435896,3.1109834695217535,-0.43276153846153853,0.06829718633690895,-1.0583012820512823,0.027272130635535415,-0.07553846153846154,0.04613069326964924,-21.37023076923077,10.76426523210086,30.441883333333333,22.15839800519333,-123.32603974358975,7.899674185855285,100.0,0.0,14.6452640171476,4.298336417752842,26.886599999999994,1.1306805501113029,-12.241335982852396,4.537446128872444
83.0,20.0,0.0,0.0,0.0,26.069013461538468,1.186930754303526,-0.2471951923076923,0.08169208255982673,0.696029807692307,0.4352050045288544,5.920581153846154,1.3118810967708223,38.46153846153846,1.7715703594442807,26.269063461538458,0.14689819573956145,13.221923076923074,3.9557472307828507,1704.8461538461538,351.6612793365448,15.307692307692308,8.49832562694196,23.66432307692308,3.0845482934857995,-0.4740692307692308,0.06891235314067154,-1.0765634615384618,0.026543878984399843,-0.0744403846153846,0.046833048201522794,-21.663438461538462,10.843430404676445,30.804946153846153,23.72625951422147,-122.15856538461539,8.814872835234437,100.0,0.0,14.163241235155521,4.680611550312348,26.069013461538468,1.186930754303526,-11.905772226382938,4.93395720741703
84.0,20.0,0.0,0.0,0.0,25.1892717948718,1.2098706569507445,-0.24032487179487175,0.08401319812839342,0.6280389743589738,0.36285384796363623,6.066693076923075,1.3508362428296612,38.46153846153846,1.7715703594442807,26.24249230769231,0.1604497900854393,15.547179487179488,4.241369138726339,1704.8461538461538,351.6612793365448,15.307692307692308,8.49832562694196,25.064256410256412,2.9458740108953023,-0.5119641025641026,0.06864779606275431,-1.0912589743589747,0.024962965115354938,-0.07276666666666666,0.04667423652889844,-21.574156410256407,10.721482772741915,30.938348717948717,24.795657049649698,-119.32331794871794,9.990468977879678,100.0,0.0,13.76960086586875,4.813601676153329,25.1892717948718,1.2098706569507445,-11.419670929003045,5.056796859957632
85.0,20.0,0.0,0.0,0.0,24.132349358974356,1.4148785130453259,-0.23341282051282047,0.08257595467308229,0.658835256410256,0.37744899779313534,6.24315673076923,1.3624705950323792,38.46153846153846,1.7715703594442807,26.213788461538464,0.16255903069820082,17.195512820512814,3.4227946921008128,1704.8461538461538,351.6612793365448,15.307692307692308,8.49832562694196,26.33826282051282,2.9118595600761443,-0.5480128205128205,0.07170054118929377,-1.102842948717949,0.02323294269067901,-0.07101602564102563,0.04509113006660803,-21.05757051282051,10.546192668412303,30.65283974358974,25.36372149822265,-114.35548397435898,12.478326704130286,100.0,0.0,13.373569499629223,4.731253692031203,24.132349358974356,1.4148785130453259,-10.758779859345136,5.103324542425029
86.0,20.0,0.0,0.0,0.0,22.892046153846152,1.3924383818986805,-0.22378769230769227,0.08046595743829524,0.7589576923076924,0.5169372294064936,6.441436538461537,1.434169439202892,38.46153846153846,1.7715703594442807,26.177384615384614,0.16730880596623174,18.526923076923076,1.9947045279554956,1704.8461538461538,351.6612793365448,15.307692307692308,8.49832562694196,27.479223076923077,2.5989564615526266,-0.5810115384615385,0.06452958593961734,-1.1136923076923078,0.018846260596243912,-0.06744615384615385,0.04405041866560844,-20.316273076923075,10.203108331153114,29.808876923076923,26.514773179950947,-107.84739230769233,13.51553202095791,100.0,0.0,12.822090276203047,4.61035975569363,22.892046153846152,1.3924383818986805,-10.069955877643107,5.113334434210933
87.0,20.0,0.0,0.0,0.0,21.361507692307693,1.5127019806751285,-0.2099488461538461,0.0748790992641831,1.1576238461538462,0.5920406755288155,6.82256,1.5064750669931448,38.46153846153846,1.7715703594442807,26.150053846153845,0.17628606803889965,18.615384615384617,1.96116135138184,1704.8461538461538,351.6612793365448,15.307692307692308,8.49832562694196,28.264515384615386,2.2612745854835588,-0.6037961538461538,0.05720918444284433,-1.12045,0.0170583762416004,-0.0654346153846154,0.042297176665188355,-19.286330769230766,9.731451043365288,28.20325769230769,26.54412992234891,-99.12205769230766,13.788869631211202,100.0,0.0,12.029182798256812,4.290256361578839,21.361507692307693,1.5127019806751285,-9.332324894050881,4.656835429419306
88.0,20.0,0.0,0.0,0.0,19.935387179487176,1.5329920290313006,-0.19066538461538454,0.07074741585277977,1.6003941025641024,0.6277767137044881,7.1493607692307695,1.5636386713688915,38.46923076923077,1.7744338208610049,26.136076923076924,0.1828549420884045,18.615384615384617,1.96116135138184,1704.8461538461538,351.6612793365448,15.307692307692308,8.49832562694196,28.486323076923075,2.113140077531154,-0.6099435897435896,0.05318734918023752,-1.1223153846153846,0.015424258615769876,-0.06386666666666667,0.04074371717073551,-18.082287179487174,9.126783868110754,26.575933333333328,26.14596468635775,-90.56261538461537,14.794624400291799,100.0,0.0,10.924321837700113,4.053528339821215,19.935387179487176,1.5329920290313006,-9.011065341787063,4.474846831549741
89.0,20.0,0.0,0.0,0.0,18.81603846153846,1.4329432753816664,-0.17149749999999997,0.06769840152101081,1.9016273076923076,0.7059598306252712,7.328856794871793,1.6163758239917763,38.50807692307693,1.8019145800637038,26.144048076923074,0.1831227044802305,18.615384615384617,1.96116135138184,1704.8461538461538,351.6612793365448,15.307692307692308,8.49832562694196,28.30187628205128,2.124177087539094,-0.6050102564102564,0.05410651779939335,-1.1220057692307692,0.015586329439114689,-0.06325192307692308,0.0388179816084485,-17.09832179487179,8.403435901733909,24.994732051282053,25.56924621597417,-83.8579814102564,15.384478837899744,100.0,0.0,9.826082947044835,3.8788326869359535,18.81603846153846,1.4329432753816664,-8.989955514493627,4.32640968804379
90.0,20.0,0.0,0.0,0.0,17.478570512820507,1.494862830699475,-0.1473826923076923,0.0670438169293899,2.128710897435897,0.5553542164129197,7.32638782051282,1.6226004374977683,38.53846153846154,1.838059177083681,26.173288461538455,0.1873408216634553,18.615384615384617,1.96116135138184,1704.8461538461538,351.6612793365448,15.307692307692308,8.49832562694196,27.75575641025641,2.1275313410569296,-0.5903846153846153,0.052772546929267264,-1.1192307692307693,0.017880844929270355,-0.0637948717948718,0.037237982631009275,-16.023314102564097,7.644275953407067,22.832288461538464,24.822471155635377,-76.13383974358973,14.864887083958825,100.0,0.0,8.444406242505993,3.84132775250178,17.478570512820507,1.494862830699475,-9.03416427031452,3.9184553193696208
91.0,20.0,0.0,0.0,0.0,15.911346794871795,2.0300865459549007,-0.11754653846153847,0.06896022474976764,2.0357406410256407,0.5553895123526829,7.0487785897435895,1.6278593978446185,38.53846153846154,1.838059177083681,26.232546153846155,0.18901266143995593,18.615384615384617,1.96116135138184,1704.8461538461538,351.6612793365448,15.307692307692308,8.49832562694196,26.668537179487178,2.3347127312241613,-0.5618314102564103,0.05800734998006208,-1.1146961538461542,0.019278500580060226,-0.06573782051282052,0.0345730182392417,-14.832384615384614,7.032701041118825,20.38583974358975,23.818102422117263,-67.51087435897436,16.089163475560007,100.0,0.0,6.734920550218359,3.9511298324352895,15.911346794871795,2.0300865459549007,-9.176426244653436,3.7888718253735134
92.0,20.0,0.0,0.0,0.0,14.242553846153847,2.14396333051305,-0.08779923076923077,0.06004763988188559,1.8601023076923076,0.5463406984899276,6.652775384615385,1.5748786828126942,38.53846153846154,1.838059177083681,26.30376153846154,0.17503745902388615,18.615384615384617,1.96116135138184,1704.8461538461538,351.6612793365448,15.307692307692308,8.49832562694196,25.31159230769231,2.5943353556428397,-0.5269307692307693,0.06347605387376104,-1.1115,0.020017772103808118,-0.06696923076923077,0.032182265541515494,-13.635084615384615,6.2241778810501405,17.59090769230769,22.32971641508997,-58.5641076923077,14.150341198230468,100.0,0.0,5.0305253675720785,3.4404763349534857,14.242553846153847,2.14396333051305,-9.212028478581765,3.6774691839247207
93.0,20.0,0.0,0.0,0.0,12.590884615384613,1.6772739710476179,-0.06424173076923075,0.05598690357471663,1.5281786538461541,0.630385239545721,6.008045384615385,1.4343605380446884,38.52961538461538,1.826254047539347,26.389851923076925,0.1381492884388251,18.615384615384617,1.96116135138184,1704.8461538461538,351.6612793365448,15.307692307692308,8.49832562694196,23.64370576923077,2.5030735937773376,-0.4855557692307692,0.0591527113950377,-1.1066923076923076,0.021175989668998637,-0.0725846153846154,0.028019185460076326,-12.43305192307692,4.642255746175138,14.717249999999998,20.40249263820477,-50.055924999999995,12.596495411218546,100.0,0.0,3.680780041692642,3.2078132828371646,12.590884615384613,1.6772739710476179,-8.910104573691969,3.6354986920595596
94.0,20.0,0.0,0.0,0.0,10.865423076923076,1.8186063066662213,-0.045133461538461546,0.05744834395818962,1.0553157692307689,0.6957112433829034,5.271148846153846,1.3891295289794308,38.53846153846154,1.838059177083681,26.4838,0.1290289269892606,18.615384615384617,1.96116135138184,1704.8461538461538,351.6612793365448,15.307692307692308,8.49832562694196,21.620188461538454,2.8568824809329403,-0.4382615384615385,0.06462212671785465,-1.1022961538461542,0.022723106843373846,-0.0781423076923077,0.025179407031571215,-11.43416923076923,3.8700149324537967,11.447396153846153,18.89714205146335,-41.6725,10.706634827769177,100.0,0.0,2.5859568609698735,3.2915476488201474,10.865423076923076,1.8186063066662213,-8.279466215953201,3.185418910420823
95.0,20.0,0.0,0.0,0.0,9.445499999999997,1.8084031989575795,-0.034104807692307705,0.05391357158417105,0.6375067307692307,0.7335742607111341,4.576015384615385,1.2781311323975513,38.56923076923077,1.869923898081252,26.554865384615386,0.1077835848069924,18.615384615384617,1.96116135138184,1704.8461538461538,351.6612793365448,15.307692307692308,8.49832562694196,19.87792307692308,2.8960729684947832,-0.39866346153846144,0.0638281263357971,-1.0991538461538464,0.021753514304943516,-0.08383653846153843,0.023679732083333637,-10.659490384615385,3.2708556781679965,8.701153846153847,17.385337049950582,-34.94630769230769,9.382625388532693,100.0,0.0,1.9540615418745362,3.0890201102494452,9.445499999999997,1.8084031989575795,-7.4914384581254625,2.865143446979122
96.0,20.0,0.0,0.0,0.0,7.884923076923075,1.8423023292191079,-0.026960000000000005,0.04936361218549549,0.26735692307692244,0.607688278371529,3.8247284615384607,1.0455157629445564,38.596923076923076,1.8313509095326748,26.628353846153843,0.07151982791237213,18.615384615384617,1.96116135138184,1704.8461538461538,351.6612793365448,15.307692307692308,8.49832562694196,17.954815384615383,2.7850930049378704,-0.35604615384615373,0.05908457146002996,-1.095923076923077,0.020815000508139447,-0.08971538461538463,0.019727760994247504,-9.723876923076922,2.1162731068191882,5.838830769230768,15.24002037538714,-27.686861538461528,6.995428726308446,100.0,0.0,1.5446942156726995,2.828326639749453,7.884923076923075,1.8423023292191079,-6.3402288612503765,2.6602510053200676
97.0,20.0,0.0,0.0,0.0,6.579434615384615,1.9666624956392087,-0.024646923076923084,0.046942702586811574,0.02754615384615377,0.4324619784612465,3.2184496153846145,0.8727871778823553,38.61538461538461,1.7905736081361878,26.678755769230772,0.05745702450862329,18.615384615384617,1.96116135138184,1704.8461538461538,351.6612793365448,15.307692307692308,8.49832562694196,16.325549999999996,2.9670194298656014,-0.3213826923076923,0.06206727792050765,-1.0927576923076925,0.021039551764748626,-0.09558846153846154,0.01741866417204436,-9.041442307692307,1.7336501759981615,3.3607788461538446,13.975213085117325,-21.829399999999996,5.8980408822930315,100.0,0.0,1.4121646702912853,2.6896187371621547,6.579434615384615,1.9666624956392087,-5.167269945093329,2.390527671411475
98.0,20.0,0.0,0.0,0.0,5.277096153846154,2.0021955903419157,-0.025014230769230775,0.04526458449367027,-0.1348034615384613,0.3355502075212276,2.66018576923077,0.7370472704958515,38.61538461538461,1.7905736081361878,26.721700000000002,0.04631019758109402,18.615384615384617,1.96116135138184,1704.8461538461538,351.6612793365448,15.307692307692308,8.49832562694196,14.768357692307692,2.9810478709572026,-0.2889153846153846,0.061735044778846296,-1.0891346153846155,0.020033111436972346,-0.10311923076923077,0.014666097483128054,-8.287834615384615,1.5410382463630932,1.1587730769230775,12.781738306617221,-16.16511538461538,4.7833633755918825,100.0,0.0,1.4332098508432065,2.5934696529006165,5.277096153846154,2.0021955903419157,-3.843886303002947,2.175575436036659
99.0,20.0,0.0,0.0,0.0,4.041982692307691,1.8852617244797762,-0.026417884615384617,0.044434043934197046,-0.20387576923076914,0.24736140758288183,2.1077451923076924,0.584459281347265,38.61846153846154,1.7895422706551356,26.76034615384615,0.02958240329343428,18.615384615384617,1.96116135138184,1704.8461538461538,351.6612793365448,15.307692307692308,8.49832562694196,13.394163461538461,2.7724990160343688,-0.25963653846153845,0.0563378124489979,-1.0859076923076925,0.018043523449191887,-0.11019038461538465,0.01290891179945675,-7.380863461538461,1.7292463551245498,-0.41976923076922995,10.751789984212644,-10.869325,3.672713312395887,100.0,0.0,1.513633292125127,2.545883184128367,4.041982692307691,1.8852617244797762,-2.5283494001825653,2.356970468184194
100.0,20.0,0.0,0.0,0.0,2.77,2.0231381564292636,-0.02934615384615385,0.041503679169627654,-0.23423076923076927,0.1506217269034737,1.5792692307692304,0.4379676296433158,38.65384615384615,1.787563877287918,26.79423076923077,0.026559077833851794,18.615384615384617,1.96116135138184,1704.8461538461538,351.6612793365448,15.307692307692308,8.49832562694196,12.01653846153846,2.688593598605326,-0.23076923076923078,0.05403132994277131,-1.0796153846153846,0.017083505314956685,-0.11538461538461539,0.012721876978109553,-6.6753846153846155,2.124958786930666,-2.2265384615384614,9.274927036826844,-5.521538461538461,1.623501628721554,100.0,0.0,1.6814107603262234,2.377985650684694,2.77,2.0231381564292636,-1.0885892396737764,2.102966313074832
