cycle_index,gait_percent,segment_id,walk_dt_ms,walk_exec_ms,walk_out,walk_state,walk_tilt_forward_deg,walk_pos_rad,walk_vel_rad_s,walk_tq_nm,walk_temp_c,walk_vbus_v,walk_pattern,walk_err_code,walk_fb_age_ms,walk_typical_stride_ms,walk_effective_step_count,walk_tilt_accel_deg,walk_acc_x,walk_acc_y,walk_acc_z,walk_gyr_x,walk_gyr_y,walk_gyr_z,cfg_gait_model,cfg_gait_mode,cfg_side_is_left,cfg_assist_pct,ankle_joint_angle_deg,leg_tilt_angle_deg,foot_tilt_angle_deg
6,0.0,1,20.0,0.0,0,1,-0.04,0.036,-0.876,-0.0,34.0,26.88,0,0,9.0,0.0,1.0,2.98,-0.06,-1.06,-0.08,-10.21,10.08,4.5,0,1,1,100.0,-2.0626480624709633,-0.04,-2.0226480624709633
6,1.0,1,20.0,0.0,0,1,-0.4402,0.02382,-0.90036,-0.0,34.0,26.88,0,0,9.0,0.0,1.0,2.3275,-0.042600000000000006,-1.06,-0.0887,-9.9664,9.0447,8.562899999999999,0,1,1,100.0,-1.364785468001621,-0.4402,-0.924585468001621
6,2.0,1,20.0,0.0,0,1,-0.8034,0.014600000000000002,-0.65684,-0.0,34.0,26.88,0,0,9.0,0.0,1.0,1.7712,-0.0326,-1.0526,-0.09,-9.7598,8.1056,12.2336,0,1,1,100.0,-0.8365183808910021,-0.8034,-0.03311838089100205
6,3.0,1,20.0,0.0,0,1,-1.1235,0.005290000000000004,-0.68895,-0.0,34.0,26.88,0,0,9.0,0.0,1.0,1.3050000000000002,-0.0239,-1.05,-0.0961,-9.5963,7.262700000000001,15.4938,0,1,1,100.0,-0.3030946736242057,-1.1235,0.8204053263757942
6,4.0,1,20.0,0.0,0,1,-1.3943999999999999,-0.003319999999999998,-0.7126800000000001,-0.0,34.0,26.88,0,0,9.0,0.0,1.0,0.9228000000000002,-0.015200000000000003,-1.05,-0.1,-9.4676,6.4968,18.3444,0,1,1,100.0,0.19022198798343318,-1.3943999999999999,1.5846219879834331
6,5.0,1,20.0,0.0,0,1,-1.6135,-0.01115,-0.6742,-0.0,34.0,26.88,0,0,9.0,0.0,1.0,0.622,-0.01,-1.0465,-0.1,-9.3615,5.794,20.795,0,1,1,100.0,0.6388479415708679,-1.6135,2.252347941570868
6,6.0,1,20.0,0.0,0,1,-1.783,-0.019199999999999995,-0.6697200000000001,-0.0,34.0,26.88,0,0,9.0,0.0,1.0,0.4004000000000001,-0.007800000000000005,-1.04,-0.1022,-9.2592,5.1394,22.866600000000002,0,1,1,100.0,1.1000789666511803,-1.783,2.8830789666511802
6,7.0,1,20.0,0.0,0,1,-1.9071999999999998,-0.027539999999999995,-0.5200500000000001,-0.0,34.0,26.88,0,0,9.0,0.0,1.0,0.25190000000000007,0.0,-1.04,-0.1109,-9.1338,4.506100000000001,24.5949,0,1,1,100.0,1.577925767790287,-1.9071999999999998,3.4851257677902865
6,8.0,1,20.0,0.0,0,1,-1.9768,-0.03276,-0.3852000000000001,-0.0,34.0,26.88,0,0,9.0,0.0,1.0,0.17360000000000006,0.0,-1.04,-0.11959999999999998,-8.977200000000002,3.8884000000000003,25.9956,0,1,1,100.0,1.8770097368485767,-1.9768,3.853809736848577
6,9.0,1,20.0,0.0,0,1,-1.98415,-0.035075,-0.396015,-0.0,34.0,26.88,0,0,9.0,0.0,1.0,0.17,0.0,-1.03585,-0.12,-8.85795,3.5861,26.5663,0,1,1,100.0,2.0096494664213624,-1.98415,3.9937994664213625
6,10.0,1,20.0,0.0,0,1,-1.9885,-0.03725,-0.41385,-0.0,34.0,26.88,0,0,9.0,0.0,1.0,0.17,0.0,-1.0315,-0.12,-8.740499999999999,3.299,27.097,0,1,1,100.0,2.1342677868623166,-1.9885,4.122767786862316
6,11.0,1,20.0,0.0,0,1,-1.8830000000000002,-0.046849999999999996,-0.2618200000000003,-0.0,34.0,26.88,0,0,9.0,0.0,1.0,0.33549999999999985,-0.005699999999999989,-1.03,-0.13,-8.0664,2.2494000000000005,28.4849,0,1,1,100.0,2.6843072701879067,-1.8830000000000002,4.567307270187907
6,12.0,1,20.0,0.0,0,1,-1.7652,-0.05032,-0.16291999999999995,-0.0,34.0,26.88,0,0,9.0,0.0,1.0,0.49679999999999985,-0.01,-1.03,-0.1344,-7.6004000000000005,1.7624000000000004,28.8576,0,1,1,100.0,2.8831236250983023,-1.7652,4.648323625098302
6,13.0,1,20.0,0.0,0,1,-1.6049,-0.05293,-0.20156999999999997,-0.0,34.0,26.88,0,0,9.0,0.0,1.0,0.7098999999999999,-0.013099999999999995,-1.0269,-0.14,-7.053,1.3081000000000003,29.0324,0,1,1,100.0,3.0326656096274474,-1.6049,4.637565609627448
6,14.0,1,20.0,0.0,0,1,-1.4132000000000005,-0.05571999999999999,-0.24101999999999996,-0.0,34.0,26.872799999999998,0,0,9.0,0.0,1.0,0.9711999999999994,-0.02,-1.02,-0.14179999999999998,-6.4296000000000015,0.8890000000000008,29.032999999999998,0,1,1,100.0,3.1925208344689464,-1.4132000000000005,4.605720834468947
6,15.0,1,20.0,0.0,0,1,-1.1844999999999999,-0.05925,-0.27315,-0.0,34.0,26.842,0,0,9.0,0.0,1.0,1.27,-0.0205,-1.02,-0.15,-5.747,0.4985,28.895,0,1,1,100.0,3.3947749361501276,-1.1844999999999999,4.579274936150128
6,16.0,1,20.0,0.0,0,1,-0.9148000000000004,-0.06359999999999999,-0.27576,-0.0,34.0,26.8768,0,0,9.0,0.0,1.0,1.6179999999999994,-0.029199999999999986,-1.02,-0.15,-4.998800000000001,0.12440000000000047,28.634,0,1,1,100.0,3.6440115770320354,-0.9148000000000004,4.558811577032036
6,17.0,1,20.0,0.0,0,1,-0.6214000000000008,-0.06795,-0.3905499999999997,-0.0,34.0,26.88,0,0,9.0,0.0,1.0,2.005499999999999,-0.037899999999999975,-1.02,-0.15789999999999998,-4.211100000000002,-0.21019999999999914,28.3019,0,1,1,100.0,3.8932482179139436,-0.6214000000000008,4.514648217913944
6,18.0,1,20.0,0.0,0,1,-0.30580000000000024,-0.07428,-0.44938,-0.0,34.0,26.88,0,0,9.0,0.0,1.0,2.4168,-0.046599999999999996,-1.02,-0.16,-3.4062,-0.4945999999999998,27.9296,0,1,1,100.0,4.255930502231755,-0.30580000000000024,4.561730502231756
6,19.0,1,20.0,0.0,0,1,0.03199999999999933,-0.08017999999999999,-0.5074599999999999,-0.0,34.0,26.8959,0,0,9.0,0.0,1.0,2.8449999999999993,-0.05,-1.02,-0.16,-2.5971000000000015,-0.7430999999999995,27.5468,0,1,1,100.0,4.59397560135894,0.03199999999999933,4.561975601358941
6,20.0,1,20.0,0.0,0,1,0.388,-0.0858,-0.542,-0.0,34.0,26.898,0,0,9.0,0.0,1.0,3.292,-0.054,-1.016,-0.16,-1.8,-0.9540000000000001,27.168,0,1,1,100.0,4.915977882222464,0.388,4.527977882222464
6,21.0,1,20.0,0.0,0,1,0.7587999999999995,-0.09242999999999998,-0.5670499999999999,-0.0,34.0,26.88,0,0,9.0,0.0,1.0,3.7503999999999995,-0.06269999999999999,-1.01,-0.16,-1.022400000000001,-1.1232,26.810100000000002,0,1,1,100.0,5.295848900394199,0.7587999999999995,4.537048900394199
6,22.0,1,20.0,0.0,0,1,1.144399999999999,-0.10025999999999999,-0.6447000000000002,-0.0,34.0,26.88,0,0,9.0,0.0,1.0,4.204199999999998,-0.07139999999999998,-1.01,-0.1614,-0.26380000000000187,-1.2595999999999996,26.498,0,1,1,100.0,5.744474853981633,1.144399999999999,4.600074853981634
6,23.0,1,20.0,0.0,0,1,1.5445999999999998,-0.10807,-0.60438,-0.0,34.0,26.88,0,0,9.0,0.0,1.0,4.6651,-0.08009999999999999,-1.01,-0.17,0.45769999999999955,-1.3812999999999998,26.237599999999997,0,1,1,100.0,6.191954891978806,1.5445999999999998,4.647354891978806
6,24.0,1,20.0,0.0,0,1,1.9447999999999992,-0.11416,-0.46344000000000024,-0.0,34.0,26.88,0,0,9.0,0.0,1.0,5.108799999999999,-0.08879999999999998,-1.01,-0.17,1.1275999999999986,-1.4943999999999997,26.0288,0,1,1,100.0,6.540886189213478,1.9447999999999992,4.596086189213479
6,25.0,1,20.0,0.0,6,2,2.3599999999999985,-0.12099999999999998,-0.5564999999999996,-0.0,34.0,26.88,0,0,9.0,0.0,1.0,5.537499999999999,-0.09749999999999998,-1.0025,-0.16250000000000003,1.7449999999999979,-1.5849999999999997,25.88,0,1,1,100.0,6.93278932108296,2.3599999999999985,4.572789321082961
6,26.0,1,20.0,0.0,6,2,2.7775999999999996,-0.12548,-0.7595399999999997,-0.07005999999999987,34.0,26.8552,0,0,14.57999999999999,0.0,1.0,5.97,-0.10619999999999999,-1.0,-0.16,2.298199999999999,-1.7401999999999997,25.7036,0,1,1,100.0,7.18947441330157,2.7775999999999996,4.411874413301571
6,27.0,1,20.0,0.0,6,2,3.195199999999999,-0.12455000000000001,-0.29750000000000265,-0.9371799999999961,34.0,26.8057,0,0,16.53000000000001,0.0,1.0,6.409899999999999,-0.11489999999999997,-1.0,-0.16,2.7994999999999988,-2.001299999999999,25.4142,0,1,1,100.0,7.136189338354404,3.195199999999999,3.940989338354405
6,28.0,1,20.0,0.0,6,2,3.6163999999999983,-0.12020000000000002,0.29295999999999994,-1.9577199999999984,34.0,26.7592,0,0,15.0,0.0,1.0,6.849999999999998,-0.12359999999999996,-1.0,-0.16,3.2491999999999983,-2.3699999999999983,24.9552,0,1,1,100.0,6.886952697472496,3.6163999999999983,3.2705526974724974
6,29.0,1,20.0,0.0,6,2,4.040399999999999,-0.11631000000000001,0.2503200000000004,-2.3369299999999993,34.0,26.74,0,0,15.0,0.0,1.0,7.280399999999999,-0.13,-1.0,-0.16,3.648899999999999,-2.818799999999999,24.3245,0,1,1,100.0,6.664072115166605,4.040399999999999,2.623672115166606
6,30.0,1,20.0,0.0,6,2,4.426333333333334,-0.114,0.0801,-2.639533333333333,34.0,26.738666666666663,0,0,15.0,0.0,1.0,7.665,-0.13033333333333333,-1.0,-0.16,3.993,-3.2693333333333334,23.639333333333337,0,1,1,100.0,6.531718864491385,4.426333333333334,2.105385531158051
6,31.0,1,20.0,0.0,6,2,4.568433333333333,-0.114,0.046170000000000044,-2.6528733333333334,34.0,26.727066666666666,0,0,15.0,0.0,1.0,7.7955,-0.13323333333333334,-1.0,-0.16,4.1061,-3.437533333333333,23.372533333333333,0,1,1,100.0,6.531718864491385,4.568433333333333,1.9632855311580517
6,32.0,1,20.0,0.0,6,2,4.710533333333333,-0.114,0.01224000000000009,-2.6662133333333333,34.0,26.715466666666664,0,0,15.0,0.0,1.0,7.925999999999999,-0.13613333333333333,-1.0,-0.16,4.2192,-3.605733333333333,23.105733333333333,0,1,1,100.0,6.531718864491385,4.710533333333333,1.8211855311580516
6,33.0,1,20.0,0.0,6,2,4.852633333333333,-0.114,-0.02168999999999987,-2.6795533333333332,34.0,26.703866666666666,0,0,15.0,0.0,1.0,8.0565,-0.13903333333333334,-1.0,-0.16,4.3323,-3.773933333333333,22.838933333333333,0,1,1,100.0,6.531718864491385,4.852633333333333,1.6790855311580515
6,34.0,1,20.0,0.0,6,2,5.178399999999998,-0.11516,-0.07417999999999968,-2.8011599999999994,34.0,26.7,0,0,15.0,0.0,1.0,8.331999999999997,-0.14579999999999996,-1.0,-0.16,4.590399999999998,-4.125799999999997,22.245400000000004,0,1,1,100.0,6.598181968726561,5.178399999999998,1.4197819687265625
6,35.0,1,20.0,0.0,6,2,6.547,-0.1238,-0.28105,-3.1854500000000003,34.0,26.67,0,0,15.0,0.0,1.0,9.306000000000001,-0.1645,-1.0,-0.1555,5.872,-5.227,20.7005,0,1,1,100.0,7.0932175037195915,6.547,0.5462175037195918
6,36.0,1,20.0,0.0,6,2,6.950399999999999,-0.12728,-0.24928000000000006,-3.26052,34.0,26.6796,0,0,14.680000000000001,0.0,1.0,9.5368,-0.17,-1.0,-0.15,6.400799999999999,-5.4403999999999995,20.7136,0,1,1,100.0,7.292606816425118,6.950399999999999,0.34220681642511863
6,37.0,1,20.0,0.18999999999999773,6,2,7.355499999999998,-0.13019,-0.14846000000000084,-3.27863,34.0,26.6943,0,0,14.189999999999998,0.0,1.0,9.739899999999999,-0.1719,-1.0019,-0.15,7.0238999999999985,-5.626099999999999,20.9821,0,1,1,100.0,7.459337534808188,7.355499999999998,0.10383753480818925
6,38.0,1,20.0,1.0,6,2,7.746999999999998,-0.131,0.1390000000000005,-3.1775599999999997,34.0,26.67,0,0,15.0,0.0,1.0,9.9202,-0.18,-1.01,-0.15,7.7369999999999965,-5.7908,21.516399999999997,0,1,1,100.0,7.505747116213785,7.746999999999998,-0.24125288378621335
6,39.0,1,20.0,1.0,6,2,8.138499999999999,-0.131,0.00850000000000068,-3.1566799999999997,34.0,26.67,0,0,15.0,0.0,1.0,10.0681,-0.18,-1.01,-0.15,8.563499999999996,-5.947399999999999,22.334199999999996,0,1,1,100.0,7.505747116213785,8.138499999999999,-0.632752883786214
6,40.0,1,20.0,1.0,6,2,8.522,-0.12940000000000002,0.0972,-3.0189999999999997,34.0,26.694,0,0,15.0,0.0,1.0,10.176,-0.18,-1.018,-0.15,9.485999999999999,-6.104,23.456,0,1,1,100.0,7.414073868992854,8.522,-1.1079261310071464
6,41.0,1,20.0,1.0,6,2,8.8981,-0.12632000000000002,0.2546599999999998,-2.8443,34.0,26.7,0,0,15.0,0.0,1.0,10.253599999999999,-0.18669999999999998,-1.02,-0.15,10.483899999999998,-6.2405,24.832199999999997,0,1,1,100.0,7.2376028680925595,8.8981,-1.66049713190744
6,42.0,1,20.0,1.0,6,2,9.2722,-0.12068000000000002,0.4717399999999993,-2.595180000000001,34.0,26.7216,0,0,15.0,0.0,1.0,10.2962,-0.19,-1.0254,-0.15,11.534199999999997,-6.3709999999999996,26.449199999999994,0,1,1,100.0,6.914454671638776,9.2722,-2.357745328361224
6,43.0,1,20.0,1.0,6,2,9.5561,-0.11515500000000002,0.6245749999999998,-2.4083800000000006,34.0,26.74,0,0,15.0,0.0,1.0,10.312050000000001,-0.19,-1.03205,-0.15,12.358299999999998,-6.4687,27.827399999999997,0,1,1,100.0,6.597895489828996,9.5561,-2.9582045101710044
6,44.0,1,20.0,1.0,6,2,9.7388,-0.11124000000000002,0.6745999999999998,-2.3370400000000005,34.0,26.74,0,0,15.0,0.0,1.0,10.3164,-0.19,-1.0364,-0.15,12.906399999999996,-6.5296,28.819199999999995,0,1,1,100.0,6.373582513035279,9.7388,-3.3652174869647205
6,45.0,1,20.0,1.0,6,2,10.3515,-0.09295000000000005,0.8319499999999994,-1.8699750000000015,34.0,26.773,0,0,10.0,0.0,1.0,10.333,-0.19,-1.05075,-0.15,14.675499999999996,-6.7357499999999995,32.44674999999999,0,1,1,100.0,5.3256427057410045,10.3515,-5.025857294258995
6,46.0,1,20.0,1.0,6,2,10.5342,-0.08686,0.9128599999999999,-1.6146300000000002,34.0,26.790399999999998,0,0,10.0,0.0,1.0,10.3504,-0.19,-1.0551000000000001,-0.15,15.1714,-6.8271,33.7039,0,1,1,100.0,4.976711408506331,10.5342,-5.557488591493669
6,47.0,1,20.0,1.0,6,2,10.716899999999999,-0.08077000000000002,0.9937699999999998,-1.3592850000000007,34.0,26.8078,0,0,10.0,0.0,1.0,10.367799999999999,-0.19,-1.05945,-0.15,15.6673,-6.918449999999999,34.96104999999999,0,1,1,100.0,4.627780111271661,10.716899999999999,-6.089119888728338
6,48.0,1,20.0,1.0,6,2,11.514399999999998,-0.05184000000000005,0.9920400000000006,-0.8394800000000004,34.0,26.8172,0,0,10.0,0.0,1.0,10.5388,-0.2,-1.0776000000000001,-0.14,17.380799999999997,-7.566799999999999,40.929599999999986,0,1,1,100.0,2.9702132099581906,11.514399999999998,-8.544186790041808
6,49.0,1,20.0,1.0,6,2,11.903499999999998,-0.03981000000000006,0.9229500000000002,-0.5040800000000022,34.0,26.8289,0,0,10.0,0.0,1.0,10.696,-0.20629999999999996,-1.0863,-0.14,17.957999999999995,-8.066899999999997,44.160299999999985,0,1,1,100.0,2.280944982415811,11.903499999999998,-9.622555017584187
6,50.0,1,20.0,1.0,6,2,12.304999999999998,-0.028500000000000074,0.8000000000000013,-0.3075000000000002,34.0,26.84,0,0,10.0,0.0,1.0,10.904999999999998,-0.21499999999999994,-1.095,-0.13500000000000006,18.345,-8.744999999999996,47.674999999999976,0,1,1,100.0,1.6329297161228504,12.304999999999998,-10.672070283877147
6,51.0,1,20.0,1.0,6,2,12.7213,-0.01867000000000001,0.6370900000000002,-0.17604000000000034,34.0,26.84,0,0,10.0,0.0,1.0,11.1695,-0.22,-1.1037000000000001,-0.13,18.524800000000003,-9.630299999999998,51.500499999999995,0,1,1,100.0,1.0697122035092475,12.7213,-11.651587796490752
6,52.0,1,20.0,1.0,6,2,13.154799999999998,-0.011080000000000017,0.5234800000000003,0.05087999999999969,34.0,26.84,0,0,10.0,0.0,1.0,11.4884,-0.2224,-1.1124,-0.13,18.5044,-10.744799999999998,55.64439999999999,0,1,1,100.0,0.6348372370049531,13.154799999999998,-12.519962762995045
6,53.0,1,20.0,1.0,6,2,13.609399999999999,-0.004340000000000021,0.4356900000000004,0.17688999999999933,34.0,26.8444,0,0,10.0,0.0,1.0,11.854999999999999,-0.23219999999999993,-1.1211,-0.13,18.3204,-12.099099999999995,60.086199999999984,0,1,1,100.0,0.24866368308677847,13.609399999999999,-13.36073631691322
6,54.0,1,20.0,1.0,6,2,14.079199999999997,0.0008799999999999731,0.33042000000000055,0.35001999999999905,34.0,26.879199999999997,0,0,10.0,0.0,1.0,12.29,-0.2495999999999999,-1.1298,-0.13,18.0072,-13.673799999999993,64.80159999999998,0,1,1,100.0,-0.05042028597151091,14.079199999999997,-14.129620285971507
6,55.0,1,20.0,1.0,6,2,14.591499999999996,0.0069499999999999605,0.47079999999999905,0.5622499999999986,34.0,26.846,0,0,10.0,0.0,1.0,12.767499999999997,-0.25849999999999995,-1.1384999999999998,-0.13,17.634500000000003,-15.460999999999988,69.65299999999996,0,1,1,100.0,-0.39820566761591986,14.591499999999996,-14.989705667615917
6,56.0,1,20.0,1.0,6,2,15.126399999999997,0.013039999999999951,0.42976000000000064,0.6493999999999995,34.0,26.84,0,0,10.0,0.0,1.0,13.253199999999996,-0.26719999999999994,-1.14,-0.12280000000000006,17.246000000000002,-17.425999999999984,74.32039999999996,0,1,1,100.0,-0.7471369648505907,15.126399999999997,-15.873536964850587
6,57.0,1,20.0,1.0,6,2,15.6953,0.015,0.08540000000000121,0.45247000000000087,34.0,26.84,0,0,10.0,0.0,1.0,13.6932,-0.2759,-1.14,-0.12,16.8899,-19.527299999999993,78.3706,0,1,1,100.0,-0.8594366926962348,15.6953,-16.554736692696235
6,58.0,1,20.0,1.0,6,2,16.305799999999998,0.014540000000000003,-0.14289999999999994,0.27210000000000023,34.0,26.84,0,0,10.0,0.0,1.0,14.027999999999999,-0.28,-1.1354,-0.12,16.582800000000002,-21.64859999999999,81.3184,0,1,1,100.0,-0.8330806341202172,16.305799999999998,-17.138880634120216
6,59.0,1,20.0,1.0,6,2,16.957399999999996,0.012020000000000027,-0.27672999999999826,0.0980700000000019,34.0,26.84,0,0,10.0,0.0,1.0,14.213099999999999,-0.28,-1.1234,-0.11670000000000004,16.317600000000002,-23.65949999999999,82.7428,0,1,1,100.0,-0.688695269747251,16.957399999999996,-17.646095269747246
6,60.0,1,20.0,0.8,6,2,17.646,0.0056,-0.5934,-0.2974,34.0,26.848,0,0,9.8,0.0,1.0,14.216,-0.278,-1.104,-0.11,16.064,-25.44,82.35799999999999,0,1,1,100.0,-0.320856365273261,17.646,-17.966856365273262
6,61.0,1,20.0,0.0,6,2,18.372299999999992,-0.004909999999999912,-0.8481699999999991,-0.7738199999999977,34.0,26.8772,0,0,9.0,0.0,1.0,14.004300000000002,-0.26860000000000017,-1.0772000000000004,-0.10930000000000006,15.767800000000003,-26.876999999999992,80.02670000000003,0,1,1,100.0,0.28132227740922916,18.372299999999992,-18.090977722590765
6,62.0,1,20.0,0.0,6,2,19.146599999999996,-0.01621999999999997,-0.9621399999999997,-1.0574399999999993,34.0,26.8424,0,0,9.0,0.0,1.0,13.5606,-0.25120000000000003,-1.0424000000000002,-0.10060000000000002,15.367600000000001,-27.833999999999996,75.51140000000001,0,1,1,100.0,0.9293375437021936,19.146599999999996,-18.217262456297803
6,63.0,1,20.0,0.0,6,2,19.96139999999999,-0.028339999999999872,-0.7675000000000022,-1.2381899999999981,34.0,26.84,0,0,9.0,0.0,1.0,12.873900000000008,-0.2338000000000002,-1.0076000000000003,-0.09190000000000009,14.781100000000006,-28.167299999999997,68.79290000000007,0,1,1,100.0,1.6237623914007457,19.96139999999999,-18.337637608599245
6,64.0,1,20.0,0.0,6,2,20.4732,-0.03405999999999998,-0.6618600000000003,-1.2987799999999998,34.0,26.84,0,0,9.0,0.0,1.3399999999999976,12.346000000000002,-0.21980000000000008,-0.9864,-0.08660000000000002,14.296400000000002,-28.0328,63.70980000000003,0,1,1,100.0,1.9514942502155828,20.4732,-18.521705749784417
6,65.0,1,20.0,0.0,1,5,20.8995,-0.037975,-0.587475,-1.327925,34.0,26.84,0,0,9.0,0.0,1.7750000000000001,11.8675,-0.20675000000000002,-0.969,-0.08225,13.844,-27.7805,59.12925,0,1,1,100.0,2.1758072270093014,20.8995,-18.7236927729907
6,66.0,1,20.0,0.0,1,5,22.548399999999994,-0.08111999999999941,-2.9673999999999623,-0.33570000000001865,34.0,26.7344,0,0,17.32000000000003,0.0,2.0,9.77720000000001,-0.1574000000000002,-0.9032000000000003,-0.06160000000000014,11.474000000000013,-25.053200000000018,38.023200000000095,0,1,1,100.0,4.647833634101205,22.548399999999994,-17.90056636589879
6,67.0,1,20.0,0.0,1,5,23.432899999999997,-0.1562299999999998,-5.917860000000003,1.5922199999999973,34.0,26.601,0,0,15.0,0.0,2.0,8.640400000000003,-0.13420000000000004,-0.8713000000000001,-0.047100000000000024,9.812300000000004,-22.625900000000005,25.78230000000003,0,1,1,100.0,8.95131963332884,23.432899999999997,-14.481580366671157
6,68.0,1,20.0,0.0,1,5,24.30519999999999,-0.22791999999999943,-4.9331200000000175,2.5920399999999924,34.0,26.518800000000002,0,0,15.0,0.0,2.0,7.601600000000008,-0.11680000000000018,-0.8452000000000003,-0.038400000000000094,7.909600000000022,-19.699600000000032,13.564400000000123,0,1,1,100.0,13.05885406662169,24.30519999999999,-11.246345933378299
6,69.0,1,20.0,0.0,1,5,25.147599999999997,-0.28089999999999987,-3.2950600000000105,3.333249999999995,34.0,26.46,0,0,15.0,0.0,2.0,6.751400000000002,-0.09970000000000005,-0.8194,-0.029700000000000046,5.778100000000013,-16.48570000000002,1.6919000000000601,0,1,1,100.0,16.094384465224817,25.147599999999997,-9.05321553477518
6,70.0,1,20.0,0.0,1,6,25.948,-0.307,-1.2957999999999998,4.2685,34.0,26.46,0,0,15.0,0.0,2.0,6.212000000000001,-0.091,-0.802,-0.021,3.403,-13.171,-9.853,0,1,1,100.0,17.58980431051627,25.948,-8.358195689483729
6,71.0,1,20.0,0.0,1,6,26.679099999999995,-0.31461999999999996,-0.21669000000000763,4.727889999999997,34.0,26.46,0,0,15.0,0.0,2.0,6.034500000000001,-0.08230000000000007,-0.8,-0.02,0.8277000000000204,-9.871700000000025,-21.25159999999991,0,1,1,100.0,18.026398150405956,26.679099999999995,-8.652701849594038
6,72.0,1,20.0,0.0,1,6,27.3372,-0.31536000000000003,0.010120000000000096,4.71652,34.0,26.46,0,0,15.0,0.0,2.0,6.2368,-0.08639999999999998,-0.8064,-0.013600000000000024,-1.8695999999999928,-6.574400000000009,-32.51599999999997,0,1,1,100.0,18.068797027245644,27.3372,-9.268402972754355
6,73.0,1,20.0,0.0,1,6,27.905999999999995,-0.315,0.007239999999999783,4.610710000000001,34.0,26.4753,0,0,15.0,0.0,2.0,6.8034999999999926,-0.0950999999999999,-0.8201999999999998,-0.01,-4.647299999999971,-3.2006000000000356,-43.64209999999988,0,1,1,100.0,18.04817054662093,27.905999999999995,-9.857829453379065
6,74.0,1,20.0,0.0,1,6,28.374799999999997,-0.31538,-0.007979999999999677,4.55338,34.0,26.49,0,0,12.720000000000027,0.0,2.0,7.687399999999994,-0.11139999999999987,-0.8375999999999999,-0.01,-7.430799999999986,0.34879999999998057,-54.61619999999994,0,1,1,100.0,18.0699429428359,28.374799999999997,-10.304857057164096
6,75.0,1,20.0,0.0,1,6,28.7375,-0.316,-0.034749999999999996,4.5305,34.0,26.49,0,0,9.0,0.0,2.0,8.825,-0.1375,-0.86,-0.01,-10.120000000000001,4.1625000000000005,-65.3475,0,1,1,100.0,18.105466326134014,28.7375,-10.632033673865987
6,76.0,1,20.0,0.0,1,6,28.985599999999998,-0.316,0.012200000000000273,4.5482000000000005,34.0,26.49,0,0,9.0,0.0,2.0,10.151599999999988,-0.1635999999999998,-0.8935999999999998,-0.01,-12.623199999999983,8.293199999999965,-75.63719999999992,0,1,1,100.0,18.105466326134014,28.985599999999998,-10.880133673865984
6,77.0,1,20.0,0.0,1,6,29.0987,-0.316,-0.02259999999999991,4.5134,34.0,26.49,0,0,9.0,0.0,2.0,11.613199999999997,-0.18969999999999992,-0.9197,-0.01,-14.893899999999993,12.738899999999987,-85.25939999999999,0,1,1,100.0,18.105466326134014,29.0987,-10.993233673865987
6,78.0,1,20.0,0.0,1,6,29.057000000000002,-0.316,-0.06513999999999956,4.5173,34.0,26.49,0,0,9.0,0.0,2.0,13.186599999999983,-0.22439999999999966,-0.9543999999999996,-0.01,-16.854999999999983,17.365199999999952,-93.87539999999991,0,1,1,100.0,18.105466326134014,29.057000000000002,-10.951533673865988
6,79.0,1,20.0,0.0,1,6,28.8821,-0.31308,0.2623399999999979,4.8238699999999985,34.0,26.4681,0,0,9.0,0.0,2.0,14.84889999999999,-0.2591999999999998,-0.9818999999999999,-0.01,-18.469399999999993,21.957099999999976,-101.30439999999997,0,1,1,100.0,17.938162649955814,28.8821,-10.943937350044187
6,80.0,1,20.0,0.0,1,6,28.567999999999998,-0.306,0.7478,5.316800000000001,34.0,26.436,0,0,9.0,0.0,2.0,16.624,-0.3,-1.008,-0.01,-19.7,26.349999999999998,-107.248,0,1,1,100.0,17.53250853100319,28.567999999999998,-11.035491468996806
6,81.0,1,20.0,0.0,1,6,28.113300000000002,-0.2935400000000001,1.1083799999999984,5.829439999999996,34.0,26.387100000000004,0,0,9.0,0.0,2.0,18.531599999999983,-0.3481999999999996,-1.0340999999999998,-0.01,-20.519599999999993,30.430899999999966,-111.41669999999998,0,1,1,100.0,16.81860311827019,28.113300000000002,-11.294696881729813
6,82.0,1,20.0,0.0,1,6,27.6574,-0.2806,1.2455500000000002,6.18626,34.0,26.3381,0,0,9.0,0.0,2.0,20.156499999999998,-0.39019999999999994,-1.0534000000000001,-0.01,-20.9055,33.452799999999996,-113.4354,0,1,1,100.0,16.0771957313709,27.6574,-11.5802042686291
6,83.0,1,20.0,0.0,1,6,27.318100000000005,-0.2719000000000001,1.252075,6.350689999999998,34.0,26.307650000000002,0,0,9.0,0.0,2.0,21.22224999999999,-0.4162999999999997,-1.0621,-0.01,-20.97075,35.12319999999998,-113.7051,0,1,1,100.0,15.578722449607088,27.318100000000005,-11.739377550392916
6,84.0,1,20.0,0.0,1,6,25.982000000000006,-0.25276000000000004,0.5320400000000004,6.137719999999999,34.0,26.2744,0,0,9.799999999999955,0.0,2.0,24.76119999999999,-0.5047999999999997,-1.0908,-0.020799999999999954,-20.684800000000003,39.76719999999999,-111.07800000000002,0,1,1,100.0,14.48208122972669,25.982000000000006,-11.499918770273316
6,85.0,1,20.0,0.0,3,7,25.025000000000013,-0.25015000000000004,0.456350000000001,6.297799999999999,34.0,26.213500000000003,0,0,18.499999999999886,0.0,2.0,26.622999999999976,-0.5569999999999994,-1.0995,-0.029499999999999884,-20.08450000000001,41.36799999999998,-106.59750000000007,0,1,1,100.0,14.332539245197545,25.025000000000013,-10.692460754802468
6,86.0,1,20.0,0.0,3,7,23.96140000000001,-0.24262000000000006,0.688979999999998,6.685019999999997,34.0,26.1526,0,0,19.0,0.0,2.0,28.066599999999987,-0.5927999999999998,-1.1082,-0.03,-19.24640000000001,41.8208,-100.41960000000006,0,1,1,100.0,13.901102025464036,23.96140000000001,-10.060297974535972
6,87.0,1,20.0,0.0,3,7,22.808500000000002,-0.22927000000000003,1.350959999999998,7.288259999999998,34.0,26.071,0,0,19.0,0.0,2.0,29.001699999999996,-0.6137999999999999,-1.11,-0.036899999999999974,-18.262700000000002,41.2307,-93.17220000000002,0,1,1,100.0,13.136203368964386,22.808500000000002,-9.672296631035616
6,88.0,1,20.0,0.0,3,7,21.578000000000014,-0.2060800000000003,2.1575599999999913,7.946479999999993,34.0,26.0176,0,0,19.0,0.0,2.0,29.3964,-0.6255999999999999,-1.11,-0.04559999999999991,-17.21680000000001,39.770800000000015,-85.21920000000009,0,1,1,100.0,11.807514242056023,21.578000000000014,-9.770485757943991
6,89.0,1,20.0,0.0,3,7,20.290700000000008,-0.1752300000000002,2.56095,8.338479999999999,34.0,26.0301,0,0,19.0,0.0,2.0,29.282200000000003,-0.6214000000000001,-1.11,-0.05,-16.176900000000003,37.673200000000016,-76.89040000000004,0,1,1,100.0,10.039939444077426,20.290700000000008,-10.250760555922582
6,90.0,1,20.0,0.0,3,7,18.959000000000017,-0.14340000000000036,2.307000000000009,8.219500000000007,34.0,26.102999999999998,0,0,19.0,0.0,2.0,28.72600000000001,-0.6040000000000002,-1.1070000000000002,-0.05299999999999989,-15.198000000000011,35.107000000000035,-68.46700000000011,0,1,1,100.0,8.216214782176026,18.959000000000017,-10.742785217823991
6,91.0,1,20.0,0.0,3,7,17.724850000000004,-0.11887500000000008,1.734650000000001,7.685435000000004,34.0,26.1885,0,0,19.0,0.0,2.0,27.923550000000002,-0.5866000000000001,-1.1,-0.06084999999999997,-14.396900000000004,32.46700000000001,-60.95970000000003,0,1,1,100.0,6.811035789617666,17.724850000000004,-10.913814210382338
6,92.0,1,20.0,0.0,3,7,17.0332,-0.10800000000000003,1.5998000000000003,7.298720000000001,34.0,26.232,0,0,19.0,0.0,2.0,27.3276,-0.5692,-1.1,-0.0652,-14.0228,30.814000000000004,-56.966400000000014,0,1,1,100.0,6.187944187412892,17.0332,-10.845255812587109
6,93.0,1,20.0,0.0,3,7,16.34155000000001,-0.09712500000000011,1.4649500000000015,6.912005000000004,34.0,26.2755,0,0,19.0,0.0,2.0,26.73165000000001,-0.5518000000000002,-1.1,-0.06954999999999996,-13.648700000000003,29.161000000000016,-52.973100000000045,0,1,1,100.0,5.564852585208127,16.34155000000001,-10.776697414791881
6,94.0,1,20.0,0.0,3,7,13.447600000000007,-0.06708000000000007,0.9677600000000002,5.734200000000004,34.0,26.468,0,0,19.0,0.0,2.0,23.567000000000007,-0.47880000000000017,-1.09,-0.07779999999999995,-12.516600000000002,21.59400000000002,-37.697800000000036,0,1,1,100.0,3.843400889737566,13.447600000000007,-9.60419911026244
6,95.0,1,20.0,0.0,3,7,12.099000000000018,-0.05685000000000012,0.5260000000000076,4.7460500000000145,34.0,26.5615,0,0,19.0,0.0,2.0,21.918500000000023,-0.43750000000000056,-1.09,-0.08649999999999988,-12.114000000000006,17.992000000000047,-31.143000000000082,0,1,1,100.0,3.257265065318737,12.099000000000018,-8.84173493468128
6,96.0,1,20.0,0.0,3,7,10.79040000000001,-0.052480000000000006,0.1514800000000019,3.9098400000000053,34.519999999999996,26.636400000000002,0,0,19.0,0.0,2.0,20.27240000000001,-0.3992000000000003,-1.09,-0.09519999999999994,-11.757200000000003,14.511600000000028,-25.050000000000043,0,1,1,100.0,3.0068825088465605,10.79040000000001,-7.78351749115345
6,97.0,1,20.0,0.0,3,7,9.530100000000003,-0.052,0.030699999999999932,3.3100500000000013,35.0,26.697300000000002,0,0,19.0,0.0,2.0,18.671900000000004,-0.3644000000000001,-1.0861,-0.1,-11.417900000000001,11.218200000000008,-19.423200000000012,0,1,1,100.0,2.979380534680281,9.530100000000003,-6.550719465319721
6,98.0,1,20.0,0.0,3,7,8.324200000000012,-0.052,0.015460000000001176,2.7766800000000056,35.0,26.747799999999998,0,0,19.0,0.0,2.0,17.148400000000013,-0.3322000000000003,-1.08,-0.10259999999999991,-11.083800000000004,8.167600000000029,-14.27040000000005,0,1,1,100.0,2.979380534680281,8.324200000000012,-5.3448194653197305
6,99.0,1,20.0,0.0,3,7,7.180100000000006,-0.052,-0.07870000000000005,2.227490000000003,35.0,26.775199999999998,0,0,19.0,0.0,2.0,15.722400000000007,-0.30610000000000015,-1.0787000000000002,-0.11,-10.764500000000002,5.400800000000013,-9.608600000000022,0,1,1,100.0,2.979380534680281,7.180100000000006,-4.200719465319725
6,100.0,1,20.0,0.0,3,7,6.11,-0.052,-0.07,1.682,35.0,26.81,0,0,19.0,0.0,2.0,14.4,-0.28,-1.07,-0.11,-10.46,2.93,-5.45,0,1,1,100.0,2.979380534680281,6.11,-3.1306194653197195
7,0.0,1,20.0,0.0,0,1,4.98,-0.052,0.005,1.154,35.0,26.84,0,0,19.0,0.0,2.0,13.02,-0.25,-1.07,-0.12,-10.13,0.52,-1.36,0,1,1,100.0,2.979380534680281,4.98,-2.0006194653197196
7,1.0,1,20.0,0.0,0,1,4.1436,-0.05282,-0.04912,0.70546,35.0,26.84,0,0,19.0,0.0,2.0,12.0032,-0.2254,-1.0618,-0.12,-9.8758,-1.2184,1.4115999999999993,0,1,1,100.0,3.0263630738810083,4.1436,-1.1172369261189918
7,2.0,1,20.0,0.0,0,1,3.384,-0.053,-0.061,0.607,35.0,26.84,0,0,31.799999999999997,0.0,2.0,11.0824,-0.20720000000000002,-1.06,-0.1264,-9.6216,-2.7712,3.7607999999999997,0,1,1,100.0,3.036676314193363,3.384,-0.3473236858066371
7,3.0,1,20.0,0.0,0,1,1.9518,-0.053,-0.061,0.607,35.0,26.84,0,0,68.19999999999999,0.0,2.0,9.2952,-0.1708,-1.05,-0.13,-8.9906,-5.5312,7.8148,0,1,1,100.0,3.036676314193363,1.9518,1.0848763141933628
7,4.0,1,20.0,0.0,0,1,1.4304000000000001,-0.055799999999999995,-0.4440399999999996,0.43704000000000015,35.0,26.8512,0,0,60.240000000000016,0.0,2.0,8.6016,-0.1572,-1.05,-0.1328,-8.6568,-6.4364,9.303199999999999,0,1,1,100.0,3.1971044968299935,1.4304000000000001,1.7667044968299934
7,5.0,1,20.0,0.0,0,1,0.973,-0.0636,-1.3367,-0.0,35.0,26.88,0,0,12.0,0.0,2.0,7.969999999999999,-0.148,-1.049,-0.14,-8.29,-7.126,10.681,0,1,1,100.0,3.644011577032036,0.973,2.671011577032036
7,6.0,1,20.0,0.0,0,1,0.5876000000000002,-0.06852,-0.5798400000000004,-0.0,35.0,26.88,0,0,12.0,0.0,2.0,7.396,-0.13160000000000002,-1.0408,-0.14,-7.88,-7.5851999999999995,12.0012,0,1,1,100.0,3.9259068122364007,0.5876000000000002,3.3383068122364006
7,7.0,1,20.0,0.0,0,1,0.2836000000000003,-0.07418,-0.39352000000000015,-0.0,35.0,26.8504,0,0,12.0,0.0,2.0,6.896000000000001,-0.1226,-1.04,-0.1474,-7.4182,-7.8446,13.321399999999999,0,1,1,100.0,4.250200924280446,0.2836000000000003,3.966600924280446
7,8.0,1,20.0,0.0,0,1,0.03320000000000014,-0.0788,-0.31984,-0.0,35.0,26.8624,0,0,12.0,0.0,2.0,6.4656,-0.1144,-1.04,-0.15,-6.9172,-7.9479999999999995,14.6304,0,1,1,100.0,4.514907425630887,0.03320000000000014,4.481707425630887
7,9.0,1,20.0,0.0,0,1,-0.16219999999999996,-0.08252,-0.29718,-0.0,35.0,26.88,0,0,12.0,0.0,2.0,6.1094,-0.11,-1.0362,-0.15,-6.3816,-7.9243999999999994,15.911399999999999,0,1,1,100.0,4.728047725419553,-0.16219999999999996,4.890247725419553
7,10.0,1,20.0,0.0,0,1,-0.30200000000000005,-0.08560000000000001,-0.268,-0.0,35.0,26.872,0,0,12.0,0.0,2.0,5.826,-0.108,-1.03,-0.152,-5.816,-7.798,17.146,0,1,1,100.0,4.904518726319847,-0.30200000000000005,5.206518726319848
7,11.0,1,20.0,0.0,0,1,-0.3908,-0.08805999999999999,-0.12483999999999995,-0.0,35.0,26.8408,0,0,12.0,0.0,2.0,5.607200000000001,-0.1,-1.03,-0.16,-5.225200000000001,-7.5834,18.315399999999997,0,1,1,100.0,5.045466343922029,-0.3908,5.4362663439220285
7,12.0,1,20.0,0.0,0,1,-0.4236,-0.09051999999999999,-0.15927999999999998,-0.0,35.0,26.8736,0,0,12.0,0.0,2.0,5.4924,-0.1,-1.03,-0.16,-4.6184,-7.3128,19.356799999999996,0,1,1,100.0,5.186413961524211,-0.4236,5.610013961524212
7,13.0,1,20.0,0.0,0,1,-0.4102,-0.09298,-0.23133999999999996,-0.0,35.0,26.88,0,0,12.0,0.0,2.0,5.450200000000001,-0.1,-1.0234,-0.16,-4.0116000000000005,-7.0224,20.285999999999998,0,1,1,100.0,5.327361579126394,-0.4102,5.737561579126393
7,14.0,1,20.0,0.0,0,1,-0.36160000000000014,-0.0964,-0.2875599999999999,-0.0,35.0,26.88,0,0,12.0,0.0,2.0,5.4688,-0.1,-1.02,-0.16,-3.419200000000001,-6.717600000000001,21.101599999999998,0,1,1,100.0,5.5233131450611355,-0.36160000000000014,5.884913145061136
7,15.0,1,20.0,0.0,0,1,-0.2780000000000002,-0.10049999999999999,-0.34319999999999984,-0.0,35.0,26.88,0,0,12.0,0.0,2.0,5.548,-0.1,-1.02,-0.16,-2.846000000000001,-6.397,21.798999999999996,0,1,1,100.0,5.758225841064773,-0.2780000000000002,6.036225841064773
7,16.0,1,20.0,0.0,0,1,-0.1572000000000002,-0.10447999999999999,-0.4061600000000001,-0.0,35.0,26.88,0,0,12.0,0.0,2.0,5.6876,-0.1,-1.02,-0.16,-2.290800000000001,-6.0608,22.3784,0,1,1,100.0,5.986263043526841,-0.1572000000000002,6.143463043526841
7,17.0,1,20.0,0.0,0,1,-0.0014000000000004298,-0.10776,-0.3389200000000002,-0.0,35.0,26.88,0,0,12.0,0.0,2.0,5.876199999999999,-0.1,-1.02,-0.16,-1.7496000000000014,-5.7246000000000015,22.845799999999997,0,1,1,100.0,6.174193200329751,-0.0014000000000004298,6.175593200329751
7,18.0,1,20.0,0.0,0,1,0.09739999999999993,-0.1099,-0.3549,-0.0,35.0,26.8648,0,0,12.0,0.0,2.0,5.9963999999999995,-0.1038,-1.0162,-0.16,-1.4706000000000001,-5.5594,23.0434,0,1,1,100.0,6.296806168487747,0.09739999999999993,6.199406168487748
7,19.0,1,20.0,0.0,0,1,0.1916999999999998,-0.11195,-0.37744999999999995,-0.0,35.0,26.848399999999998,0,0,12.0,0.0,2.0,6.111199999999999,-0.1079,-1.0121,-0.16,-1.2123000000000006,-5.4077,23.2197,0,1,1,100.0,6.414262516489566,0.1916999999999998,6.222562516489566
7,20.0,1,20.0,0.0,0,1,0.56,-0.11860000000000001,-0.3834,-0.0,35.0,26.88,0,0,12.0,0.0,2.0,6.568,-0.112,-1.01,-0.162,-0.336,-4.9559999999999995,23.683999999999997,0,1,1,100.0,6.795279450251564,0.56,6.235279450251564
7,21.0,1,20.0,0.0,0,1,0.6829999999999998,-0.12188,-0.49901999999999985,-0.0,35.0,26.88,0,0,12.0,0.0,2.0,6.7074,-0.1161,-1.01,-0.1661,-0.08180000000000037,-4.8453,23.7947,0,1,1,100.0,6.983209607054474,0.6829999999999998,6.300209607054474
7,22.0,1,20.0,0.0,0,1,0.8131999999999993,-0.12535999999999997,-0.6063200000000002,-0.0,35.0,26.88,0,0,12.0,0.0,2.0,6.854799999999999,-0.12039999999999998,-1.0096,-0.17,0.1847999999999986,-4.7308,23.911599999999996,0,1,1,100.0,7.182598919759998,0.8131999999999993,6.369398919759999
7,23.0,1,20.0,0.0,0,1,1.0837999999999997,-0.13274,-0.5513800000000001,-0.0,35.0,26.88,0,0,12.0,0.0,2.0,7.1582,-0.1286,-1.0014,-0.17,0.6931999999999996,-4.5422,24.1494,0,1,1,100.0,7.6054417725665475,1.0837999999999997,6.521641772566548
7,24.0,1,20.0,0.0,0,1,1.7483999999999995,-0.14508,-0.47223999999999977,-0.0,35.0,26.88,0,0,12.0,0.0,2.0,7.848399999999999,-0.1368,-1.0,-0.17,1.8147999999999989,-4.1944,24.744799999999998,0,1,1,100.0,8.312471691757983,1.7483999999999995,6.5640716917579836
7,25.0,1,20.0,0.0,0,1,2.069999999999999,-0.15199999999999997,-0.46150000000000035,-0.0,35.0,26.88,0,0,12.0,0.0,2.0,8.165,-0.14499999999999996,-1.0,-0.17,2.314999999999998,-4.065,25.084999999999997,0,1,1,100.0,8.70895848598851,2.069999999999999,6.638958485988512
7,26.0,1,20.0,0.0,0,1,2.4043999999999994,-0.15956,-0.44307999999999986,-0.0,35.0,26.88,0,0,12.0,0.0,2.0,8.488,-0.15,-1.0,-0.17,2.8183999999999996,-3.9452000000000003,25.492399999999996,0,1,1,100.0,9.142114579107416,2.4043999999999994,6.737714579107417
7,27.0,1,20.0,0.0,0,1,2.751599999999999,-0.16612,-0.5370199999999998,-0.0,35.0,26.88,0,0,12.0,0.0,2.0,8.815999999999999,-0.15139999999999998,-1.0,-0.17,3.328199999999999,-3.8262000000000005,25.9808,0,1,1,100.0,9.517974892713235,2.751599999999999,6.7663748927132366
7,28.0,1,20.0,0.0,0,1,3.1123999999999983,-0.17267999999999997,-0.6132799999999997,-0.0,35.0,26.88,0,0,12.0,0.0,2.0,9.143999999999998,-0.15959999999999996,-1.0,-0.17,3.844799999999998,-3.6868000000000007,26.571199999999997,0,1,1,100.0,9.893835206319054,3.1123999999999983,6.781435206319055
7,29.0,1,20.0,0.0,0,1,3.4809999999999994,-0.18157999999999996,-0.62324,-0.0,35.0,26.88,0,0,12.0,0.0,2.0,9.472,-0.1678,-1.0,-0.17,4.384799999999999,-3.5552,27.2864,0,1,1,100.0,10.403767643985486,3.4809999999999994,6.922767643985486
7,30.0,1,20.0,0.0,0,1,3.8559999999999985,-0.18819999999999998,-0.4960000000000006,-0.0,35.0,26.88,0,0,12.0,0.0,2.0,9.806,-0.17599999999999996,-1.0,-0.16400000000000003,4.943999999999998,-3.466,28.11,0,1,1,100.0,10.783065704362093,3.8559999999999985,6.927065704362095
7,31.0,1,20.0,0.0,0,1,4.241599999999999,-0.19478,-0.5187799999999997,-0.0,35.0,26.88,0,0,10.740000000000004,0.0,2.0,10.1464,-0.18,-1.0,-0.16,5.522399999999999,-3.4342,29.034,0,1,1,100.0,11.160071933558175,4.241599999999999,6.918471933558176
7,32.0,1,20.0,0.0,6,2,4.635199999999998,-0.20168,-0.7335599999999994,-0.016799999999999843,35.0,26.8632,0,0,11.159999999999979,0.0,2.0,10.4932,-0.18239999999999998,-1.0,-0.16,6.122399999999999,-3.4783999999999997,30.025199999999998,0,1,1,100.0,11.555412812198442,4.635199999999998,6.920212812198444
7,33.0,1,20.0,0.0,6,2,5.0299999999999985,-0.20574000000000006,-0.7828400000000088,-0.1810599999999937,35.0,26.8034,0,0,17.82000000000001,0.0,2.0,10.8464,-0.19059999999999996,-1.0,-0.16,6.7479999999999976,-3.623399999999999,31.016399999999997,0,1,1,100.0,11.788033677021561,5.0299999999999985,6.7580336770215625
7,34.0,1,20.0,0.0,6,2,5.439999999999998,-0.1885200000000001,1.3376799999999882,-1.6988799999999915,35.0,26.7132,0,0,15.360000000000014,0.0,2.0,11.207199999999998,-0.19879999999999998,-1.0,-0.16,7.403999999999996,-3.9431999999999983,31.787199999999995,0,1,1,100.0,10.801400353806285,5.439999999999998,5.361400353806287
7,35.0,1,20.0,0.0,6,2,5.857,-0.1699,1.6165,-2.2346000000000004,35.0,26.679000000000002,0,0,15.0,0.0,2.0,11.54,-0.207,-1.0070000000000001,-0.16,8.094999999999999,-4.417,32.236000000000004,0,1,1,100.0,9.734552939272687,5.857,3.877552939272687
7,36.0,1,20.0,0.0,6,2,6.280399999999999,-0.15364000000000003,1.3617200000000005,-2.5499599999999996,35.0,26.6856,0,0,15.0,0.0,2.0,11.841999999999999,-0.21519999999999997,-1.01,-0.16,8.807599999999999,-4.989999999999998,32.4424,0,1,1,100.0,8.80292356438997,6.280399999999999,2.52252356438997
7,37.0,1,20.0,0.0,6,2,6.713599999999999,-0.14024000000000003,0.9645800000000012,-2.75508,35.0,26.7,0,0,15.0,0.0,2.0,12.101799999999999,-0.22,-1.0134,-0.16,9.539399999999999,-5.621999999999998,32.5068,0,1,1,100.0,8.035160118914666,6.713599999999999,1.3215601189146673
7,38.0,1,20.0,0.0,6,2,7.156399999999999,-0.12940000000000004,0.6522399999999995,-2.7690000000000015,35.0,26.7,0,0,15.0,0.0,2.0,12.312,-0.22159999999999996,-1.0216,-0.16,10.285599999999997,-6.2731999999999974,32.547200000000004,0,1,1,100.0,7.414073868992855,7.156399999999999,0.25767386899285594
7,39.0,1,20.0,0.0,6,2,7.599199999999998,-0.12120000000000004,0.7867199999999993,-2.461500000000002,35.0,26.7,0,0,15.0,0.0,2.0,12.475999999999999,-0.22979999999999998,-1.0298,-0.16,11.031799999999997,-6.904599999999997,32.6866,0,1,1,100.0,6.94424847698558,7.599199999999998,-0.6549515230144181
7,40.0,1,20.0,0.0,6,2,8.058,-0.1106,0.8324,-2.2484,35.0,26.732,0,0,15.0,0.0,2.0,12.600000000000001,-0.23,-1.038,-0.16,11.77,-7.5040000000000004,33.114,0,1,1,100.0,6.336913214146906,8.058,-1.7210867858530943
7,41.0,1,20.0,0.0,6,2,8.3467,-0.10397,0.86532,-2.09377,35.0,26.749299999999998,0,0,15.0,0.0,2.0,12.670300000000001,-0.2331,-1.0431000000000001,-0.1569,12.2197,-7.8701,33.53,0,1,1,100.0,5.95704219597517,8.3467,-2.3896578040248304
7,42.0,1,20.0,0.0,6,2,8.5804,-0.09864000000000002,0.89484,-1.9572400000000005,35.0,26.761599999999998,0,0,15.0,0.0,2.0,12.7236,-0.2372,-1.0472000000000001,-0.15280000000000002,12.5764,-8.1612,33.94,0,1,1,100.0,5.651655691170442,8.5804,-2.9287443088295575
7,43.0,1,20.0,0.0,6,2,9.463399999999998,-0.07532000000000007,1.1538199999999994,-1.1717800000000016,35.0,26.81,0,0,14.0,0.0,2.0,12.929,-0.24259999999999995,-1.0526,-0.15,13.801999999999998,-9.249799999999997,36.29079999999999,0,1,1,100.0,4.315518112925364,9.463399999999998,-5.147881887074634
7,44.0,1,20.0,0.07999999999999546,6,2,9.947199999999997,-0.06056000000000008,1.2907600000000008,-0.8209200000000011,35.0,26.8124,0,0,14.079999999999995,0.0,2.0,13.0552,-0.25,-1.0608,-0.14920000000000005,14.363999999999997,-9.856399999999995,38.039599999999986,0,1,1,100.0,3.46983240731227,9.947199999999997,-6.477367592687727
7,45.0,1,20.0,0.8999999999999944,6,2,10.430999999999997,-0.0458000000000001,1.1243000000000012,-0.6151000000000014,35.0,26.837,0,0,14.899999999999995,0.0,2.0,13.210999999999999,-0.25,-1.069,-0.14100000000000007,14.814999999999996,-10.536999999999994,40.18799999999999,0,1,1,100.0,2.624146701699176,10.430999999999997,-7.806853298300821
7,46.0,1,20.0,1.0,6,2,10.921999999999999,-0.03176000000000002,1.10904,-0.24224000000000054,35.0,26.84,0,0,15.0,0.0,2.0,13.41,-0.2572,-1.0772000000000002,-0.14,15.1364,-11.368799999999998,42.725199999999994,0,1,1,100.0,1.8197139573354957,10.921999999999999,-9.102286042664502
7,47.0,1,20.0,1.0,6,2,11.419399999999998,-0.018900000000000035,1.0494400000000002,0.07551999999999925,35.0,26.84,0,0,15.0,0.0,2.0,13.6474,-0.26539999999999997,-1.08,-0.14,15.3156,-12.388999999999998,45.624199999999995,0,1,1,100.0,1.0828902327972578,11.419399999999998,-10.33650976720274
7,48.0,1,20.0,1.0,6,2,11.926799999999998,-0.008040000000000038,0.887200000000001,0.31235999999999925,35.0,26.84,0,0,15.0,0.0,2.0,13.923199999999998,-0.27,-1.0836000000000001,-0.14,15.318800000000001,-13.650799999999993,48.91679999999999,0,1,1,100.0,0.4606580672851841,11.926799999999998,-11.466141932714814
7,49.0,1,20.0,1.0,6,2,12.445199999999998,0.0009799999999999497,0.7171999999999993,0.537099999999998,35.0,26.84,0,0,15.0,0.0,2.0,14.235599999999998,-0.2735999999999999,-1.0918,-0.14,15.120000000000003,-15.202199999999989,52.61639999999998,0,1,1,100.0,-0.056149863922817796,12.445199999999998,-12.501349863922815
7,50.0,1,20.0,1.0,6,2,12.969999999999997,0.009999999999999936,0.8319999999999992,0.9019999999999975,35.0,26.84,0,0,15.0,0.0,2.0,14.579999999999998,-0.28999999999999987,-1.1,-0.14,14.710000000000004,-17.079999999999984,56.699999999999974,0,1,1,100.0,-0.5729577951308196,12.969999999999997,-13.542957795130818
7,51.0,1,20.0,1.0,6,2,13.5194,0.020659999999999984,0.80986,1.0905999999999996,35.0,26.84,0,0,15.0,0.0,2.0,14.9818,-0.29819999999999997,-1.1,-0.14,14.037600000000001,-19.425199999999997,61.17719999999999,0,1,1,100.0,-1.18373080474028,13.5194,-14.70313080474028
7,52.0,1,20.0,1.0,6,2,13.8576,0.026519999999999988,0.7864400000000001,1.1748799999999997,35.0,26.84,0,0,15.0,0.0,2.0,15.245999999999999,-0.30319999999999997,-1.1032000000000002,-0.14,13.550800000000002,-21.0312,63.98399999999999,0,1,1,100.0,-1.5194840726869425,13.8576,-15.377084072686943
7,53.0,1,20.0,1.0,6,2,14.1364,0.03102999999999998,0.7626600000000001,1.2298199999999997,35.0,26.84,0,0,15.0,0.0,2.0,15.471499999999999,-0.30729999999999996,-1.1073000000000002,-0.14,13.116200000000003,-22.429299999999994,66.32099999999998,0,1,1,100.0,-1.7778880382909434,14.1364,-15.914288038290943
7,54.0,1,20.0,1.0,6,2,15.249999999999996,0.04651999999999996,0.6653200000000008,1.4816399999999992,35.0,26.81,0,0,15.0,0.0,2.0,16.390799999999995,-0.32559999999999995,-1.1128,-0.14,11.332400000000005,-28.41279999999998,74.85999999999997,0,1,1,100.0,-2.665399662948587,15.249999999999996,-17.915399662948584
7,55.0,1,20.0,1.0,6,2,15.869999999999994,0.05329999999999998,0.45050000000000484,1.5724000000000025,35.0,26.813,0,0,15.0,0.0,2.0,16.884999999999994,-0.34099999999999997,-1.1190000000000002,-0.14,10.384000000000006,-31.914999999999974,78.81799999999997,0,1,1,100.0,-3.0538650480472866,15.869999999999994,-18.92386504804728
7,56.0,1,20.0,1.0,6,2,16.525999999999993,0.05575999999999998,-0.24239999999999412,1.206680000000003,35.0,26.8376,0,0,15.0,0.0,2.0,17.335999999999995,-0.3491999999999999,-1.1108000000000002,-0.14,9.514800000000006,-35.48199999999997,81.75359999999998,0,1,1,100.0,-3.1948126656494695,16.525999999999993,-19.72081266564946
7,57.0,1,20.0,1.0,6,2,16.9008,0.05230000000000001,-0.5116499999999994,0.9349400000000008,35.0,26.84,0,0,15.0,0.0,2.0,17.531699999999997,-0.35,-1.1063,-0.13630000000000003,9.104400000000002,-37.26559999999999,82.5247,0,1,1,100.0,-2.996569268534206,16.9008,-19.897369268534206
7,58.0,1,20.0,1.0,6,2,17.245199999999997,0.048200000000000014,-0.735099999999999,0.6733600000000012,35.0,26.84,0,0,15.0,0.0,2.0,17.6998,-0.35,-1.1022,-0.1322,8.743600000000002,-38.856399999999994,83.06179999999999,0,1,1,100.0,-2.7616565725305686,17.245199999999997,-20.006856572530566
7,59.0,1,20.0,0.0,6,2,18.677199999999996,0.027300000000000067,-0.9493600000000011,0.13664000000000034,35.0,26.84,0,0,14.0,0.0,2.0,17.9206,-0.34620000000000006,-1.0686000000000002,-0.11620000000000004,7.639600000000003,-43.2418,80.28980000000001,0,1,1,100.0,-1.5641747807071513,18.677199999999996,-20.241374780707147
7,60.0,1,20.0,0.0,6,2,19.457999999999995,0.01580000000000006,-0.7940000000000005,-0.007399999999997179,35.0,26.84,0,0,14.0,0.0,2.0,17.744000000000003,-0.33600000000000013,-1.0420000000000003,-0.10800000000000005,7.168000000000004,-44.256,76.22600000000004,0,1,1,100.0,-0.9052733163067042,19.457999999999995,-20.3632733163067
7,61.0,1,20.0,0.0,6,2,20.270799999999994,0.006660000000000116,-0.7395599999999994,-0.41585999999999634,35.0,26.84,0,0,13.900000000000034,33.59999999998854,2.0199999999999934,17.343600000000006,-0.3194000000000002,-1.0092000000000003,-0.09960000000000015,6.707400000000004,-44.28700000000001,70.41760000000006,0,1,1,100.0,-0.38158989155713496,20.270799999999994,-20.652389891557128
7,62.0,1,20.0,0.0,1,5,21.123599999999996,-0.007279999999999962,-0.8035199999999998,-0.8611199999999988,35.0,26.84,0,0,9.800000000000011,1411.1999999999962,2.8399999999999976,16.671200000000002,-0.29480000000000006,-0.9764,-0.08320000000000005,6.190800000000001,-42.934000000000005,62.529200000000024,0,1,1,100.0,0.41711327485523714,21.123599999999996,-20.70648672514476
7,63.0,1,20.0,0.0,1,5,21.989599999999992,-0.014619999999999937,-0.951299999999998,-1.0410599999999988,35.0,26.8202,0,0,15.599999999999909,1680.0,3.0,15.814000000000009,-0.2702000000000003,-0.9436000000000004,-0.07340000000000009,5.595000000000007,-40.472200000000036,53.274600000000106,0,1,1,100.0,0.83766429648126,21.989599999999992,-21.15193570351873
7,64.0,1,20.0,0.0,1,5,22.868399999999994,-0.06307999999999957,-3.8256399999999737,-0.011880000000010228,35.0,26.7236,0,0,17.08000000000002,1680.0,3.0,14.840000000000005,-0.24560000000000015,-0.9108000000000002,-0.06040000000000009,4.884000000000004,-37.02160000000002,43.14640000000006,0,1,1,100.0,3.614217771685208,22.868399999999994,-19.254182228314786
7,65.0,1,20.0,0.0,1,5,23.5905,-0.12785,-6.7554,1.3008,35.0,26.6195,0,0,15.0,1680.0,3.0,13.991999999999999,-0.224,-0.884,-0.0485,4.2085,-33.625,34.515,0,1,1,100.0,7.3252654107475745,23.5905,-16.265234589252422
7,66.0,1,20.0,0.0,1,5,24.029199999999996,-0.16843999999999967,-6.458560000000002,1.6993199999999966,35.0,26.590799999999998,0,0,15.0,1680.0,3.0,13.450800000000005,-0.20760000000000015,-0.8676000000000001,-0.04440000000000004,3.712400000000004,-31.206000000000017,29.14400000000004,0,1,1,100.0,9.650901101183567,24.029199999999996,-14.378298898816428
7,67.0,1,20.0,0.0,1,5,24.4679,-0.20902999999999988,-6.161720000000001,2.097839999999999,35.0,26.562099999999997,0,0,15.0,1680.0,3.0,12.909600000000001,-0.19120000000000004,-0.8512000000000001,-0.04030000000000001,3.2163000000000017,-28.787000000000006,23.773000000000014,0,1,1,100.0,11.97653679161959,24.4679,-12.49136320838041
7,68.0,1,20.0,0.0,1,6,26.31759999999999,-0.3103599999999997,-1.9420400000000217,3.790919999999991,35.0,26.467200000000002,0,0,15.0,1680.0,3.0,10.65560000000001,-0.14720000000000028,-0.7948000000000002,-0.012400000000000092,0.24160000000001666,-17.07360000000006,0.1292000000001213,0,1,1,100.0,17.782318129680213,26.31759999999999,-8.535281870319778
7,69.0,1,20.0,0.0,1,6,27.105199999999996,-0.32305999999999996,-0.5797400000000061,4.3553599999999975,35.0,26.4774,0,0,15.0,1680.0,3.0,9.836400000000003,-0.13420000000000004,-0.7784000000000001,-0.01,-1.44119999999999,-11.75640000000003,-11.039199999999937,0,1,1,100.0,18.509974529496372,27.105199999999996,-8.595225470503625
7,70.0,1,20.0,0.0,1,6,27.84,-0.3252,0.1324,4.603,35.0,26.49,0,0,15.0,1680.0,3.0,9.254,-0.126,-0.77,-0.006,-3.292,-6.7,-22.506,0,1,1,100.0,18.63258749765437,27.84,-9.20741250234563
7,71.0,1,20.0,0.0,1,6,28.512799999999995,-0.32334,0.287100000000002,4.610120000000001,35.0,26.4834,0,0,15.0,1680.0,3.0,8.9666,-0.12,-0.7722,0.0,-5.252399999999983,-1.9874000000000365,-34.2465999999999,0,1,1,100.0,18.52601734776004,28.512799999999995,-9.986782652239956
7,72.0,1,20.0,0.0,1,6,29.1148,-0.32092000000000004,0.05620000000000005,4.527,35.0,26.4612,0,0,15.0,1680.0,3.0,9.011199999999999,-0.12039999999999998,-0.7807999999999999,0.0,-7.2355999999999945,2.3647999999999887,-46.15999999999997,0,1,1,100.0,18.38736156133838,29.1148,-10.727438438661618
7,73.0,1,20.0,0.0,1,6,29.623199999999994,-0.31928,0.03980000000000018,4.486000000000001,35.0,26.485799999999998,0,0,15.0,1680.0,3.0,9.445799999999995,-0.1285999999999999,-0.7971999999999999,0.0,-9.195399999999978,6.358199999999956,-58.04999999999987,0,1,1,100.0,18.293396482936924,29.623199999999994,-11.32980351706307
7,74.0,1,20.0,0.0,1,6,30.0296,-0.319,0.056039999999999875,4.394680000000001,35.0,26.49,0,0,15.0,1680.0,3.0,10.131999999999996,-0.1435999999999999,-0.8203999999999998,0.0,-11.107599999999989,10.256399999999978,-69.72919999999993,0,1,1,100.0,18.27735366467326,30.0296,-11.752246335326738
7,75.0,1,20.0,0.0,1,6,30.334999999999997,-0.3195,0.1195,4.389,35.0,26.49,0,0,15.0,1680.0,3.0,10.985,-0.165,-0.845,0.0,-12.93,14.24,-80.985,0,1,1,100.0,18.306001554429802,30.334999999999997,-12.028998445570195
7,76.0,1,20.0,0.0,1,6,30.5108,-0.31984,0.1597600000000003,4.431,35.0,26.49,0,0,15.0,1680.0,3.0,11.753199999999996,-0.18479999999999988,-0.8663999999999998,-0.001599999999999966,-14.315599999999993,17.56759999999998,-89.63759999999996,0,1,1,100.0,18.32548211946425,30.5108,-12.185317880535749
7,77.0,1,20.0,0.0,1,6,30.5641,-0.31943,0.1232700000000001,4.4515,35.0,26.49,0,0,15.0,1680.0,3.0,12.2739,-0.19709999999999997,-0.8827999999999999,-0.005699999999999989,-15.098699999999997,19.765199999999993,-94.60269999999998,0,1,1,100.0,18.301990849863888,30.5641,-12.262109150136112
7,78.0,1,20.0,0.0,1,6,30.6174,-0.31902,0.08678000000000041,4.4719999999999995,35.0,26.49,0,0,15.0,1680.0,3.0,12.794599999999994,-0.20939999999999986,-0.8991999999999999,-0.009799999999999955,-15.881799999999991,21.962799999999977,-99.56779999999995,0,1,1,100.0,18.278499580263524,30.6174,-12.338900419736476
7,79.0,1,20.0,0.0,1,6,30.5888,-0.31432000000000004,0.5007399999999976,4.999499999999997,35.0,26.4666,0,0,15.0,1680.0,3.0,13.935399999999994,-0.23339999999999986,-0.9311999999999998,-0.01,-17.074399999999994,26.461399999999973,-107.84399999999995,0,1,1,100.0,18.00920941655204,30.5888,-12.57959058344796
7,80.0,1,20.0,0.0,1,6,30.076,-0.2876,1.1944,5.909,35.0,26.348,0,0,15.0,1680.0,3.0,17.032,-0.31,-1.004,-0.016,-18.574,36.300000000000004,-121.586,0,1,1,100.0,16.47826618796248,30.076,-13.597733812037522
7,81.0,1,20.0,0.0,1,6,29.635400000000004,-0.2737000000000001,1.0493000000000023,6.060559999999999,35.0,26.3032,0,0,15.0,1680.0,3.0,18.732399999999984,-0.35099999999999965,-1.0325999999999997,-0.02,-18.6922,40.07559999999997,-124.98919999999998,0,1,1,100.0,15.681854852730638,29.635400000000004,-13.953545147269367
7,82.0,1,20.0,0.0,1,6,29.0684,-0.26236000000000004,0.84708,6.252759999999999,35.0,26.2632,0,0,15.0,1680.0,3.0,20.619999999999994,-0.3967999999999999,-1.0572,-0.022399999999999975,-18.524800000000003,43.236799999999995,-126.4748,0,1,1,100.0,15.032120713052281,29.0684,-14.03627928694772
7,83.0,1,20.0,0.0,3,7,28.36940000000001,-0.25340000000000007,0.8359799999999978,6.482839999999997,35.0,26.2058,0,0,15.239999999999963,1680.0,3.0,22.672399999999975,-0.4541999999999994,-1.0812,-0.03059999999999991,-18.11380000000001,45.67799999999998,-125.88800000000003,0,1,1,100.0,14.518750528615065,28.36940000000001,-13.850649471384944
7,84.0,1,20.0,0.0,3,7,27.541200000000007,-0.24520000000000003,1.0270399999999988,6.781319999999998,35.0,26.148400000000002,0,0,18.519999999999982,1680.0,3.0,24.755199999999988,-0.5115999999999997,-1.0976,-0.03879999999999995,-17.482400000000005,47.15399999999999,-122.85400000000001,0,1,1,100.0,14.048925136607787,27.541200000000007,-13.49227486339222
7,85.0,1,20.0,0.0,3,7,26.580000000000013,-0.23420000000000016,0.7750000000000046,6.764800000000001,35.0,26.119,0,0,19.0,1680.0,3.0,26.655999999999974,-0.5619999999999993,-1.1139999999999999,-0.04699999999999989,-16.690000000000012,47.74099999999999,-117.89500000000007,0,1,1,100.0,13.418671561963889,26.580000000000013,-13.161328438036124
7,86.0,1,20.0,0.0,3,7,25.52320000000001,-0.2227200000000001,1.0257599999999951,7.274599999999993,35.0,26.0528,0,0,19.0,1680.0,3.0,28.26559999999999,-0.6059999999999997,-1.1252,-0.05519999999999993,-15.786800000000008,47.5516,-111.52960000000006,0,1,1,100.0,12.760916013153702,25.52320000000001,-12.762283986846308
7,87.0,1,20.0,0.0,3,7,24.373400000000004,-0.20750000000000005,1.5039999999999991,7.876099999999999,35.0,25.9898,0,0,19.0,1680.0,3.0,29.500799999999998,-0.6402,-1.13,-0.06,-14.818600000000004,46.6452,-104.10120000000002,0,1,1,100.0,11.888874248964585,24.373400000000004,-12.484525751035418
7,88.0,1,20.0,0.0,3,7,23.135600000000014,-0.1855600000000003,1.8892799999999932,8.218239999999993,35.0,25.9636,0,0,19.0,1680.0,3.0,30.310399999999994,-0.6616,-1.13,-0.061599999999999905,-13.82960000000001,45.09560000000002,-95.9496000000001,0,1,1,100.0,10.631804846447574,23.135600000000014,-12.50379515355244
7,89.0,1,20.0,0.0,3,7,21.83180000000001,-0.15768000000000015,2.5108399999999964,8.906219999999996,35.0,25.9308,0,0,19.0,1680.0,3.0,30.6712,-0.6698,-1.13,-0.06979999999999996,-12.853800000000005,42.971800000000016,-87.38880000000006,0,1,1,100.0,9.034398513622829,21.83180000000001,-12.79740148637718
7,90.0,1,20.0,0.0,3,7,20.45600000000002,-0.12660000000000043,2.4348000000000014,8.779800000000002,35.0,25.962,0,0,19.0,1680.0,3.0,30.520000000000003,-0.6620000000000001,-1.13,-0.07799999999999989,-11.942000000000013,40.28800000000004,-78.76400000000012,0,1,1,100.0,7.253645686356247,20.45600000000002,-13.202354313643774
7,91.0,1,20.0,0.0,3,7,19.583700000000007,-0.10815000000000012,2.2805600000000013,8.546840000000001,35.0,26.013399999999997,0,0,19.0,1680.0,3.0,30.238200000000003,-0.6538,-1.1269,-0.08,-11.419300000000003,38.43030000000002,-73.46080000000003,0,1,1,100.0,6.196538554339861,19.583700000000007,-13.387161445660148
7,92.0,1,20.0,0.0,3,7,18.8744,-0.09380000000000005,2.1067200000000006,8.286080000000002,35.0,26.0708,0,0,19.0,1680.0,3.0,29.918400000000002,-0.6456000000000001,-1.1228,-0.08,-11.021600000000001,36.8436,-69.22960000000002,0,1,1,100.0,5.374344118327125,18.8744,-13.500055881672877
7,93.0,1,20.0,0.0,3,7,16.15980000000002,-0.05410000000000014,1.2801400000000096,6.867100000000011,35.0,26.276,0,0,19.0,1680.0,3.0,28.051800000000014,-0.5970000000000004,-1.1174000000000002,-0.09,-9.783200000000006,30.30260000000004,-53.881800000000084,0,1,1,100.0,3.099701671657762,16.15980000000002,-13.060098328342256
7,94.0,1,20.0,0.0,3,7,14.709200000000008,-0.04276000000000001,0.4511600000000025,5.898240000000004,35.0,26.358800000000002,0,0,19.0,1680.0,3.0,26.746800000000007,-0.5568000000000002,-1.11,-0.09079999999999995,-9.231200000000003,26.61920000000002,-46.06960000000004,0,1,1,100.0,2.449967531979401,14.709200000000008,-12.259232468020606
7,95.0,1,20.0,0.0,3,7,13.26600000000002,-0.04030000000000004,0.0018000000000062122,5.18320000000001,35.0,26.448999999999998,0,0,19.0,1680.0,3.0,25.27900000000002,-0.5240000000000005,-1.11,-0.0989999999999999,-8.731000000000007,22.92100000000005,-38.583000000000105,0,1,1,100.0,2.30901991437722,13.26600000000002,-10.9569800856228
7,96.0,1,20.0,0.0,3,7,11.858800000000013,-0.04071999999999999,-0.1055599999999995,4.540880000000006,35.0,26.5608,0,0,19.0,1680.0,3.0,23.724800000000016,-0.4840000000000003,-1.11,-0.1,-8.259600000000004,19.345200000000027,-31.470800000000057,0,1,1,100.0,2.3330841417727117,11.858800000000013,-9.5257158582273
7,97.0,1,20.0,0.0,3,7,10.483600000000004,-0.041,-0.10494000000000009,3.939440000000002,35.0,26.637800000000002,0,0,19.0,1680.0,3.0,22.153200000000005,-0.4484000000000001,-1.1046,-0.10539999999999998,-7.803000000000001,15.943000000000008,-24.745400000000018,0,1,1,100.0,2.3491269600363753,10.483600000000004,-8.134473039963629
7,98.0,1,20.0,0.0,3,7,9.154800000000014,-0.041359999999999994,-0.07656000000000027,3.3240800000000075,35.0,26.6952,0,0,19.0,1680.0,3.0,20.596800000000016,-0.41560000000000036,-1.1,-0.11,-7.366400000000005,12.758800000000033,-18.463600000000067,0,1,1,100.0,2.3697534406610847,9.154800000000014,-6.785046559338929
7,99.0,1,20.0,0.0,3,7,7.881800000000007,-0.042179999999999995,-0.061779999999999904,2.6772000000000036,35.0,26.7454,0,0,19.0,1680.0,3.0,19.08320000000001,-0.3828000000000002,-1.0982,-0.11,-6.957200000000002,9.826800000000015,-12.67800000000003,0,1,1,100.0,2.416735979861812,7.881800000000007,-5.465064020138195
7,100.0,1,20.0,0.0,3,7,6.66,-0.043,-0.079,2.054,35.0,26.77,0,0,19.0,1680.0,3.0,17.64,-0.35,-1.09,-0.11,-6.58,7.17,-7.43,0,1,1,100.0,2.4637185190625397,6.66,-4.1962814809374605
8,0.0,1,20.0,0.0,0,1,5.29,-0.043,-0.111,1.387,35.0,26.81,0,0,19.0,1680.0,3.0,16.01,-0.31,-1.09,-0.12,-6.18,4.36,-1.95,0,1,1,100.0,2.4637185190625397,5.29,-2.8262814809374603
8,1.0,1,20.0,0.0,0,1,4.2442,-0.043829999999999994,-0.01637999999999999,0.95872,35.0,26.81,0,0,19.0,1680.0,3.0,14.8065,-0.2851,-1.0817,-0.12,-5.8978,2.285,1.735200000000001,0,1,1,100.0,2.511274016058398,4.2442,-1.7329259839416022
8,2.0,1,20.0,0.0,0,1,3.2842,-0.044,0.003,0.871,35.0,26.81,0,0,32.2,1680.0,3.0,13.7086,-0.2602,-1.0734000000000001,-0.12,-5.6486,0.4343999999999996,4.767000000000001,0,1,1,100.0,2.521014298575622,3.2842,-0.7631857014243777
8,3.0,1,20.0,0.0,0,1,2.4050999999999996,-0.044,0.003,0.871,35.0,26.81,0,0,48.800000000000004,1680.0,3.0,12.7016,-0.2402,-1.07,-0.12,-5.4323999999999995,-1.1624000000000003,7.258100000000001,0,1,1,100.0,2.521014298575622,2.4050999999999996,0.11591429857562252
8,4.0,1,20.0,0.0,0,1,1.6083999999999996,-0.044,0.003,0.871,35.0,26.81,0,0,65.4,1680.0,3.0,11.777199999999999,-0.2236,-1.0668,-0.12,-5.239599999999999,-2.4952000000000005,9.337200000000001,0,1,1,100.0,2.521014298575622,1.6083999999999996,0.9126142985756225
8,5.0,1,20.0,0.0,0,1,0.9545,-0.044825,-0.206475,0.805675,35.0,26.81225,0,0,74.05,1680.0,3.0,11.000250000000001,-0.2085,-1.05925,-0.12,-5.075,-3.49575,10.98325,0,1,1,100.0,2.5682833166739147,0.9545,1.6137833166739148
8,6.0,1,20.0,0.0,0,1,0.6473999999999999,-0.04939,-1.3655700000000006,0.4442099999999998,35.0,26.8247,0,0,46.65999999999999,1680.0,3.0,10.6143,-0.2002,-1.0551000000000001,-0.12,-4.992,-3.9149,11.7759,0,1,1,100.0,2.8298385501511363,0.6473999999999999,2.1824385501511365
8,7.0,1,20.0,0.0,0,1,0.3402999999999997,-0.053955,-2.524665000000001,0.08274499999999965,35.0,26.83715,0,0,19.269999999999975,1680.0,3.0,10.22835,-0.1919,-1.05095,-0.12,-4.909,-4.33405,12.56855,0,1,1,100.0,3.091393783628357,0.3402999999999997,2.7510937836283573
8,8.0,1,20.0,0.0,0,1,-0.6800000000000003,-0.06876,-0.6816800000000002,-0.0,36.0,26.84,0,0,13.0,1680.0,3.0,8.865599999999999,-0.1636,-1.0436,-0.13,-4.513599999999999,-5.388800000000001,15.529600000000002,0,1,1,100.0,3.9396577993195407,-0.6800000000000003,4.619657799319541
8,9.0,1,20.0,0.0,0,1,-1.0433000000000001,-0.07623,-0.6288199999999999,-0.0,36.0,26.8588,0,0,13.0,1680.0,3.0,8.3233,-0.1553,-1.04,-0.13,-4.2649,-5.634,16.872,0,1,1,100.0,4.3676572722822655,-1.0433000000000001,5.410957272282266
8,10.0,1,20.0,0.0,0,1,-1.334,-0.08310000000000001,-0.4613,-0.0,36.0,26.868,0,0,13.0,1680.0,3.0,7.85,-0.147,-1.037,-0.13,-3.967,-5.761,18.188,0,1,1,100.0,4.761279277537142,-1.334,6.095279277537141
8,11.0,1,20.0,0.0,0,1,-1.5534000000000001,-0.08891,-0.4551900000000002,-0.0,36.0,26.8452,0,0,13.0,1680.0,3.0,7.4493,-0.1387,-1.03,-0.13,-3.6149999999999998,-5.804799999999999,19.4737,0,1,1,100.0,5.094167756508149,-1.5534000000000001,6.647567756508149
8,12.0,1,20.0,0.0,0,1,-1.7028,-0.09472000000000001,-0.5904800000000001,-0.0,36.0,26.8784,0,0,13.0,1680.0,3.0,7.1256,-0.1304,-1.03,-0.13,-3.1999999999999997,-5.771599999999999,20.7104,0,1,1,100.0,5.427056235479158,-1.7028,7.129856235479158
8,13.0,1,20.0,0.0,0,1,-1.7811000000000001,-0.10132,-0.50852,-0.0,36.0,26.88,0,0,13.0,1680.0,3.0,6.904599999999999,-0.12209999999999999,-1.03,-0.13790000000000002,-2.7297,-5.6752,21.8839,0,1,1,100.0,5.8052083802655,-1.7811000000000001,7.586308380265501
8,14.0,1,20.0,0.0,0,1,-1.8020666666666667,-0.10444666666666666,-0.4659866666666666,-0.0,36.0,26.88,0,0,13.0,1680.0,3.0,6.819,-0.12,-1.03,-0.14,-2.4797999999999996,-5.616933333333334,22.442466666666668,0,1,1,100.0,5.984353184209738,-1.8020666666666667,7.786419850876404
8,15.0,1,20.0,0.0,0,1,-1.8048333333333333,-0.10638333333333333,-0.4405333333333333,-0.0,36.0,26.88,0,0,13.0,1680.0,3.0,6.7775,-0.12,-1.03,-0.14,-2.3054999999999994,-5.572666666666667,22.793833333333332,0,1,1,100.0,6.095316010533407,-1.8048333333333333,7.90014934386674
8,16.0,1,20.0,0.0,0,1,-1.8076,-0.10832,-0.41507999999999995,-0.0,36.0,26.88,0,0,13.0,1680.0,3.0,6.736,-0.12,-1.03,-0.14,-2.1311999999999998,-5.5284,23.1452,0,1,1,100.0,6.206278836857077,-1.8076,8.013878836857078
8,17.0,1,20.0,0.0,0,1,-1.5930333333333333,-0.12333000000000001,-0.53713,-0.0,36.0,26.84,0,0,13.0,1680.0,3.0,6.756233333333333,-0.12,-1.02,-0.14,-0.6268999999999996,-5.0919333333333325,25.44456666666667,0,1,1,100.0,7.0662884873484435,-1.5930333333333333,8.659321820681777
8,18.0,1,20.0,0.0,0,1,-1.5404666666666667,-0.12582000000000002,-0.52302,-0.0,36.0,26.84,0,0,13.0,1680.0,3.0,6.803266666666667,-0.12,-1.02,-0.14,-0.4525999999999999,-5.031066666666666,25.629933333333334,0,1,1,100.0,7.208954978336019,-1.5404666666666667,8.749421645002686
8,19.0,1,20.0,0.0,0,1,-1.4878999999999998,-0.12831,-0.50891,-0.0,36.0,26.84,0,0,13.0,1680.0,3.0,6.8503,-0.12,-1.02,-0.14,-0.27829999999999966,-4.970199999999999,25.8153,0,1,1,100.0,7.351621469323593,-1.4878999999999998,8.839521469323593
8,20.0,1,20.0,0.0,0,1,-1.4353333333333333,-0.1308,-0.4948,-0.0,36.0,26.84,0,0,13.0,1680.0,3.0,6.897333333333333,-0.12,-1.02,-0.14,-0.10399999999999998,-4.9093333333333335,26.000666666666667,0,1,1,100.0,7.494287960311167,-1.4353333333333333,8.929621293644502
8,21.0,1,20.0,0.0,0,1,-0.7137999999999997,-0.15016000000000002,-0.5809700000000001,-0.0,36.0,26.8572,0,0,11.279999999999996,1680.0,3.0,7.6448,-0.13430000000000003,-1.01,-0.14,1.2449000000000006,-4.3325000000000005,26.9403,0,1,1,100.0,8.603534251684442,-0.7137999999999997,9.317334251684441
8,22.0,1,20.0,0.0,0,1,-0.41859999999999914,-0.15908000000000003,-0.5929799999999997,-0.0,36.0,26.88,0,0,9.0,1680.0,3.0,7.9514000000000005,-0.14260000000000003,-1.0074,-0.14,1.5836000000000008,-4.125,27.093799999999998,0,1,1,100.0,9.114612604941138,-0.41859999999999914,9.533212604941138
8,23.0,1,20.0,0.0,0,1,-0.09309999999999977,-0.16563,-0.50899,-0.0,36.0,26.88,0,0,9.0,1680.0,3.0,8.276,-0.15,-1.0,-0.14,1.8779000000000003,-3.9156999999999997,27.201700000000002,0,1,1,100.0,9.489899960751826,-0.09309999999999977,9.582999960751826
8,24.0,1,20.0,0.0,0,1,0.2472000000000007,-0.17144,-0.6011200000000002,-0.0,36.0,26.88,0,0,9.0,1680.0,3.0,8.608,-0.15,-1.0,-0.14,2.1352000000000007,-3.6915999999999993,27.3096,0,1,1,100.0,9.822788439722833,0.2472000000000007,9.575588439722832
8,25.0,1,20.0,0.0,0,1,0.6100000000000012,-0.17950000000000002,-0.6355000000000001,-0.0,36.0,26.88,0,0,9.0,1680.0,3.0,8.932500000000001,-0.15750000000000003,-1.0,-0.14,2.370000000000001,-3.482499999999999,27.447499999999998,0,1,1,100.0,10.284592422598278,0.6100000000000012,9.674592422598277
8,26.0,1,20.0,0.0,0,1,0.9926000000000005,-0.18548,-0.5848399999999999,-0.0,36.0,26.88,0,0,9.0,1680.0,3.0,9.2504,-0.16580000000000003,-1.0,-0.14,2.5966000000000005,-3.2981999999999996,27.6292,0,1,1,100.0,10.62722118408651,0.9926000000000005,9.634621184086509
8,27.0,1,20.0,0.0,0,1,1.3909000000000011,-0.19087,-0.5153499999999999,-0.0,36.0,26.863599999999998,0,0,9.0,1680.0,3.0,9.565800000000001,-0.17,-1.0,-0.14,2.8248000000000006,-3.1567,27.8776,0,1,1,100.0,10.936045435662024,1.3909000000000011,9.545145435662022
8,28.0,1,20.0,0.0,0,1,1.8024000000000018,-0.19740000000000005,-0.5257200000000006,-0.0,36.0,26.8496,0,0,9.0,1680.0,3.0,9.8764,-0.17240000000000005,-1.0,-0.14,3.0644000000000013,-3.0679999999999996,28.2148,0,1,1,100.0,11.310186875882453,1.8024000000000018,9.50778687588245
8,29.0,1,20.0,0.0,0,1,2.226400000000001,-0.20549,-0.6620799999999996,-0.0,36.0,26.88,0,0,9.0,1680.0,3.0,10.1752,-0.1807,-1.0,-0.14,3.3252000000000006,-3.0313999999999997,28.6597,0,1,1,100.0,11.773709732143287,2.226400000000001,9.547309732143287
8,30.0,1,20.0,0.0,0,1,2.6580000000000013,-0.21130000000000002,-0.4495999999999993,-0.0,36.0,26.88,0,0,9.0,1680.0,3.0,10.474,-0.18900000000000003,-1.0,-0.14,3.624000000000001,-3.048,29.249000000000002,0,1,1,100.0,12.106598211114296,2.6580000000000013,9.448598211114295
8,31.0,1,20.0,0.0,0,1,3.1042000000000005,-0.21711,-0.3699799999999999,-0.0,36.0,26.8508,0,0,9.0,1680.0,3.0,10.780100000000001,-0.19,-1.0,-0.14,3.9885000000000006,-3.1157000000000004,29.969700000000003,0,1,1,100.0,12.439486690085303,3.1042000000000005,9.335286690085303
8,32.0,1,20.0,0.0,6,2,3.558000000000001,-0.22292,-0.5040000000000007,-0.0,36.0,26.8624,0,0,9.0,1680.0,3.0,11.087200000000001,-0.19560000000000002,-1.0,-0.14,4.423600000000001,-3.224,30.798000000000005,0,1,1,100.0,12.772375169056312,3.558000000000001,9.21437516905631
8,33.0,1,20.0,0.0,6,2,3.9092000000000007,-0.22678,-0.6472300000000002,-0.026325000000000234,36.0,26.858549999999997,0,0,10.755000000000015,1680.0,3.0,11.32215,-0.20195000000000002,-1.0019500000000001,-0.14,4.800650000000001,-3.3329000000000004,31.499850000000002,0,1,1,100.0,12.99353687797681,3.9092000000000007,9.08433687797681
8,34.0,1,20.0,0.0,6,2,4.141600000000001,-0.22844,-0.6945400000000003,-0.08235000000000031,36.0,26.8129,0,0,14.49000000000002,1680.0,3.0,11.4757,-0.20610000000000003,-1.0061,-0.14,5.078700000000001,-3.4242000000000004,32.01030000000001,0,1,1,100.0,13.088647871968526,4.141600000000001,8.947047871968525
8,35.0,1,20.0,0.0,6,2,4.3885000000000005,-0.22890000000000002,-0.6085499999999999,-0.2253,36.0,26.7665,0,0,17.85,1680.0,3.0,11.6375,-0.21,-1.01,-0.14,5.3795,-3.5294999999999996,32.547000000000004,0,1,1,100.0,13.115003930544544,4.3885000000000005,8.726503930544544
8,36.0,1,20.0,0.0,6,2,4.8616,-0.21063999999999997,1.5569200000000032,-1.7242800000000023,36.0,26.708399999999997,0,0,15.359999999999996,1680.0,3.0,11.928,-0.21,-1.01,-0.14,6.035200000000001,-3.8532,33.4932,0,1,1,100.0,12.068782996635658,4.8616,7.207182996635658
8,37.0,1,20.0,0.0,6,2,5.928900000000001,-0.16337999999999994,1.3768399999999992,-2.8387200000000004,36.0,26.6416,0,0,15.0,1680.0,3.0,12.4504,-0.22710000000000002,-1.02,-0.14,7.643200000000002,-5.098000000000002,34.6556,0,1,1,100.0,9.360984456847387,5.928900000000001,3.4320844568473854
8,38.0,1,20.0,0.0,6,2,6.424000000000002,-0.14835999999999994,1.142499999999999,-2.85324,36.0,26.651600000000002,0,0,15.0,1680.0,3.0,12.6118,-0.23,-1.0254,-0.14,8.433800000000003,-5.7836000000000025,34.8572,0,1,1,100.0,8.50040184856089,6.424000000000002,2.076401848560887
8,39.0,1,20.0,0.0,6,2,6.925700000000003,-0.13581999999999994,0.9797399999999996,-2.7212599999999987,36.0,26.6811,0,0,15.0,1680.0,3.0,12.7344,-0.23370000000000005,-1.0337,-0.14,9.250000000000005,-6.454900000000004,35.051,0,1,1,100.0,7.781912773466837,6.925700000000003,0.8562127734668348
8,40.0,1,20.0,0.0,6,2,7.433999999999999,-0.124,0.9556,-2.4326000000000003,36.0,26.708,0,0,15.0,1680.0,3.0,12.83,-0.24,-1.042,-0.14,10.088000000000001,-7.074000000000001,35.370000000000005,0,1,1,100.0,7.104676659622208,7.433999999999999,-0.3293233403777913
8,41.0,1,20.0,0.0,6,2,7.9489,-0.11148999999999998,1.1081,-2.0300599999999998,36.0,26.7409,0,0,15.0,1680.0,3.0,12.913,-0.2403,-1.0503,-0.14,10.9509,-7.627700000000001,35.924800000000005,0,1,1,100.0,6.387906457913547,7.9489,-1.560993542086453
8,42.0,1,20.0,0.0,6,2,8.471800000000002,-0.09737999999999997,1.1662000000000001,-1.7827199999999994,36.0,26.7658,0,0,15.0,1680.0,3.0,12.996,-0.24860000000000002,-1.0586,-0.14,11.805800000000001,-8.1174,36.8876,0,1,1,100.0,5.5794630089839545,8.471800000000002,-2.8923369910160472
8,43.0,1,20.0,0.0,6,2,8.994700000000002,-0.08188999999999994,1.2884700000000004,-1.2448899999999976,36.0,26.7976,0,0,15.0,1680.0,3.0,13.0997,-0.25,-1.0669000000000002,-0.14,12.619300000000003,-8.614000000000003,38.243700000000004,0,1,1,100.0,4.691951384326308,8.994700000000002,-4.302748615673694
8,44.0,1,20.0,0.0,6,2,9.522800000000002,-0.0645599999999999,1.3790400000000003,-0.8514399999999985,36.0,26.825599999999998,0,0,15.0,1680.0,3.0,13.2284,-0.25520000000000004,-1.0752000000000002,-0.14,13.372400000000004,-9.179600000000004,39.96560000000001,0,1,1,100.0,3.699015525364589,9.522800000000002,-5.8237844746354135
8,45.0,1,20.0,0.0,6,2,10.057500000000005,-0.04664999999999988,1.4342000000000001,-0.4622999999999962,36.0,26.8295,0,0,15.0,1680.0,3.0,13.394000000000002,-0.26,-1.0835000000000001,-0.14,14.038500000000003,-9.887000000000006,42.05050000000002,0,1,1,100.0,2.6728481142852836,10.057500000000005,-7.384651885714721
8,46.0,1,20.0,0.18000000000000116,6,2,10.5988,-0.029579999999999978,1.4267799999999997,0.008320000000000254,36.0,26.8154,0,0,15.0,1680.0,3.0,13.604000000000001,-0.26180000000000003,-1.09,-0.14,14.586400000000001,-10.803800000000003,44.502,0,1,1,100.0,1.6948091579969737,10.5988,-8.903990842003028
8,47.0,1,20.0,1.0,6,2,11.146700000000003,-0.013859999999999968,1.234499999999999,0.19439000000000053,36.0,26.84,0,0,15.0,1680.0,3.0,13.8537,-0.27010000000000006,-1.0901,-0.14,14.9817,-11.978800000000005,47.33040000000001,0,1,1,100.0,0.7941195040513191,11.146700000000003,-10.352580495948683
8,48.0,1,20.0,1.0,6,2,11.702800000000003,-0.0022399999999999525,0.8609999999999985,0.3927600000000008,36.0,26.84,0,0,15.0,1680.0,3.0,14.160800000000002,-0.27840000000000004,-1.0984,-0.14,15.122800000000002,-13.539200000000006,50.68360000000001,0,1,1,100.0,0.12834254610930168,11.702800000000003,-11.574457453890702
8,49.0,1,20.0,1.0,6,2,12.272300000000003,0.007370000000000049,0.8258500000000002,0.8095500000000025,36.0,26.84,0,0,15.0,1680.0,3.0,14.501400000000002,-0.28670000000000007,-1.1067000000000002,-0.14,15.029399999999999,-15.44800000000001,54.49240000000002,0,1,1,100.0,-0.42226989501141954,12.272300000000003,-12.694569895011423
8,50.0,1,20.0,1.0,6,2,12.850000000000003,0.01800000000000008,0.8640000000000002,1.1025000000000011,36.0,26.84,0,0,15.0,1680.0,3.0,14.870000000000003,-0.29500000000000004,-1.11,-0.14,14.699999999999998,-17.705000000000016,58.72500000000003,0,1,1,100.0,-1.0313240312354863,12.850000000000003,-13.88132403123549
8,51.0,1,20.0,1.0,6,2,13.4376,0.02995000000000002,0.8737699999999999,1.2825900000000003,36.0,26.84,0,0,13.349999999999994,1680.0,3.0,15.2683,-0.3033,-1.1133000000000002,-0.14,14.1627,-20.308500000000006,63.3173,0,1,1,100.0,-1.7160085964168166,13.4376,-15.153608596416817
8,52.0,1,20.0,1.0,6,2,14.040000000000001,0.04192000000000003,0.8371599999999998,1.4819200000000006,36.0,26.8352,0,0,10.0,1680.0,3.0,15.6964,-0.31320000000000003,-1.1216000000000002,-0.14,13.463199999999997,-23.23920000000001,68.162,0,1,1,100.0,-2.4018390771884124,14.040000000000001,-16.441839077188412
8,53.0,1,20.0,1.0,6,2,14.662500000000003,0.05188000000000004,0.7549899999999997,1.740880000000001,36.0,26.810299999999998,0,0,10.0,1680.0,3.0,16.1446,-0.3298000000000001,-1.1299,-0.14,12.649799999999997,-26.45130000000001,73.10050000000001,0,1,1,100.0,-2.972505041138713,14.662500000000003,-17.635005041138715
8,54.0,1,20.0,1.0,6,2,15.309600000000003,0.060200000000000045,0.571139999999999,1.8858600000000008,36.0,26.81,0,0,10.0,1680.0,3.0,16.584600000000002,-0.33820000000000006,-1.13,-0.14,11.811799999999996,-29.90940000000002,77.80120000000002,0,1,1,100.0,-3.4492059266875583,15.309600000000003,-18.75880592668756
8,55.0,1,20.0,1.0,6,2,15.983000000000004,0.06265000000000001,-0.12875000000000578,1.4197499999999956,36.0,26.81,0,0,10.0,1680.0,3.0,16.998500000000003,-0.34650000000000003,-1.1235,-0.13349999999999995,11.018999999999995,-33.44200000000002,81.82300000000002,0,1,1,100.0,-3.589580586494608,15.983000000000004,-19.572580586494613
8,56.0,1,20.0,1.0,6,2,16.682800000000004,0.057239999999999916,-0.696640000000003,0.8783999999999961,36.0,26.81,0,0,10.0,1680.0,3.0,17.338000000000005,-0.35,-1.1152,-0.13,10.305999999999994,-36.821600000000025,84.70240000000001,0,1,1,100.0,-3.279610419328827,16.682800000000004,-19.96241041932883
8,57.0,1,20.0,1.0,6,2,17.412100000000002,0.046659999999999965,-0.9090199999999999,0.48186999999999924,36.0,26.8193,0,0,10.0,1680.0,3.0,17.560299999999998,-0.35,-1.1038000000000001,-0.12379999999999995,9.6885,-39.808600000000006,86.04209999999999,0,1,1,100.0,-2.6734210720804192,17.412100000000002,-20.08552107208042
8,58.0,1,20.0,0.8599999999999965,6,2,18.174400000000002,0.034759999999999944,-0.8852400000000004,0.24023999999999954,36.0,26.84,0,0,9.859999999999996,1680.0,3.0,17.627599999999997,-0.3471999999999999,-1.0857999999999999,-0.10859999999999996,9.164399999999999,-42.18180000000001,85.55439999999999,0,1,1,100.0,-1.9916012958747382,18.174400000000002,-20.16600129587474
8,59.0,1,20.0,0.0299999999999954,6,2,18.971200000000003,0.02147999999999993,-0.9815200000000005,0.12901999999999939,36.0,26.84,0,0,9.029999999999996,1680.0,3.0,17.494799999999998,-0.33059999999999995,-1.0609,-0.10029999999999996,8.716199999999997,-43.733900000000006,83.03119999999998,0,1,1,100.0,-1.2307133439410043,18.971200000000003,-20.20191334394101
8,60.0,1,20.0,0.0,6,2,19.808000000000007,0.011399999999999933,-0.7697999999999985,-0.18620000000000225,36.0,26.84,0,0,9.0,1680.0,3.0,17.097999999999995,-0.3139999999999999,-1.0279999999999998,-0.09199999999999994,8.259999999999996,-44.198,78.18799999999996,0,1,1,100.0,-0.6531718864491346,19.808000000000007,-20.46117188644914
8,61.0,1,20.0,0.0,6,2,20.671500000000005,0.000809999999999911,-0.807350000000001,-0.5853000000000035,36.0,26.84,0,0,9.0,1680.0,3.0,16.489699999999996,-0.29739999999999983,-0.9947999999999997,-0.07739999999999987,7.7404999999999955,-43.67629999999999,71.53789999999994,0,1,1,100.0,-0.046409581405591586,20.671500000000005,-20.717909581405596
8,62.0,1,20.0,0.0,6,2,21.313,-0.006990000000000015,-0.85709,-0.8278200000000003,36.0,26.84,0,0,9.0,1680.0,3.2300000000000013,15.9324,-0.28079999999999994,-0.9707999999999999,-0.0677,7.311399999999999,-42.7189,65.74479999999998,0,1,1,100.0,0.4004974987964463,21.313,-20.91250250120355
8,63.0,1,20.0,0.0,1,5,21.769500000000004,-0.012385000000000061,-0.8500349999999999,-0.924930000000001,36.0,26.84,0,0,9.0,1680.0,3.6450000000000045,15.467599999999996,-0.2641999999999998,-0.9541999999999998,-0.06354999999999995,6.971099999999996,-41.65234999999999,61.08019999999995,0,1,1,100.0,0.709608229269528,21.769500000000004,-21.059891770730477
8,64.0,1,20.0,0.0,1,5,22.293200000000006,-0.017720000000000027,-0.8538400000000004,-1.0173600000000003,36.0,26.831599999999998,0,0,10.200000000000045,1680.0,4.0,14.911599999999995,-0.24639999999999987,-0.9351999999999998,-0.05759999999999991,6.549199999999995,-40.244399999999985,55.46519999999994,0,1,1,100.0,1.0152812129718203,22.293200000000006,-21.277918787028185
8,65.0,1,20.0,0.0,1,5,23.2145,-0.022699999999999998,-0.9219,-1.0821,36.0,26.7735,0,0,18.5,1680.0,4.0,13.816,-0.2215,-0.902,-0.041,5.6445,-36.8165,44.227,0,1,1,100.0,1.3006141949469685,23.2145,-21.91388580505303
8,66.0,1,20.0,0.0,1,5,25.248000000000008,-0.18732000000000062,-5.869579999999994,2.2582800000000076,36.0,26.552,0,0,15.0,1680.0,4.0,11.29919999999999,-0.1665999999999998,-0.8365999999999998,-0.014399999999999866,2.8761999999999883,-26.086799999999958,16.958799999999897,0,1,1,100.0,10.732645418390616,25.248000000000008,-14.515354581609392
8,67.0,1,20.0,0.0,1,5,25.8133,-0.22843500000000008,-5.0353499999999976,2.7356650000000005,36.0,26.50865,0,0,15.0,1680.0,4.0,10.633999999999999,-0.15389999999999998,-0.82085,-0.01,1.8808499999999977,-22.580749999999995,9.181749999999983,0,1,1,100.0,13.088361393070965,25.8133,-12.724938606929037
8,68.0,1,20.0,0.0,1,5,26.253200000000003,-0.2562400000000003,-4.15139999999999,3.0481600000000033,36.0,26.4796,0,0,15.0,1680.0,4.0,10.135999999999996,-0.14559999999999992,-0.8083999999999999,-0.01,1.0383999999999907,-19.73799999999997,3.1019999999999333,0,1,1,100.0,14.681470542432232,26.253200000000003,-11.571729457567772
8,69.0,1,20.0,0.0,1,5,27.795700000000004,-0.30835,-0.8435599999999951,4.566380000000002,36.0,26.42,0,0,15.0,1680.0,4.0,8.770399999999999,-0.11729999999999995,-0.7773,0.0,-2.543900000000012,-9.230399999999971,-19.174800000000065,0,1,1,100.0,17.667153612858936,27.795700000000004,-10.128546387141068
8,70.0,1,20.0,0.0,1,6,28.539,-0.3118,-0.0383,4.922599999999999,36.0,26.424000000000003,0,0,15.0,1680.0,4.0,8.424,-0.111,-0.771,0.0,-4.691,-3.908,-30.983,0,1,1,100.0,17.86482405217907,28.539,-10.674175947820931
8,71.0,1,20.0,0.0,1,6,29.194700000000005,-0.31013999999999997,0.15011000000000158,4.88608,36.0,26.4572,0,0,15.0,1680.0,4.0,8.4572,-0.11930000000000006,-0.7793000000000001,0.0,-6.940300000000018,1.00560000000004,-42.7109000000001,0,1,1,100.0,17.76971305818735,29.194700000000005,-11.424986941812655
8,72.0,1,20.0,0.0,1,6,29.5046,-0.30924,0.14281999999999995,4.87996,36.0,26.46,0,0,15.0,1680.0,4.0,8.669,-0.12380000000000001,-0.7876000000000001,0.0,-8.205400000000003,3.472000000000006,-49.01620000000002,0,1,1,100.0,17.718146856625577,29.5046,-11.786453143374423
8,73.0,1,20.0,0.0,1,6,29.782650000000004,-0.30840999999999996,0.11750499999999972,4.87664,36.0,26.46,0,0,15.0,1680.0,4.0,8.897250000000003,-0.12795000000000004,-0.7959000000000002,0.0,-9.379850000000014,5.713000000000025,-54.82205000000006,0,1,1,100.0,17.670591359629718,29.782650000000004,-12.112058640370286
8,74.0,1,20.0,0.0,1,6,30.587000000000003,-0.30347999999999997,0.3278200000000015,5.050380000000001,36.0,26.4432,0,0,15.0,1680.0,4.0,10.462400000000006,-0.1584000000000001,-0.8426000000000001,-0.004200000000000046,-13.952400000000013,14.242800000000024,-76.88100000000006,0,1,1,100.0,17.388123166630223,30.587000000000003,-13.19887683336978
8,75.0,1,20.0,0.0,1,6,30.834999999999997,-0.29824999999999996,0.53025,5.30725,36.0,26.4125,0,0,15.0,1680.0,4.0,11.525,-0.17750000000000002,-0.87,-0.01,-16.1375,18.7925,-87.4425,0,1,1,100.0,17.0884662397768,30.834999999999997,-13.746533760223198
8,76.0,1,20.0,0.0,1,6,30.9684,-0.2921999999999999,0.5732399999999994,5.56828,36.0,26.3868,0,0,15.0,1680.0,4.0,12.71720000000001,-0.20320000000000027,-0.9032000000000003,-0.010800000000000068,-18.120000000000015,23.65000000000004,-97.27360000000007,0,1,1,100.0,16.74182677372265,30.9684,-14.226573226277349
8,77.0,1,20.0,0.0,1,6,30.9518,-0.28389999999999993,0.5134799999999998,5.4985599999999994,36.0,26.3536,0,0,15.0,1680.0,4.0,14.036900000000003,-0.23640000000000008,-0.9364,-0.019100000000000023,-19.780000000000005,28.837500000000013,-106.12970000000003,0,1,1,100.0,16.266271803764067,30.9518,-14.685528196235932
8,78.0,1,20.0,0.0,1,6,30.875999999999998,-0.28040999999999994,0.43780999999999914,5.5058,36.0,26.338900000000002,0,0,15.0,1680.0,4.0,14.827500000000008,-0.2548000000000002,-0.9548000000000001,-0.02,-20.492800000000006,31.73100000000003,-110.45700000000004,0,1,1,100.0,16.06630953326341,30.875999999999998,-14.809690466736587
8,79.0,1,20.0,0.0,1,6,30.793,-0.277505,0.36020499999999955,5.5224,36.0,26.32645,0,0,15.0,1680.0,4.0,15.553750000000004,-0.2714000000000001,-0.9714,-0.02,-21.090400000000002,34.345500000000015,-114.23350000000002,0,1,1,100.0,15.89986529377791,30.793,-14.893134706222089
8,80.0,1,20.0,0.0,1,6,30.096,-0.2664,0.5208,6.1338,36.0,26.268,0,0,15.0,1680.0,4.0,18.706,-0.35000000000000003,-1.032,-0.034,-22.41,43.624,-125.538,0,1,1,100.0,15.263595662285132,30.096,-14.832404337714868
8,81.0,1,20.0,0.0,1,6,29.543699999999994,-0.2582399999999999,0.6303600000000029,6.4663800000000045,36.0,26.2339,0,0,15.0,1680.0,4.0,20.535100000000014,-0.3938000000000004,-1.0569000000000002,-0.04230000000000007,-22.5993,47.56620000000002,-129.17580000000004,0,1,1,100.0,14.796062101458373,29.543699999999994,-14.74763789854162
8,82.0,1,20.0,0.0,1,6,28.86,-0.24743999999999994,0.9786600000000005,6.961800000000001,36.0,26.171599999999998,0,0,14.639999999999986,1680.0,4.0,22.508200000000006,-0.44420000000000015,-1.0812000000000002,-0.05,-22.5042,50.76200000000001,-131.0304,0,1,1,100.0,14.177267682717087,28.86,-14.682732317282913
8,83.0,1,20.0,0.0,3,7,28.029999999999994,-0.22585999999999976,1.1952900000000024,7.360200000000004,36.0,26.0554,0,0,9.659999999999945,1680.0,4.0,24.55830000000002,-0.5023000000000006,-1.0978000000000003,-0.05,-22.147299999999998,53.00300000000002,-130.4826,0,1,1,100.0,12.940824760824759,28.029999999999994,-15.089175239175235
8,84.0,1,20.0,0.0,3,7,27.070399999999992,-0.21579999999999996,1.0886399999999992,7.5807600000000015,36.0,26.0112,0,0,16.200000000000045,1680.0,4.0,26.47880000000001,-0.5532000000000002,-1.1144000000000003,-0.05720000000000004,-21.581599999999998,54.372800000000005,-127.74599999999998,0,1,1,100.0,12.364429218923163,27.070399999999992,-14.705970781076829
8,85.0,1,20.0,0.0,3,7,25.997499999999985,-0.20639999999999986,0.8489999999999961,7.613549999999999,36.0,25.961499999999997,0,0,19.0,1680.0,4.0,28.15400000000002,-0.6030000000000006,-1.1255000000000002,-0.06,-20.86849999999999,54.889,-123.23949999999994,0,1,1,100.0,11.825848891500183,25.997499999999985,-14.171651108499802
8,86.0,1,20.0,0.0,3,7,24.82379999999999,-0.19529999999999992,0.8525600000000029,7.749260000000002,36.0,25.903399999999998,0,0,19.0,1680.0,4.0,29.48640000000001,-0.6414000000000002,-1.1338,-0.06380000000000006,-20.04339999999999,54.52159999999999,-117.24979999999995,0,1,1,100.0,11.189865738904974,24.82379999999999,-13.633934261095018
8,87.0,1,20.0,0.0,3,7,23.559799999999996,-0.18116999999999994,1.2936400000000021,8.260540000000002,36.0,25.845299999999998,0,0,19.0,1680.0,4.0,30.399700000000003,-0.6642000000000001,-1.14,-0.07,-19.140599999999996,53.2713,-110.09609999999998,0,1,1,100.0,10.38027637438512,23.559799999999996,-13.179523625614875
8,88.0,1,20.0,0.0,3,7,22.211199999999984,-0.1615999999999997,2.0084400000000038,9.195800000000002,36.0,25.79,0,0,19.0,1680.0,4.0,30.844,-0.68,-1.14,-0.07,-18.194799999999987,51.17799999999997,-102.1071999999999,0,1,1,100.0,9.258997969314086,22.211199999999984,-12.952202030685898
8,89.0,1,20.0,0.0,3,7,20.783599999999993,-0.13254999999999983,2.3495700000000017,9.35765,36.0,25.79,0,0,19.0,1680.0,4.0,30.7195,-0.68,-1.14,-0.07,-17.256899999999995,48.23149999999999,-93.54159999999996,0,1,1,100.0,7.5945555744590525,20.783599999999993,-13.18904442554094
8,90.0,1,20.0,0.0,3,7,19.29999999999998,-0.1034999999999996,2.1334999999999953,9.081999999999994,36.0,25.839,0,0,19.0,1680.0,4.0,30.14699999999999,-0.6589999999999997,-1.1329999999999998,-0.07700000000000012,-16.381999999999987,44.68999999999995,-84.74499999999988,0,1,1,100.0,5.930113179603998,19.29999999999998,-13.369886820395982
8,91.0,1,20.0,0.0,3,7,18.269749999999995,-0.08637499999999991,1.8179249999999973,8.753454999999997,36.0,25.88915,0,0,19.0,1680.0,4.0,29.557549999999996,-0.6420499999999999,-1.13,-0.08,-15.823549999999997,42.01849999999998,-78.71714999999996,0,1,1,100.0,4.94892295544248,18.269749999999995,-13.320827044557515
8,92.0,1,20.0,0.0,3,7,17.502,-0.07599999999999997,1.504599999999999,8.440959999999999,36.0,25.9348,0,0,19.0,1680.0,4.0,29.005599999999998,-0.6295999999999999,-1.13,-0.08,-15.4376,39.901999999999994,-74.28079999999999,0,1,1,100.0,4.3544792429942545,17.502,-13.147520757005744
8,93.0,1,20.0,0.0,3,7,14.672799999999983,-0.044959999999999854,1.1025599999999964,7.448529999999993,36.0,26.142300000000002,0,0,19.0,1680.0,4.0,26.432399999999983,-0.5604999999999996,-1.1280999999999999,-0.09,-14.218899999999994,31.64079999999995,-58.40199999999991,0,1,1,100.0,2.576018246908173,14.672799999999983,-12.09678175309181
8,94.0,1,20.0,0.0,3,7,13.112799999999991,-0.03185999999999997,0.7829599999999967,6.765339999999995,36.0,26.2828,0,0,19.0,1680.0,4.0,24.73679999999999,-0.5189999999999998,-1.12,-0.09020000000000004,-13.646799999999997,26.928999999999974,-49.94479999999996,0,1,1,100.0,1.8254435352868013,13.112799999999991,-11.28735646471319
8,95.0,1,20.0,0.0,3,7,11.568999999999978,-0.02604999999999992,0.15879999999999148,5.741949999999986,36.0,26.399000000000004,0,0,19.0,1680.0,4.0,22.943999999999978,-0.4774999999999994,-1.12,-0.09850000000000012,-13.098999999999993,22.322499999999934,-41.843999999999895,0,1,1,100.0,1.4925550563157899,11.568999999999978,-10.076444943684187
8,96.0,1,20.0,0.0,3,7,10.059199999999988,-0.025,-0.018600000000000647,4.991239999999994,36.0,26.5152,0,0,19.0,1680.0,4.0,21.137599999999985,-0.4291999999999996,-1.1132,-0.1,-12.530799999999996,17.947199999999967,-34.14439999999994,0,1,1,100.0,1.4323944878270582,10.059199999999988,-8.626805512172929
8,97.0,1,20.0,0.0,3,7,8.587499999999997,-0.02551,-0.07705000000000012,4.293029999999998,36.0,26.5957,0,0,19.0,1680.0,4.0,19.379199999999997,-0.3895999999999999,-1.11,-0.10510000000000003,-11.952999999999998,13.85749999999999,-26.900499999999983,0,1,1,100.0,1.4616153353787302,8.587499999999997,-7.125884664621267
8,98.0,1,20.0,0.0,3,7,7.162199999999985,-0.02634000000000001,-0.11726000000000035,3.573359999999992,36.0,26.6674,0,0,19.0,1680.0,4.0,17.69699999999998,-0.35299999999999954,-1.1066,-0.11,-11.378799999999993,10.105399999999962,-20.17599999999993,0,1,1,100.0,1.509170832374589,7.162199999999985,-5.653029167625396
8,99.0,1,20.0,0.0,3,7,5.793099999999993,-0.027510000000000014,-0.15541000000000033,2.861469999999997,36.0,26.745099999999997,0,0,19.0,1680.0,4.0,16.10569999999999,-0.31489999999999985,-1.0983,-0.11170000000000005,-10.822899999999997,6.727999999999984,-14.02269999999997,0,1,1,100.0,1.5762068944048955,5.793099999999993,-4.216893105595098
8,100.0,1,20.0,0.0,3,7,4.49,-0.03,-0.216,2.273,36.0,26.77,0,0,19.0,1680.0,4.0,14.62,-0.29,-1.09,-0.12,-10.3,3.74,-8.47,0,1,1,100.0,1.7188733853924696,4.49,-2.771126614607531
9,0.0,1,20.0,0.0,0,1,3.04,-0.032,-0.146,1.492,36.0,26.81,0,0,19.0,1680.0,4.0,13.01,-0.25,-1.09,-0.12,-9.73,0.72,-2.72,0,1,1,100.0,1.8334649444186344,3.04,-1.2065350555813656
9,1.0,1,20.0,0.0,0,1,1.901,-0.034550000000000004,-0.16725,1.05425,36.0,26.81,0,0,19.0,1680.0,4.0,11.802999999999999,-0.2245,-1.0815000000000001,-0.1285,-9.322,-1.456,1.3090000000000002,0,1,1,100.0,1.9795691821769945,1.901,0.07856918217699449
9,2.0,1,20.0,0.0,0,1,0.86,-0.035,-0.171,0.977,36.0,26.81,0,0,33.0,1680.0,4.0,10.715,-0.20600000000000002,-1.073,-0.13,-8.977,-3.317,4.645,0,1,1,100.0,2.0053522829578814,0.86,1.1453522829578815
9,3.0,1,20.0,0.0,0,1,-0.08300000000000006,-0.035,-0.171,0.977,36.0,26.81,0,0,50.0,1680.0,4.0,9.735,-0.18350000000000002,-1.0645,-0.13,-8.7005,-4.863,7.3870000000000005,0,1,1,100.0,2.0053522829578814,-0.08300000000000006,2.0883522829578816
9,4.0,1,20.0,0.0,0,1,-0.932,-0.035,-0.171,0.977,36.0,26.81,0,0,67.0,1680.0,4.0,8.848,-0.162,-1.06,-0.13,-8.486,-6.09,9.65,0,1,1,100.0,2.0053522829578814,-0.932,2.9373522829578813
9,5.0,1,20.0,0.0,0,1,-1.6875,-0.03975,-2.0229999999999997,0.73275,36.0,26.8175,0,0,61.75,1680.0,4.0,8.0425,-0.1475,-1.0575,-0.1325,-8.317499999999999,-7.0024999999999995,11.5525,0,1,1,100.0,2.2775072356450226,-1.6875,3.9650072356450226
9,6.0,1,20.0,0.0,0,1,-2.3459999999999996,-0.054599999999999996,-6.854699999999999,-0.0,36.0,26.844,0,0,10.0,1680.0,4.0,7.314,-0.138,-1.049,-0.14,-8.174,-7.62,13.200999999999999,0,1,1,100.0,3.1283495614142947,-2.3459999999999996,5.474349561414295
9,7.0,1,20.0,0.0,0,1,-2.907,-0.059699999999999996,-0.6981500000000003,-0.0,36.0,26.878,0,0,10.0,1680.0,4.0,6.668,-0.121,-1.0405,-0.14,-8.038,-7.960000000000001,14.6545,0,1,1,100.0,3.4205580369310145,-2.907,6.3275580369310145
9,8.0,1,20.0,0.0,0,1,-3.3640000000000003,-0.0648,-0.3664,-0.0,36.0,26.848,0,0,10.0,1680.0,4.0,6.11,-0.112,-1.04,-0.14,-7.878,-8.068,15.94,0,1,1,100.0,3.7127665124477343,-3.3640000000000003,7.076766512447735
9,9.0,1,20.0,0.0,0,1,-3.7365,-0.07055,-0.45785,-0.0,36.0,26.84,0,0,10.0,1680.0,4.0,5.6225,-0.10350000000000001,-1.04,-0.1465,-7.671,-8.0185,17.130499999999998,0,1,1,100.0,4.042217244647958,-3.7365,7.778717244647957
9,10.0,1,20.0,0.0,0,1,-4.029999999999999,-0.0765,-0.3665,-0.0,36.0,26.86,0,0,10.0,1680.0,4.0,5.21,-0.095,-1.0350000000000001,-0.15,-7.405,-7.85,18.240000000000002,0,1,1,100.0,4.383127132750798,-4.029999999999999,8.413127132750798
9,11.0,1,20.0,0.0,0,1,-4.2465,-0.0814,-0.2517,-0.0,36.0,26.866,0,0,9.65,1680.0,4.0,4.871,-0.0865,-1.03,-0.1535,-7.069,-7.6045,19.2655,0,1,1,100.0,4.663876452364901,-4.2465,8.9103764523649
9,12.0,1,20.0,0.0,0,1,-4.392,-0.085,-0.30319999999999997,-0.0,36.0,26.84,0,0,9.0,1680.0,4.0,4.606,-0.08,-1.03,-0.16,-6.664,-7.311999999999999,20.202,0,1,1,100.0,4.870141258611998,-4.392,9.262141258611997
9,13.0,1,20.0,0.0,0,1,-4.4805,-0.08929999999999999,-0.35285,-0.0,36.0,26.842,0,0,9.0,1680.0,4.0,4.4235,-0.08,-1.0295,-0.16,-6.2095,-6.98,21.054000000000002,0,1,1,100.0,5.116513110518251,-4.4805,9.597013110518251
9,14.0,1,20.0,0.0,0,1,-4.489,-0.0944,-0.4353,-0.0,36.0,26.875999999999998,0,0,9.0,1680.0,4.0,4.313,-0.08,-1.021,-0.16,-5.691,-6.64,21.802,0,1,1,100.0,5.4087215860349716,-4.489,9.897721586034972
9,15.0,1,20.0,0.0,0,1,-4.445,-0.10024999999999999,-0.406,-0.0,36.0,26.849999999999998,0,0,9.0,1680.0,4.0,4.285,-0.08,-1.02,-0.1675,-5.135,-6.284999999999999,22.4825,0,1,1,100.0,5.743901896186502,-4.445,10.188901896186502
9,16.0,1,20.0,0.0,0,1,-4.351999999999999,-0.1056,-0.4284,-0.0,36.0,26.84,0,0,9.0,1680.0,4.0,4.316,-0.08,-1.02,-0.17,-4.562,-5.94,23.088,0,1,1,100.0,6.0504343165814936,-4.351999999999999,10.402434316581493
9,17.0,1,20.0,0.0,0,1,-4.2145,-0.11025,-0.4061,-0.0,36.0,26.858,0,0,9.0,1680.0,4.0,4.398499999999999,-0.08,-1.0155,-0.17,-3.9795000000000003,-5.6135,23.6255,0,1,1,100.0,6.316859691317326,-4.2145,10.531359691317327
9,18.0,1,20.0,0.0,0,1,-4.038,-0.1148,-0.3842,-0.0,36.0,26.868,0,0,9.0,1680.0,4.0,4.5329999999999995,-0.08,-1.01,-0.17300000000000001,-3.3930000000000002,-5.311,24.094,0,1,1,100.0,6.577555488101851,-4.038,10.615555488101851
9,19.0,1,20.0,0.0,0,1,-3.8265000000000002,-0.12035,-0.4868,-0.0,36.0,26.84,0,0,9.0,1680.0,4.0,4.7204999999999995,-0.0815,-1.01,-0.18,-2.8095000000000003,-5.035,24.4945,0,1,1,100.0,6.895547064399458,-3.8265000000000002,10.722047064399458
9,20.0,1,20.0,0.0,0,1,-3.58,-0.128,-0.616,-0.0,36.0,26.84,0,0,9.0,1680.0,4.0,4.95,-0.09,-1.01,-0.18,-2.24,-4.78,24.86,0,1,1,100.0,7.333859777674538,-3.58,10.913859777674539
9,21.0,1,20.0,0.0,0,1,-3.2995,-0.1348,-0.62705,-0.0,36.0,26.874,0,0,9.0,1680.0,4.0,5.2135,-0.09,-1.01,-0.18,-1.679,-4.5335,25.2085,0,1,1,100.0,7.723471078363497,-3.2995,11.022971078363497
9,22.0,1,20.0,0.0,0,1,-2.991,-0.1409,-0.4743,-0.0,36.0,26.852,0,0,9.0,1680.0,4.0,5.505,-0.097,-1.01,-0.18,-1.146,-4.308000000000001,25.543,0,1,1,100.0,8.072975333393298,-2.991,11.063975333393298
9,23.0,1,20.0,0.0,0,1,-2.66,-0.14795,-0.5751999999999999,-0.0,36.55,26.84,0,0,9.0,1680.0,4.0,5.8135,-0.1055,-1.0045,-0.18,-0.6244999999999999,-4.098000000000001,25.891,0,1,1,100.0,8.47691057896053,-2.66,11.13691057896053
9,24.0,1,20.0,0.0,0,1,-2.308,-0.1556,-0.6547999999999999,-0.0,37.0,26.855999999999998,0,0,9.0,1680.0,4.0,6.140000000000001,-0.11,-1.0,-0.18,-0.118,-3.898,26.264,0,1,1,100.0,8.91522329223561,-2.308,11.223223292235609
9,25.0,1,20.0,0.0,0,1,-1.9375,-0.16275,-0.5297499999999999,-0.0,37.0,26.869999999999997,0,0,9.0,1680.0,4.0,6.48,-0.1125,-1.0,-0.18,0.37250000000000005,-3.715,26.669999999999998,0,1,1,100.0,9.324888115754149,-1.9375,11.262388115754149
9,26.0,1,20.0,0.0,0,1,-1.5530000000000002,-0.169,-0.4577,-0.0,37.0,26.84,0,0,9.0,1680.0,4.0,6.822,-0.121,-1.0,-0.18,0.8540000000000001,-3.565,27.121,0,1,1,100.0,9.682986737710912,-1.5530000000000002,11.235986737710913
9,27.0,1,20.0,0.0,0,1,-1.1535,-0.1775,-0.8461500000000001,-0.0,37.0,26.84,0,0,9.0,1680.0,4.0,7.179,-0.1295,-1.0,-0.18,1.3130000000000002,-3.4375,27.6395,0,1,1,100.0,10.170000863572112,-1.1535,11.32350086357211
9,28.0,1,20.0,0.0,0,1,-0.9339999999999999,-0.18159999999999998,-0.7434000000000001,-0.0,37.0,26.855999999999998,0,0,9.0,1680.0,4.0,7.368,-0.13,-1.0,-0.18,1.56,-3.386,27.962,0,1,1,100.0,10.404913559575748,-0.9339999999999999,11.338913559575747
9,29.0,1,20.0,0.0,0,1,-0.72575,-0.185425,-0.60995,-0.0,37.0,26.872999999999998,0,0,9.0,1680.0,4.0,7.5465,-0.13,-1.0,-0.18,1.79375,-3.33925,28.27225,0,1,1,100.0,10.62406991621329,-0.72575,11.34981991621329
9,30.0,1,20.0,0.0,0,1,0.12000000000000001,-0.19999999999999998,-0.6075,-0.0,37.0,26.86,0,0,9.0,1680.0,4.0,8.285,-0.145,-1.0,-0.18,2.77,-3.21,29.740000000000002,0,1,1,100.0,11.459155902616464,0.12000000000000001,11.339155902616465
9,31.0,1,20.0,0.0,0,1,0.5690000000000001,-0.20779999999999998,-0.6538,-0.0,37.0,26.88,0,0,9.0,1680.0,4.0,8.671,-0.1535,-1.0,-0.18,3.2975,-3.173,30.615,0,1,1,100.0,11.906062982818506,0.5690000000000001,11.337062982818505
9,32.0,1,20.0,0.0,6,2,1.028,-0.2138,-0.5122,-0.014799999999999999,37.0,26.858,0,0,10.8,1680.0,4.0,9.07,-0.162,-1.0,-0.18,3.8600000000000003,-3.17,31.541999999999998,0,1,1,100.0,12.249837659897,1.028,11.221837659897
9,33.0,1,20.0,0.0,6,2,1.488,-0.21615,-0.64835,-0.17975000000000002,37.0,26.765,0,0,17.85,1680.0,4.0,9.4975,-0.1705,-1.0,-0.18,4.4555,-3.2205,32.4245,0,1,1,100.0,12.384482741752745,1.488,10.896482741752745
9,34.0,1,20.0,0.0,6,2,1.964,-0.20170000000000002,1.1986999999999999,-1.9775000000000003,37.0,26.68,0,0,15.3,1680.0,4.0,9.965,-0.179,-1.0,-0.18,5.059,-3.399,33.010999999999996,0,1,1,100.0,11.556558727788705,1.964,9.592558727788704
9,35.0,1,20.0,0.0,6,2,2.4475,-0.1835,1.36425,-2.72225,37.0,26.64,0,0,15.0,1680.0,4.0,10.44,-0.1875,-1.0,-0.18,5.6475,-3.7725,33.17,0,1,1,100.0,10.513775540650606,2.4475,8.066275540650606
9,36.0,1,20.0,0.0,6,2,2.944,-0.1672,1.14,-3.0662,37.0,26.612000000000002,0,0,15.0,1680.0,4.0,10.886,-0.196,-1.0,-0.18,6.228,-4.334,33.002,0,1,1,100.0,9.579854334587363,2.944,6.635854334587363
9,37.0,1,20.0,0.0,6,2,3.4455,-0.1564,0.7905,-3.2877,37.0,26.6,0,0,15.0,1680.0,4.0,11.279,-0.20450000000000002,-1.0045,-0.18,6.8015,-5.0215,32.6585,0,1,1,100.0,8.961059915846075,3.4455,5.515559915846075
9,38.0,1,20.0,0.0,6,2,3.83,-0.1512,0.541,-3.3927,37.0,26.603,0,0,15.0,1680.0,4.0,11.544,-0.21,-1.01,-0.18,7.2379999999999995,-5.588,32.366,0,1,1,100.0,8.663121862378047,3.83,4.8331218623780465
9,39.0,1,20.0,0.0,6,2,4.0,-0.14893333333333333,0.5665,-3.30685,37.0,26.6115,0,0,15.0,1680.0,4.0,11.640333333333333,-0.21,-1.01,-0.18,7.430666666666666,-5.8373333333333335,32.269666666666666,0,1,1,100.0,8.53325142881506,4.0,4.53325142881506
9,40.0,1,20.0,0.0,6,2,4.17,-0.14666666666666667,0.592,-3.221,37.0,26.62,0,0,15.0,1680.0,4.0,11.736666666666666,-0.21,-1.01,-0.18,7.623333333333333,-6.086666666666667,32.17333333333333,0,1,1,100.0,8.403380995252075,4.17,4.233380995252075
9,41.0,1,20.0,0.0,6,2,4.34,-0.1444,0.6174999999999999,-3.1351500000000003,37.0,26.6285,0,0,15.0,1680.0,4.0,11.833,-0.21,-1.01,-0.18,7.816,-6.336,32.077000000000005,0,1,1,100.0,8.273510561689088,4.34,3.933510561689088
9,42.0,1,20.0,0.0,6,2,6.051,-0.1163,0.7424999999999999,-2.3367999999999998,37.0,26.7,0,0,9.0,1680.0,4.0,12.422,-0.227,-1.037,-0.17300000000000001,9.713000000000001,-8.389,33.391,0,1,1,100.0,6.663499157371474,6.051,0.6124991573714738
9,43.0,1,20.0,0.0,6,2,6.5865,-0.1053,0.9088999999999999,-2.0759499999999997,37.0,26.721999999999998,0,0,9.0,1680.0,4.0,12.5415,-0.23,-1.0455,-0.17,10.283,-8.9695,34.7145,0,1,1,100.0,6.033245582727569,6.5865,-0.5532544172724307
9,44.0,1,20.0,0.4,6,2,7.126,-0.0922,1.0996,-1.6928,37.0,26.752,0,0,9.4,1680.0,4.0,12.639999999999999,-0.234,-1.054,-0.17,10.812,-9.592,36.496,0,1,1,100.0,5.28267087110619,7.126,-1.84332912889381
9,45.0,1,20.0,1.0,6,2,7.672499999999999,-0.077,1.3359999999999999,-1.1345,37.0,26.78,0,0,10.0,1680.0,4.0,12.722499999999998,-0.24,-1.0625,-0.17,11.2775,-10.2925,38.7225,0,1,1,100.0,4.411775022507339,7.672499999999999,-3.2607249774926608
9,46.0,1,20.0,1.0,6,2,8.1925,-0.06095,1.4979,-0.6980999999999999,37.0,26.8115,0,0,10.0,1680.0,4.0,12.795,-0.2405,-1.0705,-0.17,11.644,-11.0495,41.1945,0,1,1,100.0,3.4921777613223672,8.1925,-4.700322238677634
9,47.0,1,20.0,1.0,6,2,8.46875,-0.052025,1.42055,-0.5459499999999999,37.0,26.82425,0,0,10.0,1680.0,4.0,12.8375,-0.24475,-1.07475,-0.17,11.763,-11.55525,42.76275,0,1,1,100.0,2.980812929168108,8.46875,-5.487937070831892
9,48.0,1,20.0,1.0,6,2,8.745000000000001,-0.0431,1.3432,-0.3938,37.0,26.837,0,0,10.0,1680.0,4.0,12.88,-0.249,-1.0790000000000002,-0.17,11.882,-12.061,44.331,0,1,1,100.0,2.469448097013848,8.745000000000001,-6.2755519029861535
9,49.0,1,20.0,1.0,6,2,9.912,-0.011599999999999997,0.9182,0.21505,37.0,26.84,0,0,10.0,1680.0,4.0,13.1435,-0.2565,-1.0965,-0.17,11.5875,-14.947999999999999,52.277,0,1,1,100.0,0.6646310423517549,9.912,-9.247368957648247
9,50.0,1,20.0,1.0,6,2,10.49,-0.0005000000000000009,0.682,0.473,37.0,26.84,0,0,10.0,1680.0,4.0,13.34,-0.265,-1.105,-0.17,10.975,-16.805,56.83,0,1,1,100.0,0.02864788975654121,10.49,-10.461352110243459
9,51.0,1,20.0,1.0,6,2,10.95425,0.006925,0.605925,0.669875,37.0,26.847,0,0,10.0,1680.0,4.0,13.53125,-0.27175000000000005,-1.11175,-0.17,10.289,-18.481749999999998,60.711,0,1,1,100.0,-0.39677327312809507,10.95425,-11.351023273128096
9,52.0,1,20.0,1.0,6,2,11.256,0.0116,0.7126,0.859,37.0,26.864,0,0,10.0,1680.0,4.0,13.68,-0.276,-1.116,-0.17,9.728,-19.676,63.312000000000005,0,1,1,100.0,-0.6646310423517549,11.256,-11.920631042351754
9,53.0,1,20.0,1.0,6,2,11.5765,0.01655,0.80855,1.0398999999999998,37.0,26.8765,0,0,10.0,1680.0,4.0,13.842,-0.2805,-1.1205,-0.17,9.1215,-20.958000000000002,66.0755,0,1,1,100.0,-0.9482451509415124,11.5765,-12.524745150941511
9,54.0,1,20.0,1.0,6,2,12.197,0.0259,0.7329,1.0892,37.0,26.817,0,0,10.0,1680.0,4.0,14.216,-0.289,-1.129,-0.17,7.787,-23.644000000000002,71.439,0,1,1,100.0,-1.4839606893888322,12.197,-13.680960689388831
9,55.0,1,20.0,1.0,6,2,13.64,0.0395,0.2425,1.03275,37.0,26.8175,0,0,10.0,1680.0,4.0,15.1825,-0.3075,-1.14,-0.16,5.11,-29.8325,81.9975,0,1,1,100.0,-2.2631832907667517,13.64,-15.903183290766751
9,56.0,1,20.0,1.0,6,2,14.344,0.0374,-0.32680000000000003,0.6626,37.0,26.81,0,0,10.0,1680.0,4.0,15.632,-0.316,-1.14,-0.154,4.298,-32.66,85.266,0,1,1,100.0,-2.142862153789279,14.344,-16.48686215378928
9,57.0,1,20.0,1.0,6,2,15.084999999999999,0.030500000000000003,-0.6627,0.37745,37.0,26.8235,0,0,10.0,1680.0,4.0,16.02,-0.3245,-1.131,-0.1455,3.835,-35.384,86.95,0,1,1,100.0,-1.747521275149011,15.084999999999999,-16.83252127514901
9,58.0,1,20.0,0.85,6,2,15.7225,0.0238,-0.67085,0.27559999999999996,37.0,26.8355,0,0,9.85,1680.0,4.0,16.2685,-0.3285,-1.117,-0.1385,3.7,-37.5185,87.0825,0,1,1,100.0,-1.3636395524113594,15.7225,-17.08613955241136
9,59.0,1,20.0,0.425,6,2,16.126250000000002,0.0204,-0.559925,0.2348,37.0,26.82275,0,0,9.425,1680.0,4.0,16.349249999999998,-0.32425000000000004,-1.1085,-0.13425,3.785,-38.70425,86.21125,0,1,1,100.0,-1.1688339020668794,16.126250000000002,-17.29508390206688
9,60.0,1,20.0,0.0,6,2,16.53,0.017,-0.449,0.194,37.0,26.81,0,0,9.0,1680.0,4.0,16.43,-0.32,-1.1,-0.13,3.87,-39.89,85.34,0,1,1,100.0,-0.9740282517223996,16.53,-17.5040282517224
9,61.0,1,20.0,0.0,6,2,17.380000000000003,0.01105,-0.42435,-0.036350000000000014,37.0,26.8355,0,0,9.0,1680.0,4.0,16.3535,-0.3115,-1.0745,-0.1215,4.3885000000000005,-41.726,81.0985,0,1,1,100.0,-0.6331183636195598,17.380000000000003,-18.01311836361956
9,62.0,1,20.0,0.0,1,5,19.343,-0.008400000000000001,-0.7881,-0.7539,37.0,26.84,0,0,9.0,1687.0,4.7,15.371,-0.279,-1.012,-0.093,6.163,-42.852999999999994,65.208,0,1,1,100.0,0.48128454790989156,19.343,-18.86171545209011
9,63.0,1,20.0,0.0,1,5,20.291500000000003,-0.0153,-0.8382000000000001,-0.9314499999999999,37.0,26.8015,0,0,14.5,1690.0,5.0,14.579,-0.2535,-0.9724999999999999,-0.079,7.0840000000000005,-41.5145,55.2005,0,1,1,100.0,0.8766254265501595,20.291500000000003,-19.414874573449843
9,64.0,1,20.0,0.0,1,5,21.256,-0.0556,-3.2638,-0.1197999999999999,37.0,26.714,0,0,17.4,1690.0,5.0,13.648,-0.22799999999999998,-0.9339999999999999,-0.066,7.942,-38.92,44.176,0,1,1,100.0,3.185645340927377,21.256,-18.070354659072624
9,65.0,1,20.0,0.0,1,5,22.2225,-0.13625,-6.6175,1.47925,37.0,26.605,0,0,15.0,1690.0,5.0,12.629999999999999,-0.20249999999999999,-0.9,-0.057499999999999996,8.66,-35.1625,32.645,0,1,1,100.0,7.806549958657467,22.2225,-14.415950041342533
9,66.0,1,20.0,0.0,1,5,23.181,-0.2162,-5.826,2.2959,37.0,26.526,0,0,15.0,1690.0,5.0,11.581,-0.177,-0.866,-0.049,9.162,-30.451,21.002000000000002,0,1,1,100.0,12.387347530728398,23.181,-10.793652469271603
9,67.0,1,20.0,0.0,1,5,24.1245,-0.27740000000000004,-3.8795,2.93255,37.0,26.491999999999997,0,0,15.0,1690.0,5.0,10.5695,-0.1515,-0.832,-0.0405,9.349,-25.0195,9.374,0,1,1,100.0,15.893849236929038,24.1245,-8.230650763070964
9,68.0,1,20.0,0.0,1,6,25.02,-0.3106,-1.8786,3.7892,37.0,26.49,0,0,15.0,1690.0,5.0,9.678,-0.134,-0.806,-0.032,9.168,-19.18,-2.4060000000000006,0,1,1,100.0,17.79606911676337,25.02,-7.22393088323663
9,69.0,1,20.0,0.0,1,6,25.5485,-0.3206,-0.9559,4.1922500000000005,37.0,26.480249999999998,0,0,15.0,1690.0,5.0,9.22625,-0.12675,-0.7935000000000001,-0.03,8.89575,-15.55425,-9.795,0,1,1,100.0,18.369026911894192,25.5485,-7.179473088105809
9,70.0,1,20.0,0.0,1,6,25.965,-0.324,-0.366,4.4515,37.0,26.4675,0,0,15.0,1690.0,5.0,8.9075,-0.1225,-0.785,-0.03,8.6025,-12.6175,-15.829999999999998,0,1,1,100.0,18.563832562238673,25.965,-7.401167437761327
9,71.0,1,20.0,0.0,1,6,26.5215,-0.3246,0.0762,4.6376,37.0,26.46,0,0,12.9,1690.0,5.0,8.611500000000001,-0.11649999999999999,-0.7765,-0.0335,8.0135,-8.6045,-24.448,0,1,1,100.0,18.59821002994652,26.5215,-7.923289970053478
9,72.0,1,20.0,0.0,1,6,27.983999999999998,-0.3182,0.1944,4.6618,37.0,26.49,0,0,9.0,1690.0,5.0,8.76,-0.122,-0.784,-0.042,5.056,2.794,-51.498000000000005,0,1,1,100.0,18.231517041062794,27.983999999999998,-9.752482958937204
9,73.0,1,20.0,0.0,1,6,28.5035,-0.31495,0.1523,4.61655,37.0,26.4885,0,0,9.0,1690.0,5.0,9.3735,-0.131,-0.801,-0.0505,3.199,7.5635,-63.960499999999996,0,1,1,100.0,18.045305757645277,28.5035,-10.458194242354722
9,74.0,1,20.0,0.0,1,6,28.903,-0.3141,0.1574,4.6769,37.0,26.463,0,0,9.0,1690.0,5.0,10.283000000000001,-0.148,-0.818,-0.059,1.142,12.213,-76.03899999999999,0,1,1,100.0,17.996604345059158,28.903,-10.906395654940841
9,75.0,1,20.0,0.0,1,6,29.1825,-0.3095,0.446,4.977250000000001,37.0,26.43,0,0,9.0,1690.0,5.0,11.365,-0.1725,-0.85,-0.075,-1.02,16.900000000000002,-87.4275,0,1,1,100.0,17.73304375929898,29.1825,-11.449456240701021
9,76.0,1,20.0,0.0,1,6,29.326,-0.302,0.7262,5.3888,37.0,26.42,0,0,9.0,1690.0,5.0,12.56,-0.19799999999999998,-0.878,-0.086,-3.232,21.664,-97.932,0,1,1,100.0,17.303325412950862,29.326,-12.022674587049138
9,77.0,1,20.0,0.0,1,6,29.3385,-0.2908,0.91875,5.70915,37.0,26.3885,0,0,9.0,1690.0,5.0,13.842,-0.2235,-0.908,-0.0945,-5.441000000000001,26.44,-107.3685,0,1,1,100.0,16.66161268240434,29.3385,-12.67688731759566
9,78.0,1,20.0,0.0,1,6,29.219,-0.2781,0.9152,5.896,37.0,26.329,0,0,9.0,1690.0,5.0,15.195,-0.252,-0.9420000000000001,-0.10300000000000001,-7.5920000000000005,31.095,-115.585,0,1,1,100.0,15.933956282588195,29.219,-13.285043717411806
9,79.0,1,20.0,0.0,1,6,28.958000000000002,-0.26795,0.6255,5.9857499999999995,37.0,26.28,0,0,9.0,1690.0,5.0,16.6125,-0.28750000000000003,-0.976,-0.1115,-9.621,35.457,-122.4585,0,1,1,100.0,15.35240412053041,28.958000000000002,-13.605595879469591
9,80.0,1,20.0,0.0,1,6,28.55,-0.262,0.158,5.82,37.0,26.28,0,0,9.0,1690.0,5.0,18.1,-0.33,-1.01,-0.12,-11.44,39.35,-127.89,0,1,1,100.0,15.01149423242757,28.55,-13.538505767572431
9,81.0,1,20.0,0.0,1,6,27.972,-0.26030000000000003,0.2192,6.0206,37.0,26.2545,0,0,9.0,1690.0,5.0,19.664,-0.3725,-1.0355,-0.1285,-12.961500000000001,42.410000000000004,-131.34099999999998,0,1,1,100.0,14.91409140725533,27.972,-13.05790859274467
9,82.0,1,20.0,0.0,1,6,27.253999999999998,-0.2551,0.3574,6.2555000000000005,37.0,26.222,0,0,9.0,1690.0,5.0,21.326,-0.415,-1.061,-0.13,-14.161000000000001,44.728,-132.874,0,1,1,100.0,14.6161533537873,27.253999999999998,-12.637846646212697
9,83.0,1,20.0,0.0,3,7,26.4015,-0.2464,0.7464000000000001,6.7095,37.0,26.1715,0,0,9.0,1690.0,5.0,23.0695,-0.46299999999999997,-1.081,-0.13,-15.011000000000001,46.381,-132.2525,0,1,1,100.0,14.117680072023484,26.4015,-12.283819927976515
9,84.0,1,20.0,0.0,3,7,25.672,-0.2394,1.032,7.0318000000000005,37.0,26.126,0,0,11.0,1690.0,5.0,24.418000000000003,-0.5,-1.094,-0.13,-15.442,47.275999999999996,-130.42999999999998,0,1,1,100.0,13.716609615431908,25.672,-11.955390384568092
9,85.0,1,20.0,0.0,3,7,25.145,-0.23600000000000002,1.0575,7.0760000000000005,37.0,26.09625,0,0,15.25,1690.0,5.0,25.285,-0.52125,-1.1025,-0.13,-15.57375,47.62875,-128.32625,0,1,1,100.0,13.521803965087429,25.145,-11.62319603491257
9,86.0,1,20.0,0.0,3,7,23.115,-0.2193,0.8714999999999999,7.3347999999999995,37.0,25.997,0,0,19.0,1690.0,5.0,27.939999999999998,-0.604,-1.1309999999999998,-0.129,-15.502,47.944,-117.953,0,1,1,100.0,12.564964447218953,23.115,-10.550035552781045
9,87.0,1,20.0,0.0,3,7,21.7975,-0.20484999999999998,1.13075,7.7665999999999995,37.0,25.9715,0,0,19.0,1690.0,5.0,29.044999999999998,-0.638,-1.1395,-0.1205,-15.094000000000001,47.298,-109.90350000000001,0,1,1,100.0,11.737040433254913,21.7975,-10.060459566745086
9,88.0,1,20.0,0.0,3,7,21.052,-0.1956,1.2919999999999998,7.8591999999999995,37.0,25.954,0,0,19.0,1690.0,5.0,29.402,-0.648,-1.14,-0.11599999999999999,-14.79,46.592,-105.19,0,1,1,100.0,11.207054472758902,21.052,-9.844945527241098
9,89.0,1,20.0,0.0,3,7,20.34225,-0.186675,1.447125,7.9306,37.0,25.937,0,0,19.0,1690.0,5.0,29.71225,-0.6565000000000001,-1.14,-0.11175,-14.4925,45.88225,-100.685,0,1,1,100.0,10.695689640604643,20.34225,-9.646560359395357
9,90.0,1,20.0,0.0,3,7,19.17,-0.1675,1.9765000000000001,8.343,37.0,25.93,0,0,19.0,1690.0,5.0,29.88,-0.66,-1.14,-0.105,-13.97,44.335,-93.27,0,1,1,100.0,9.59704306844129,19.17,-9.572956931558712
9,91.0,1,20.0,0.0,3,7,17.6495,-0.13835,2.5130500000000002,8.772200000000002,37.0,25.9545,0,0,19.0,1690.0,5.0,29.7205,-0.653,-1.14,-0.1,-13.2795,41.96,-83.78649999999999,0,1,1,100.0,7.926871095634939,17.6495,-9.72262890436506
9,92.0,1,20.0,0.0,3,7,14.202,-0.0704,2.111,7.861600000000001,37.0,26.13,0,0,19.0,1690.0,5.0,27.881999999999998,-0.602,-1.138,-0.09,-11.832,35.326,-63.324,0,1,1,100.0,4.033622877720996,14.202,-10.168377122279004
9,93.0,1,20.0,0.0,3,7,12.596,-0.04695,1.6565,7.11215,37.0,26.2205,0,0,19.0,1690.0,5.0,26.5165,-0.5675,-1.13,-0.09,-11.2485,31.8585,-54.2695,0,1,1,100.0,2.690036848139215,12.596,-9.905963151860785
9,94.0,1,20.0,0.0,3,7,10.998000000000001,-0.029099999999999997,1.0699999999999998,6.2987,37.0,26.399,0,0,19.0,1690.0,5.0,24.927,-0.525,-1.13,-0.09,-10.713000000000001,28.262999999999998,-45.591,0,1,1,100.0,1.6673071838306954,10.998000000000001,-9.330692816169305
9,95.0,1,20.0,0.0,3,7,9.422500000000001,-0.021750000000000002,0.39874999999999994,5.24525,37.0,26.4725,0,0,19.0,1690.0,5.0,23.255000000000003,-0.4825,-1.1225,-0.09,-10.17,24.66,-37.3475,0,1,1,100.0,1.2461832044095407,9.422500000000001,-8.176316795590461
9,96.0,1,20.0,0.0,3,7,7.886,-0.0194,0.037200000000000004,4.4532,37.0,26.556,0,0,19.0,1690.0,5.0,21.560000000000002,-0.44,-1.12,-0.096,-9.613999999999999,21.122,-29.569999999999997,0,1,1,100.0,1.111538122553797,7.886,-6.774461877446203
9,97.0,1,20.0,0.0,3,7,6.783,-0.019,-0.06685,3.9516999999999998,37.0,26.622500000000002,0,0,19.0,1690.0,5.0,20.328000000000003,-0.411,-1.12,-0.1,-9.20375,18.594749999999998,-24.15175,0,1,1,100.0,1.088619810748564,6.783,-5.6943801892514365
9,98.0,1,20.0,0.0,3,7,6.052,-0.019,-0.0609,3.5998,37.0,26.665,0,0,19.0,1690.0,5.0,19.512,-0.394,-1.12,-0.1,-8.9275,16.941499999999998,-20.6795,0,1,1,100.0,1.088619810748564,6.052,-4.963380189251436
9,99.0,1,20.0,0.0,3,7,5.207,-0.01945,-0.08675000000000001,3.18475,37.0,26.706,0,0,19.0,1690.0,5.0,18.57,-0.374,-1.1185,-0.1,-8.6055,15.043,-16.725,0,1,1,100.0,1.1144029115294511,5.207,-4.092597088470549
9,100.0,1,20.0,0.0,3,7,2.31,-0.024,-0.226,1.861,37.0,26.81,0,0,19.0,1690.0,5.0,15.38,-0.3,-1.1,-0.11,-7.5,8.79,-4.13,0,1,1,100.0,1.3750987083139758,2.31,-0.9349012916860242
10,0.0,1,20.0,0.0,0,1,-0.36,-0.027,-0.14,1.195,37.0,26.81,0,0,39.0,1690.0,5.0,12.51,-0.24,-1.09,-0.11,-6.57,3.5,5.75,0,1,1,100.0,1.5469860468532226,-0.36,1.9069860468532225
10,1.0,1,20.0,0.0,0,1,-0.82895,-0.027,-0.14,1.195,37.0,26.81,0,0,47.3,1690.0,5.0,12.00785,-0.2317,-1.08585,-0.11415,-6.4289000000000005,2.6243499999999997,7.244,0,1,1,100.0,1.5469860468532226,-0.82895,2.3759360468532225
10,2.0,1,20.0,0.0,0,1,-1.2979,-0.027,-0.14,1.195,37.0,26.81,0,0,55.6,1690.0,5.0,11.505700000000001,-0.2234,-1.0817,-0.1183,-6.287800000000001,1.7486999999999997,8.738,0,1,1,100.0,1.5469860468532226,-1.2979,2.8448860468532224
10,3.0,1,20.0,0.0,0,1,-2.9065000000000003,-0.027,-0.14,1.195,37.0,26.81,0,0,88.80000000000001,1690.0,5.0,9.7198,-0.1802,-1.0651000000000002,-0.12,-5.8324,-1.0015000000000003,13.4458,0,1,1,100.0,1.5469860468532226,-2.9065000000000003,4.453486046853223
10,4.0,1,20.0,0.0,0,1,-3.5704,-0.03468,-1.0926400000000007,0.8125999999999997,37.0,26.819599999999998,0,0,72.43999999999997,1690.0,5.0,8.9384,-0.1636,-1.06,-0.12,-5.63,-2.0004000000000004,15.3392,0,1,1,100.0,1.987017633513695,-3.5704,5.557417633513695
10,5.0,1,20.0,0.0,0,1,-4.148499999999999,-0.052349999999999994,-2.7324,-0.0,37.0,26.846,0,0,15.85,1690.0,5.0,8.224499999999999,-0.1485,-1.0585,-0.1215,-5.4165,-2.7575000000000003,17.008499999999998,0,1,1,100.0,2.999434057509859,-4.148499999999999,7.147934057509858
10,6.0,1,20.0,0.0,0,1,-4.6382,-0.05982,-0.6042799999999987,-0.0,37.0,26.879199999999997,0,0,15.02,1690.0,5.0,7.5854,-0.14020000000000002,-1.0502,-0.1298,-5.1758,-3.297,18.494200000000003,0,1,1,100.0,3.4274335304725843,-4.6382,8.065633530472585
10,7.0,1,20.0,0.0,0,1,-5.0145,-0.06729000000000002,-0.6971800000000001,-0.0,37.0,26.88,0,0,15.0,1690.0,5.0,7.027299999999999,-0.1319,-1.0419,-0.13,-4.8865,-3.6259000000000006,19.834100000000003,0,1,1,100.0,3.8554330034353104,-5.0145,8.86993300343531
10,8.0,1,20.0,0.0,0,1,-5.3176000000000005,-0.07604000000000001,-0.5543599999999999,-0.0,37.0,26.88,0,0,15.0,1690.0,5.0,6.5352,-0.12359999999999999,-1.04,-0.13,-4.5384,-3.8216,21.093600000000002,0,1,1,100.0,4.35677107417478,-5.3176000000000005,9.67437107417478
10,9.0,1,20.0,0.0,0,1,-5.5434,-0.08423,-0.44513,-0.0,37.0,26.8612,0,0,15.0,1690.0,5.0,6.1185,-0.1153,-1.04,-0.13470000000000001,-4.1309,-3.9229000000000003,22.2786,0,1,1,100.0,4.826023508386924,-5.5434,10.369423508386923
10,10.0,1,20.0,0.0,0,1,-5.696,-0.0914,-0.5111,-0.0,37.0,26.84,0,0,15.0,1690.0,5.0,5.778,-0.107,-1.037,-0.14,-3.6670000000000003,-3.951,23.391000000000002,0,1,1,100.0,5.236834247495724,-5.696,10.932834247495723
10,11.0,1,20.0,0.0,0,1,-5.7826,-0.09817000000000001,-0.6695499999999998,-0.0,37.0,26.8452,0,0,15.0,1690.0,5.0,5.5088,-0.1,-1.03,-0.14,-3.1515999999999993,-3.9209,24.4295,0,1,1,100.0,5.624726674799292,-5.7826,11.407326674799293
10,12.0,1,20.0,0.0,0,1,-5.7992,-0.10564000000000001,-0.5325999999999999,-0.0,37.0,26.8784,0,0,15.0,1690.0,5.0,5.3096,-0.1,-1.03,-0.14,-2.5871999999999993,-3.8628,25.384,0,1,1,100.0,6.052726147762018,-5.7992,11.851926147762018
10,13.0,1,20.0,0.0,0,1,-5.7447,-0.11153,-0.3758999999999999,-0.0,37.0,26.88,0,0,15.0,1690.0,5.0,5.2052,-0.09209999999999999,-1.03,-0.1479,-1.9990999999999997,-3.7889,26.2042,0,1,1,100.0,6.390198289094072,-5.7447,12.134898289094071
10,14.0,1,20.0,0.0,0,1,-5.6432,-0.11734000000000001,-0.36886000000000013,-0.0,37.0,26.8552,0,0,15.0,1690.0,5.0,5.1614,-0.09,-1.0238,-0.15,-1.3911999999999989,-3.7142,26.9246,0,1,1,100.0,6.72308676806508,-5.6432,12.36628676806508
10,15.0,1,20.0,0.0,0,1,-5.491,-0.12360000000000002,-0.45695000000000024,-0.0,37.0,26.858,0,0,15.0,1690.0,5.0,5.1815,-0.09,-1.02,-0.15,-0.776999999999999,-3.644,27.555,0,1,1,100.0,7.081758347816976,-5.491,12.572758347816976
10,16.0,1,20.0,0.0,0,1,-5.2943999999999996,-0.13024000000000002,-0.5671600000000001,-0.0,37.0,26.8688,0,0,15.0,1690.0,5.0,5.2620000000000005,-0.09280000000000001,-1.02,-0.15,-0.16559999999999916,-3.5776,28.099600000000002,0,1,1,100.0,7.462202323783843,-5.2943999999999996,12.756602323783842
10,17.0,1,20.0,0.0,0,1,-5.062599999999999,-0.13688000000000003,-0.6241299999999997,-0.0,37.0,26.84,0,0,15.0,1690.0,5.0,5.3942000000000005,-0.1,-1.0189,-0.15,0.43590000000000156,-3.5122999999999998,28.563900000000004,0,1,1,100.0,7.84264629975071,-5.062599999999999,12.905246299750708
10,18.0,1,20.0,0.0,0,1,-4.780399999999999,-0.14352,-0.5270199999999999,-0.0,37.0,26.84,0,0,15.0,1690.0,5.0,5.5768,-0.1,-1.0106,-0.15,1.0086000000000004,-3.4542,28.9706,0,1,1,100.0,8.223090275717576,-4.780399999999999,13.003490275717574
10,19.0,1,20.0,0.0,0,1,-4.4674,-0.15247000000000002,-0.6793900000000004,-0.0,37.0,26.8708,0,0,15.0,1690.0,5.0,5.813300000000001,-0.1,-1.01,-0.15,1.550500000000001,-3.4038,29.3465,0,1,1,100.0,8.735887502359663,-4.4674,13.203287502359663
10,20.0,1,20.0,0.0,0,1,-4.128,-0.16040000000000001,-0.6148,-0.0,37.0,26.855999999999998,0,0,15.0,1690.0,5.0,6.084,-0.106,-1.01,-0.15,2.06,-3.372,29.695999999999998,0,1,1,100.0,9.190243033898405,-4.128,13.318243033898405
10,21.0,1,20.0,0.0,0,1,-3.7578999999999994,-0.16701000000000002,-0.53097,-0.0,37.0,26.8572,0,0,15.0,1690.0,5.0,6.3834,-0.11430000000000001,-1.01,-0.15,2.5322000000000005,-3.3514,30.0277,0,1,1,100.0,9.56896813647988,-3.7578999999999994,13.32686813647988
10,22.0,1,20.0,0.0,0,1,-3.4262999999999995,-0.17256000000000002,-0.5352500000000001,-0.0,37.0,26.88,0,0,15.0,1690.0,5.0,6.6546,-0.12,-1.01,-0.15,2.8998000000000004,-3.34,30.3059,0,1,1,100.0,9.886959712777486,-3.4262999999999995,13.313259712777485
10,23.0,1,20.0,0.0,0,1,-3.22295,-0.17754,-0.587125,-0.0,37.0,26.88,0,0,15.0,1690.0,5.0,6.8289,-0.12,-1.01,-0.15,3.0907,-3.34,30.48435,0,1,1,100.0,10.172292694752636,-3.22295,13.395242694752636
10,24.0,1,20.0,0.0,0,1,-3.0195999999999996,-0.18252000000000002,-0.6390000000000001,-0.0,37.0,26.88,0,0,15.0,1690.0,5.0,7.0032,-0.12,-1.01,-0.15,3.2816,-3.34,30.6628,0,1,1,100.0,10.457625676727787,-3.0195999999999996,13.477225676727787
10,25.0,1,20.0,0.0,0,1,-2.0649999999999986,-0.19700000000000004,-0.7030000000000002,-0.0,37.0,26.87,0,0,15.0,1690.0,5.0,7.8050000000000015,-0.13750000000000004,-1.0,-0.15,3.9725000000000006,-3.365,31.525,0,1,1,100.0,11.28726856407722,-2.0649999999999986,13.352268564077217
10,26.0,1,20.0,0.0,0,1,-1.7646999999999997,-0.20219,-0.6363499999999999,-0.0,37.0,26.88,0,0,15.0,1690.0,5.0,8.0534,-0.14290000000000003,-1.0,-0.15,4.1556999999999995,-3.3845,31.8124,0,1,1,100.0,11.584633659750116,-1.7646999999999997,13.349333659750116
10,27.0,1,20.0,0.0,0,1,-1.5281499999999995,-0.20675500000000002,-0.5180749999999996,-0.0,37.0,26.88,0,0,15.0,1690.0,5.0,8.2443,-0.14705000000000001,-1.0,-0.15,4.29265,-3.40525,32.0448,0,1,1,100.0,11.846188893227337,-1.5281499999999995,13.374338893227337
10,28.0,1,20.0,0.0,0,1,-0.625999999999998,-0.22092000000000003,-0.52568,-0.0,37.0,26.84,0,0,9.0,1690.0,5.0,8.972800000000001,-0.16,-1.0,-0.15,4.781600000000001,-3.5756000000000006,32.998000000000005,0,1,1,100.0,12.65778361003015,-0.625999999999998,13.283783610030147
10,29.0,1,20.0,0.0,0,1,-0.12659999999999896,-0.22763000000000003,-0.5260999999999999,-0.0,37.0,26.8428,0,0,9.0,1690.0,5.0,9.3643,-0.1607,-1.0,-0.15,5.0673,-3.7368000000000006,33.586000000000006,0,1,1,100.0,13.042238290562931,-0.12659999999999896,13.168838290562931
10,30.0,1,20.0,0.0,0,1,0.38800000000000173,-0.2351,-0.4679999999999998,-0.0,37.0,26.875999999999998,0,0,9.0,1690.0,5.0,9.771,-0.16900000000000004,-1.0,-0.15,5.391000000000001,-3.936000000000001,34.25,0,1,1,100.0,13.470237763525654,0.38800000000000173,13.082237763525653
10,31.0,1,20.0,0.0,0,1,0.9172000000000009,-0.24038,-0.38945999999999986,-0.0,37.0,26.8508,0,0,9.0,1690.0,5.0,10.177700000000002,-0.1773,-1.0,-0.15,5.7804,-4.157100000000001,35.0235,0,1,1,100.0,13.772759479354729,0.9172000000000009,12.855559479354728
10,32.0,1,20.0,0.0,6,2,1.4484000000000015,-0.24480000000000002,-0.30587999999999976,-0.0,37.0,26.8624,0,0,9.0,1690.0,5.0,10.584400000000002,-0.18560000000000001,-1.0056,-0.15,6.246000000000001,-4.409200000000001,35.89600000000001,0,1,1,100.0,14.026006824802554,1.4484000000000015,12.577606824802553
10,33.0,1,20.0,0.0,6,2,1.9874000000000023,-0.24778,-0.2649,0.004680000000000042,37.0,26.8527,0,0,12.51000000000003,1690.0,5.0,10.979400000000002,-0.19390000000000004,-1.01,-0.15,6.794700000000002,-4.698200000000001,36.87140000000001,0,1,1,100.0,14.196748247751538,1.9874000000000023,12.209348247751535
10,34.0,1,20.0,0.0,6,2,2.4626000000000015,-0.24591999999999994,4.000000000559253e-05,-0.19821000000000433,37.0,26.7946,0,0,17.669999999999995,1690.0,5.0,11.3062,-0.20110000000000003,-1.0111,-0.15,7.335700000000002,-4.991600000000001,37.7687,0,1,1,100.0,14.090178097857201,2.4626000000000015,11.6275780978572
10,35.0,1,20.0,0.0,6,2,2.7365,-0.2343,1.0226,-0.9912749999999999,37.0,26.7365,0,0,16.425,1690.0,5.0,11.4805,-0.20525,-1.01525,-0.15,7.69675,-5.224,38.25425,0,1,1,100.0,13.424401139915188,2.7365,10.687901139915189
10,36.0,1,20.0,0.0,6,2,3.0104,-0.22268,2.0451600000000014,-1.784340000000001,37.0,26.6784,0,0,15.179999999999998,1690.0,5.0,11.6548,-0.2094,-1.0194,-0.15,8.0578,-5.4564,38.7398,0,1,1,100.0,12.758624181973172,3.0104,9.748224181973171
10,37.0,1,20.0,0.0,6,2,3.5328000000000017,-0.1961499999999999,2.2114599999999998,-2.278140000000001,37.0,26.6416,0,0,15.0,1690.0,5.0,11.942700000000002,-0.21710000000000002,-1.02,-0.15,8.777400000000002,-6.086400000000002,39.3922,0,1,1,100.0,11.238567151491093,3.5328000000000017,7.7057671514910915
10,38.0,1,20.0,0.0,6,2,4.798000000000003,-0.14511999999999992,1.525119999999999,-2.611439999999999,37.0,26.67,0,0,15.0,1690.0,5.0,12.4688,-0.23,-1.0408000000000002,-0.15,10.533000000000003,-8.063400000000003,40.236599999999996,0,1,1,100.0,8.314763522938502,4.798000000000003,3.5167635229384997
10,39.0,1,20.0,0.0,6,2,5.251350000000001,-0.13129999999999997,1.3869900000000002,-2.3947849999999984,37.0,26.68295,0,0,15.0,1690.0,5.0,12.60145,-0.23185000000000003,-1.0518500000000002,-0.15,11.140200000000002,-8.851250000000002,40.444,0,1,1,100.0,7.522935850067707,5.251350000000001,2.271585850067706
10,40.0,1,20.0,0.0,6,2,5.546,-0.12300000000000001,1.4094,-2.1296,37.0,26.712,0,0,15.0,1690.0,5.0,12.672,-0.236,-1.056,-0.15,11.522,-9.37,40.61,0,1,1,100.0,7.0473808801091264,5.546,1.5013808801091262
10,41.0,1,20.0,0.0,6,2,6.5819,-0.09230999999999998,1.4054000000000002,-1.4310799999999992,37.0,26.81,0,0,15.0,1690.0,5.0,12.884500000000001,-0.25,-1.0703,-0.14969999999999997,12.762200000000002,-11.148100000000001,41.55780000000001,0,1,1,100.0,5.2889734068526275,6.5819,-1.2929265931473726
10,42.0,1,20.0,0.0,6,2,7.187800000000002,-0.07321999999999995,1.5548000000000004,-0.8799599999999985,37.0,26.81,0,0,15.0,1690.0,5.0,13.009,-0.25,-1.0786,-0.1414,13.376400000000002,-12.202200000000003,42.60360000000001,0,1,1,100.0,4.195196975947885,7.187800000000002,-2.9926030240521166
10,43.0,1,20.0,0.0,6,2,7.4602,-0.06447999999999998,1.56758,-0.7145499999999997,37.0,26.8169,0,0,15.0,1690.0,5.0,13.0714,-0.2523,-1.0823,-0.14,13.6065,-12.690500000000002,43.207800000000006,0,1,1,100.0,3.694431863003547,7.4602,-3.7657681369964533
10,44.0,1,20.0,0.0,6,2,7.664933333333334,-0.05783999999999997,1.55264,-0.6273999999999995,37.0,26.8252,0,0,15.0,1690.0,5.0,13.1212,-0.25506666666666666,-1.0850666666666668,-0.14,13.758666666666667,-13.064000000000002,43.7224,0,1,1,100.0,3.3139878870366797,7.664933333333334,-4.350945446296654
10,45.0,1,20.0,0.0,6,2,7.869666666666667,-0.051199999999999954,1.5376999999999998,-0.5402499999999993,37.0,26.8335,0,0,15.0,1690.0,5.0,13.171000000000001,-0.25783333333333336,-1.0878333333333334,-0.14,13.910833333333334,-13.437500000000004,44.237,0,1,1,100.0,2.9335439110698123,7.869666666666667,-4.936122755596855
10,46.0,1,20.0,0.0,6,2,9.6786,-0.005019999999999988,0.8276199999999997,0.35604000000000036,37.0,26.84,0,0,14.0,1690.0,5.0,13.755799999999999,-0.27180000000000004,-1.1118000000000001,-0.14,14.226999999999999,-17.4752,51.178000000000004,0,1,1,100.0,0.28762481315567257,9.6786,-9.390975186844328
