cycle_index,gait_percent,segment_id,walk_dt_ms,walk_exec_ms,walk_out,walk_state,walk_tilt_forward_deg,walk_pos_rad,walk_vel_rad_s,walk_tq_nm,walk_temp_c,walk_vbus_v,walk_err_code,walk_fb_age_ms,walk_typical_stride_ms,walk_effective_step_count,walk_tilt_accel_deg,walk_acc_x,walk_acc_y,walk_acc_z,walk_gyr_x,walk_gyr_y,walk_gyr_z,cfg_gait_model,cfg_gait_mode,cfg_side_is_left,cfg_assist_pct,ankle_joint_angle_deg,leg_tilt_angle_deg,foot_tilt_angle_deg
3,0.0,1,20.0,0.0,0,1,4.83,-0.036,2.061,4.574,35.0,25.65,0,19.0,1641.0,135.0,0.93,-0.02,-1.05,-0.05,5.17,-20.4,-2.94,0,1,1,100.0,2.0626480624709633,4.83,-2.7673519375290367
3,1.0,1,20.0,0.0,0,1,4.734,-0.009600000000000001,2.3442,2.9916,35.0,25.65,0,19.0,1641.0,135.0,1.274,-0.027999999999999997,-1.05,-0.05,4.458,-18.927999999999997,-3.148,0,1,1,100.0,0.5500394833255904,4.734,-4.18396051667441
3,2.0,1,20.0,0.0,0,1,4.626,-0.003,2.415,2.596,35.0,25.65,0,31.0,1641.0,135.0,1.6600000000000001,-0.03,-1.05,-0.044000000000000004,3.668,-18.2,-4.31,0,1,1,100.0,0.17188733853924698,4.626,-4.454112661460753
3,3.0,1,20.0,0.0,0,1,4.506,-0.003,2.415,2.596,35.0,25.65,0,47.0,1641.0,135.0,2.032,-0.034,-1.05,-0.04,2.832,-18.028,-6.202,0,1,1,100.0,0.17188733853924698,4.506,-4.334112661460753
3,4.0,1,20.0,0.0,0,1,4.394,0.0050999999999999995,4.5239,2.3364000000000003,35.0,25.671,0,53.8,1641.0,135.0,2.322,-0.041,-1.049,-0.04,2.0869999999999997,-18.163999999999998,-8.238999999999999,0,1,1,100.0,-0.2922084755167198,4.394,-4.68620847551672
3,5.0,1,20.0,0.0,0,1,4.33,0.0375,12.959500000000002,1.298,35.0,25.755,0,33.0,1641.0,135.0,2.45,-0.045000000000000005,-1.045,-0.04,1.6749999999999998,-18.3,-9.475,0,1,1,100.0,-2.148591731740587,4.33,-6.478591731740587
3,6.0,1,20.0,0.0,0,1,4.266,0.06989999999999999,21.395100000000003,0.2596000000000001,35.0,25.839,0,12.2,1641.0,135.0,2.578,-0.049,-1.041,-0.04,1.263,-18.436,-10.711,0,1,1,100.0,-4.004974987964454,4.266,-8.270974987964454
3,7.0,1,20.0,0.0,0,1,4.148,0.0792,9.506600000000002,-0.0,35.0,25.86,0,7.0,1641.0,135.0,2.7239999999999998,-0.05,-1.04,-0.034,0.5839999999999999,-18.566,-12.694,0,1,1,100.0,-4.53782573743612,4.148,-8.685825737436119
3,8.0,1,20.0,0.2,0,1,3.8720000000000003,0.0798,-0.1626,-0.0,35.0,25.86,0,7.2,1641.0,135.0,2.824,-0.05,-1.04,-0.03,-0.8360000000000001,-18.34,-16.26,0,1,1,100.0,-4.572203205143969,3.8720000000000003,-8.44420320514397
3,9.0,1,20.0,0.6000000000000001,0,1,3.7960000000000003,0.0794,-0.1778,-0.0,35.0,25.86,0,7.6,1641.0,135.0,2.792,-0.05,-1.04,-0.03,-1.148,-18.119999999999997,-16.8,0,1,1,100.0,-4.549284893338736,3.7960000000000003,-8.345284893338736
3,10.0,1,20.0,1.0,0,1,3.54,0.075,-0.422,-0.0,35.0,25.86,0,8.0,1641.0,135.0,2.57,-0.05,-1.04,-0.03,-2.13,-17.05,-17.81,0,1,1,100.0,-4.297183463481174,3.54,-7.837183463481174
3,11.0,1,20.0,1.0,0,1,3.38,0.0702,-0.4092,-0.0,35.0,25.86,0,8.0,1641.0,135.0,2.362,-0.042,-1.04,-0.03,-2.5860000000000003,-16.178,-17.474,0,1,1,100.0,-4.022163721818379,3.38,-7.402163721818379
3,12.0,1,20.0,0.39999999999999997,0,1,3.22,0.0648,-0.5085999999999999,-0.0,35.0,25.86,0,7.4,1641.0,135.0,2.136,-0.04,-1.034,-0.03,-2.976,-15.21,-16.658,0,1,1,100.0,-3.7127665124477343,3.22,-6.932766512447735
3,13.0,1,20.0,0.4,0,1,3.056,0.0588,-0.5054,-0.0,35.0,25.86,0,7.4,1641.0,135.0,1.904,-0.036,-1.03,-0.03,-3.3120000000000003,-14.17,-15.406,0,1,1,100.0,-3.3689918353692403,3.056,-6.424991835369241
3,14.0,1,20.0,1.0,0,1,2.886,0.0526,-0.4036,-0.0,35.0,25.86,0,8.0,1641.0,135.0,1.676,-0.03,-1.03,-0.03,-3.598,-13.08,-13.778,0,1,1,100.0,-3.0137580023881303,2.886,-5.899758002388131
3,15.0,1,20.0,1.0,0,1,2.71,0.047,-0.426,-0.0,35.0,25.86,0,8.0,1641.0,135.0,1.46,-0.03,-1.03,-0.03,-3.83,-11.96,-11.85,0,1,1,100.0,-2.6929016371148693,2.71,-5.402901637114869
3,16.0,1,20.0,1.0,0,1,2.526,0.043000000000000003,-0.2852,-0.0,35.0,25.86,0,8.0,1641.0,135.0,1.284,-0.022,-1.03,-0.03,-3.99,-10.848,-9.674,0,1,1,100.0,-2.46371851906254,2.526,-4.98971851906254
3,17.0,1,20.0,0.39999999999999997,0,1,2.342,0.0396,-0.3286,-0.0,35.0,25.86,0,7.4,1641.0,135.0,1.1380000000000001,-0.02,-1.03,-0.03,-4.1080000000000005,-9.766,-7.432,0,1,1,100.0,-2.26891286871806,2.342,-4.61091286871806
3,18.0,1,20.0,0.0,0,1,2.204,0.0366,-0.3914,-0.0,35.0,25.86,0,7.0,1641.0,135.0,1.05,-0.02,-1.03,-0.03,-4.172,-8.974,-5.7379999999999995,0,1,1,100.0,-2.097025530178813,2.204,-4.301025530178814
3,19.0,1,20.0,0.0,0,1,2.112,0.0338,-0.4122,-0.0,35.0,25.86,0,7.0,1641.0,135.0,1.01,-0.02,-1.03,-0.03,-4.196,-8.462,-4.614,0,1,1,100.0,-1.9365973475421823,2.112,-4.048597347542183
3,20.0,1,20.0,0.0,0,1,1.79,0.025,-0.273,-0.0,35.0,25.86,0,7.0,1641.0,135.0,0.93,-0.02,-1.03,-0.03,-4.21,-6.74,-0.82,0,1,1,100.0,-1.4323944878270582,1.79,-3.2223944878270583
3,21.0,1,20.0,0.0,0,1,1.614,0.0218,-0.3106,-0.0,35.0,25.86,0,7.0,1641.0,135.0,0.938,-0.02,-1.03,-0.038,-4.17,-5.836,1.1320000000000001,0,1,1,100.0,-1.2490479933851946,1.614,-2.8630479933851944
3,22.0,1,20.0,0.0,0,1,1.4380000000000002,0.018600000000000002,-0.2546,-0.0,35.0,25.86,0,7.0,1641.0,135.0,0.982,-0.02,-1.03,-0.04,-4.112,-4.986000000000001,2.91,0,1,1,100.0,-1.0657014989433313,1.4380000000000002,-2.5037014989433315
3,23.0,1,20.0,0.0,0,1,1.274,0.0158,-0.2186,-0.0,35.0,25.86,0,7.0,1641.0,135.0,1.054,-0.02,-1.03,-0.04,-4.0360000000000005,-4.202,4.502,0,1,1,100.0,-0.9052733163067008,1.274,-2.179273316306701
3,24.0,1,20.0,0.0,0,1,1.126,0.013,-0.2708,-0.0,35.0,25.86,0,7.0,1641.0,135.0,1.1500000000000001,-0.02,-1.028,-0.04,-3.944,-3.4899999999999998,5.902,0,1,1,100.0,-0.7448451336700702,1.126,-1.8708451336700702
3,25.0,1,20.0,0.0,0,1,0.99,0.009,-0.434,-0.0,35.0,25.86,0,7.0,1641.0,135.0,1.27,-0.02,-1.02,-0.04,-3.84,-2.85,7.11,0,1,1,100.0,-0.5156620156177408,0.99,-1.505662015617741
3,26.0,1,20.0,0.0,0,1,0.862,0.002599999999999999,-0.39640000000000003,-0.0,35.0,25.892,0,7.0,1641.0,135.0,1.406,-0.027999999999999997,-1.02,-0.04,-3.7199999999999998,-2.29,8.117999999999999,0,1,1,100.0,-0.148969026734014,0.862,-1.010969026734014
3,27.0,1,20.0,0.0,0,1,0.7939999999999999,-0.0005,-0.3984,-0.0,35.0,25.887999999999998,0,7.0,1641.0,135.0,1.5,-0.03,-1.02,-0.043000000000000003,-3.645,-1.97,8.681999999999999,0,1,1,100.0,0.028647889756541162,0.7939999999999999,-0.7653521102434587
3,28.0,1,20.0,0.0,0,1,0.746,-0.0025,-0.41359999999999997,-0.0,35.0,25.872,0,7.0,1641.0,135.0,1.5799999999999998,-0.03,-1.02,-0.047,-3.585,-1.73,9.097999999999999,0,1,1,100.0,0.1432394487827058,0.746,-0.6027605512172942
3,29.0,1,20.0,0.0,0,1,0.69,-0.005,-0.4172,-0.0,35.0,25.86,0,7.0,1641.0,135.0,1.68,-0.03,-1.02,-0.05,-3.508,-1.45,9.584,0,1,1,100.0,0.2864788975654116,0.69,-0.40352110243458833
3,30.0,1,20.0,0.0,0,1,0.54,-0.016,-0.655,-0.0,35.0,25.86,0,7.0,1641.0,135.0,2.05,-0.04,-1.02,-0.05,-3.22,-0.65,11.02,0,1,1,100.0,0.9167324722093172,0.54,0.37673247220931716
3,31.0,1,20.0,0.0,0,1,0.516,-0.0248,-0.5846,-0.0,35.0,25.86,0,7.0,1641.0,135.0,2.218,-0.04,-1.02,-0.05,-3.1,-0.386,11.588000000000001,0,1,1,100.0,1.4209353319244415,0.516,0.9049353319244415
3,32.0,1,20.0,0.0,0,1,0.504,-0.030600000000000002,-0.5327999999999999,-0.0,35.0,25.86,0,7.0,1641.0,135.0,2.392,-0.04,-1.02,-0.05,-2.974,-0.16399999999999998,12.138,0,1,1,100.0,1.7532508531003193,0.504,1.2492508531003192
3,33.0,1,20.0,0.0,0,1,0.508,-0.035,-0.43,-0.0,35.0,25.86,0,7.0,1641.0,135.0,2.576,-0.044000000000000004,-1.02,-0.05,-2.85,0.020000000000000004,12.654,0,1,1,100.0,2.0053522829578814,0.508,1.4973522829578814
3,34.0,1,20.0,0.0,0,1,0.53,-0.039599999999999996,-0.3332,-0.0,35.0,25.86,0,7.0,1641.0,135.0,2.774,-0.05,-1.02,-0.05,-2.7279999999999998,0.17400000000000002,13.12,0,1,1,100.0,2.26891286871806,0.53,1.73891286871806
3,35.0,1,20.0,0.0,0,1,0.57,-0.046,-0.426,-0.0,35.0,25.86,0,7.0,1641.0,135.0,2.99,-0.05,-1.02,-0.05,-2.6,0.31,13.52,0,1,1,100.0,2.635605857601787,0.57,2.065605857601787
3,36.0,1,20.0,0.0,0,1,0.626,-0.0484,-0.07719999999999999,-0.0,35.0,25.86,0,7.0,1641.0,135.0,3.23,-0.057999999999999996,-1.02,-0.057999999999999996,-2.44,0.43799999999999994,13.744,0,1,1,100.0,2.773115728433184,0.626,2.1471157284331843
3,37.0,1,20.0,0.0,0,1,0.67,-0.0484,0.0736,-0.0,35.0,25.86,0,7.0,1641.0,135.0,3.392,-0.06,-1.017,-0.06,-2.328,0.521,13.77,0,1,1,100.0,2.773115728433184,0.67,2.1031157284331843
3,38.0,1,20.0,0.0,0,1,0.71,-0.0476,0.1584,-0.0,35.0,25.86,0,7.0,1641.0,135.0,3.528,-0.06,-1.013,-0.06,-2.232,0.589,13.73,0,1,1,100.0,2.7272791048227187,0.71,2.0172791048227188
3,39.0,1,20.0,0.0,0,1,0.766,-0.0458,0.2914,-0.0,35.0,25.86,0,7.0,1641.0,135.0,3.7039999999999997,-0.062,-1.01,-0.06,-2.106,0.672,13.572,0,1,1,100.0,2.6241467016991704,0.766,1.8581467016991704
3,40.0,1,20.0,0.0,0,1,1.02,-0.03,0.684,-0.0,35.0,25.86,0,7.0,1641.0,135.0,4.39,-0.08,-1.01,-0.06,-1.62,0.94,11.7,0,1,1,100.0,1.7188733853924696,1.02,0.6988733853924696
3,41.0,1,20.0,0.0,0,1,1.148,-0.0212,0.8144,-0.0,35.0,25.86,0,7.0,1641.0,135.0,4.678,-0.08,-1.01,-0.06,-1.428,1.044,10.02,0,1,1,100.0,1.2146705256773453,1.148,0.06667052567734544
3,42.0,1,20.0,0.0,0,1,1.294,-0.009399999999999999,0.9082,-0.0,35.0,25.86,0,7.0,1641.0,135.0,4.936,-0.086,-1.01,-0.06,-1.26,1.13,7.89,0,1,1,100.0,0.5385803274229738,1.294,-0.7554196725770262
3,43.0,1,20.0,0.0,0,1,1.4460000000000002,0.0034000000000000002,1.1138,-0.0,35.0,25.86,0,7.0,1641.0,135.0,5.148,-0.09,-1.01,-0.06,-1.1159999999999999,1.202,5.362,0,1,1,100.0,-0.1948056503444799,1.4460000000000002,-1.6408056503444801
3,44.0,1,20.0,0.0,0,1,1.6,0.016399999999999998,1.2848,-0.0,35.0,25.86,0,7.0,1641.0,135.0,5.3020000000000005,-0.092,-1.01,-0.06,-0.986,1.258,2.492,0,1,1,100.0,-0.9396507840145499,1.6,-2.53965078401455
3,45.0,1,20.0,0.0,6,2,1.76,0.03,0.98,-0.0,35.0,25.86,0,7.0,1641.0,135.0,5.39,-0.1,-1.01,-0.06,-0.85,1.29,-0.66,0,1,1,100.0,-1.7188733853924696,1.76,-3.4788733853924696
3,46.0,1,20.0,0.0,6,2,1.92,0.0356,1.4664000000000001,0.1656,35.0,25.836,0,15.8,1641.0,135.0,5.35,-0.092,-1.01,-0.06,-0.6739999999999999,1.458,-3.8840000000000003,0,1,1,100.0,-2.039729750665731,1.92,-3.9597297506657307
3,47.0,1,20.0,0.0,6,2,2.02,0.0355,1.0111,0.7505999999999999,35.0,25.808999999999997,0,18.0,1641.0,135.0,5.274,-0.09,-1.01,-0.063,-0.546,1.632,-5.779,0,1,1,100.0,-2.034000172714422,2.02,-4.054000172714423
3,48.0,1,20.0,0.0,6,2,2.1,0.0335,0.2419000000000001,1.4754,35.0,25.781,0,18.0,1641.0,135.0,5.186,-0.09,-1.01,-0.067,-0.434,1.808,-7.231,0,1,1,100.0,-1.919408613688258,2.1,-4.019408613688258
3,49.0,1,20.0,0.0,6,2,2.384,0.0266,-0.3064,2.5006,35.0,25.746000000000002,0,18.0,1641.0,135.0,4.678,-0.08,-1.012,-0.07,0.03599999999999999,2.6799999999999997,-11.67,0,1,1,100.0,-1.5240677350479896,2.384,-3.9080677350479895
3,50.0,1,20.0,0.0,6,2,2.52,0.025,-0.088,2.731,35.0,25.69,0,18.0,1641.0,135.0,4.31,-0.08,-1.02,-0.07,0.3,3.2,-13.31,0,1,1,100.0,-1.4323944878270582,2.52,-3.9523944878270583
3,51.0,1,20.0,0.8,6,2,2.64,0.0226,-0.3048,2.4454000000000002,35.0,25.746000000000002,0,18.8,1641.0,135.0,3.854,-0.07200000000000001,-1.02,-0.07,0.556,3.672,-14.102,0,1,1,100.0,-1.2948846169956605,2.64,-3.9348846169956606
3,52.0,1,20.0,1.0,6,2,2.742,0.0184,-0.4346,1.9108,35.0,25.802,0,19.0,1641.0,135.0,3.3440000000000003,-0.064,-1.02,-0.07,0.794,4.024,-14.168000000000001,0,1,1,100.0,-1.0542423430407146,2.742,-3.7962423430407144
3,53.0,1,20.0,1.0,6,2,2.826,0.0128,-0.5486,1.2120000000000002,35.0,25.842,0,19.0,1641.0,135.0,2.7960000000000003,-0.052,-1.024,-0.07,1.026,4.212,-13.472,0,1,1,100.0,-0.7333859777674537,2.826,-3.559385977767454
3,54.0,1,20.0,1.0,6,2,2.892,0.0066,-0.6138,0.3968,35.0,25.86,0,19.0,1641.0,135.0,2.224,-0.038,-1.03,-0.07,1.264,4.188,-11.982000000000001,0,1,1,100.0,-0.37815214478634335,2.892,-3.2701521447863433
3,55.0,1,20.0,1.0,6,2,2.94,0.001,-0.493,-0.524,35.0,25.86,0,19.0,1641.0,135.0,1.64,-0.03,-1.03,-0.07,1.52,3.9,-9.67,0,1,1,100.0,-0.057295779513082325,2.94,-2.9972957795130823
3,56.0,1,20.0,1.0,6,2,2.964,-0.0054,-0.5618,-1.4112,35.0,25.836,0,19.0,1641.0,135.0,1.08,-0.022,-1.038,-0.07,1.76,3.2359999999999998,-6.302,0,1,1,100.0,0.3093972093706446,2.964,-2.6546027906293554
3,57.0,1,20.0,1.0,6,2,2.97,-0.0118,-0.4728,-1.8976,35.0,25.805999999999997,0,19.0,1641.0,135.0,0.556,-0.014,-1.046,-0.07,1.916,2.26,-2.2500000000000004,0,1,1,100.0,0.6760901982543714,2.97,-2.2939098017456288
3,58.0,1,20.0,1.0,6,2,2.966,-0.015,-0.3168,-2.0254666666666665,35.0,25.79,0,19.0,1641.0,135.0,0.22399999999999998,-0.008666666666666666,-1.0513333333333335,-0.07,1.9693333333333334,1.4746666666666666,0.7166666666666667,0,1,1,100.0,0.8594366926962348,2.966,-2.1065633073037655
3,59.0,1,20.0,1.0,6,2,2.958,-0.015,-0.14640000000000003,-1.9284,35.0,25.79,0,19.0,1641.0,135.0,0.07199999999999995,-0.006,-1.054,-0.07,1.948,0.984,2.37,0,1,1,100.0,0.8594366926962348,2.958,-2.0985633073037655
3,60.0,1,20.0,1.0,6,2,2.95,-0.015,0.023999999999999966,-1.8313333333333333,35.0,25.79,0,19.0,1641.0,135.0,-0.08000000000000007,-0.003333333333333334,-1.0566666666666666,-0.07,1.9266666666666665,0.4933333333333334,4.023333333333333,0,1,1,100.0,0.8594366926962348,2.95,-2.0905633073037655
3,61.0,1,20.0,1.0,6,2,2.942,-0.015,0.19439999999999996,-1.7342666666666666,35.0,25.79,0,19.0,1641.0,135.0,-0.2320000000000001,-0.0006666666666666672,-1.0593333333333335,-0.07,1.9053333333333333,0.002666666666666734,5.676666666666667,0,1,1,100.0,0.8594366926962348,2.942,-2.0825633073037655
3,62.0,1,20.0,1.0,6,2,2.81,-0.0068000000000000005,0.1906,-0.6642,35.0,25.848,0,19.0,1641.0,135.0,-1.028,0.02,-1.092,-0.08,0.24199999999999994,-6.614,23.86,0,1,1,100.0,0.3896113006889598,2.81,-2.42038869931104
3,63.0,1,20.0,1.0,6,2,2.774,-0.0056,0.0654,-0.487,35.0,25.86,0,19.0,1641.0,135.0,-1.016,0.02,-1.104,-0.08,-0.5900000000000001,-8.99,29.1,0,1,1,100.0,0.320856365273261,2.774,-2.453143634726739
3,64.0,1,20.0,1.0,6,2,2.746,-0.005,-0.020200000000000003,-0.45599999999999996,35.0,25.86,0,19.0,1641.0,135.0,-0.9099999999999999,0.018000000000000002,-1.11,-0.08,-1.466,-11.517999999999999,33.952000000000005,0,1,1,100.0,0.2864788975654116,2.746,-2.4595211024345884
3,65.0,1,20.0,1.0,6,2,2.73,-0.005,-0.017,-0.632,35.0,25.86,0,19.0,1641.0,135.0,-0.75,0.01,-1.11,-0.08,-2.33,-14.19,38.24,0,1,1,100.0,0.2864788975654116,2.73,-2.4435211024345884
3,66.0,1,20.0,1.0,6,2,2.738,-0.0058000000000000005,-0.0634,-0.7752000000000001,35.0,25.836,0,19.0,1641.0,135.0,-0.5820000000000001,0.01,-1.118,-0.08,-3.0420000000000003,-17.029999999999998,41.455999999999996,0,1,1,100.0,0.3323155211758775,2.738,-2.4056844788241225
3,67.0,1,20.0,1.0,6,2,2.77,-0.0072,-0.111,-0.9694,35.0,25.848,0,19.0,1641.0,135.0,-0.468,0.01,-1.12,-0.08,-3.5860000000000003,-19.912,43.664,0,1,1,100.0,0.41252961249419273,2.77,-2.357470387505807
3,68.0,1,20.0,1.0,6,2,2.812,-0.0084,-0.128,-1.1261999999999999,35.0,25.854,0,19.0,1641.0,135.0,-0.432,0.01,-1.118,-0.08,-3.884,-22.046,44.684000000000005,0,1,1,100.0,0.4812845479098915,2.812,-2.330715452090108
3,69.0,1,20.0,1.0,6,2,2.856,-0.0092,-0.114,-1.2286,35.0,25.842,0,19.0,1641.0,135.0,-0.45599999999999996,0.01,-1.114,-0.08,-3.992,-23.418,44.852000000000004,0,1,1,100.0,0.5271211715203573,2.856,-2.3288788284796427
3,70.0,1,20.0,0.0,6,2,3.05,-0.013,-0.065,-1.569,35.0,25.83,0,18.0,1641.0,135.0,-0.78,0.01,-1.1,-0.07,-4.06,-27.7,43.43,0,1,1,100.0,0.7448451336700702,3.05,-2.3051548663299295
3,71.0,1,20.0,0.8,6,2,3.226,-0.0138,-0.1242,-1.6778,35.0,25.83,0,18.8,1641.0,135.0,-1.2040000000000002,0.018000000000000002,-1.092,-0.07,-3.82,-29.331999999999997,40.638,0,1,1,100.0,0.790681757280536,3.226,-2.4353182427194637
3,72.0,1,20.0,1.0,6,2,3.4259999999999997,-0.0146,-0.08320000000000001,-1.7469999999999999,35.0,25.805999999999997,0,19.0,1641.0,135.0,-1.754,0.032,-1.078,-0.064,-3.46,-30.232,36.814,0,1,1,100.0,0.836518380891002,3.4259999999999997,-2.589481619108998
3,73.0,1,20.0,1.0,6,2,3.658,-0.015,-0.066,-1.7822,35.0,25.79,0,19.0,1641.0,135.0,-2.402,0.044000000000000004,-1.062,-0.056,-2.996,-30.279999999999998,32.07,0,1,1,100.0,0.8594366926962348,3.658,-2.7985633073037652
3,74.0,1,20.0,1.0,6,2,3.92,-0.015,-0.060000000000000005,-1.7946,35.0,25.79,0,19.0,1641.0,135.2,-3.116,0.054000000000000006,-1.046,-0.05,-2.44,-29.392,26.517999999999997,0,1,1,100.0,0.8594366926962348,3.92,-3.0605633073037652
3,75.0,1,20.0,1.0,1,5,4.2,-0.015,0.084,-1.801,35.0,25.79,0,19.0,1641.0,136.0,-3.86,0.07,-1.03,-0.05,-1.8,-27.52,20.27,0,1,1,100.0,0.8594366926962348,4.2,-3.3405633073037655
3,76.0,1,20.0,0.19999999999999996,1,5,4.512,-0.015,0.0488,-1.7722,35.0,25.822,0,19.0,1641.0,136.0,-4.5,0.078,-1.014,-0.042,-1.008,-24.336,13.606,0,1,1,100.0,0.8594366926962348,4.512,-3.652563307303765
3,77.0,1,20.0,0.0,1,5,4.824,-0.0408,-2.1872000000000003,-0.7227999999999999,35.0,25.83,0,19.0,1641.0,136.0,-4.9719999999999995,0.086,-1.004,-0.04,-0.06600000000000006,-20.330000000000002,7.02,0,1,1,100.0,2.337667804133759,4.824,-2.486332195866241
3,78.0,1,20.0,0.0,1,5,5.140000000000001,-0.0776,-3.3928000000000003,0.3548,35.0,25.802,0,19.0,1641.0,136.0,-5.22,0.09,-0.992,-0.04,1.026,-15.738000000000001,0.6520000000000001,0,1,1,100.0,4.446152490215188,5.140000000000001,-0.6938475097848125
3,79.0,1,20.0,0.0,1,6,5.454,-0.1144,-2.827,1.1400000000000001,35.0,25.746000000000002,0,19.0,1641.0,136.0,-5.196000000000001,0.088,-0.978,-0.042,2.242,-10.828000000000001,-5.39,0,1,1,100.0,6.554637176296618,5.454,1.100637176296618
3,80.0,1,20.0,0.0,1,6,5.75,-0.144,-2.239,1.984,35.0,25.69,0,19.0,1641.0,136.0,-4.86,0.08,-0.97,-0.05,3.53,-5.9,-11.03,0,1,1,100.0,8.250592249883853,5.75,2.5005922498838533
3,81.0,1,20.0,0.0,1,6,6.022,-0.1672,-1.6958,2.9152,35.0,25.602,0,19.0,1641.0,136.0,-4.1000000000000005,0.07200000000000001,-0.962,-0.057999999999999996,4.778,-1.6600000000000001,-16.046,0,1,1,100.0,9.579854334587363,6.022,3.557854334587363
3,82.0,1,20.0,0.0,1,6,6.264,-0.185,-1.2954,3.6154,35.0,25.514,0,19.0,1641.0,136.0,-3.016,0.052000000000000005,-0.954,-0.066,5.846,1.734,-20.576,0,1,1,100.0,10.599719209920229,6.264,4.335719209920229
3,83.0,1,20.0,0.0,1,6,6.476,-0.1986,-0.9538,4.2814,35.0,25.43,0,19.0,1641.0,136.0,-1.644,0.028,-0.946,-0.078,6.622,4.178,-24.6,0,1,1,100.0,11.37894181129815,6.476,4.90294181129815
3,84.0,1,20.0,0.0,1,6,6.636,-0.20779999999999998,-0.6640999999999999,4.875299999999999,35.0,25.359,0,19.0,1641.0,136.0,-0.24799999999999994,0.006,-0.939,-0.091,7.024,5.572,-27.729,0,1,1,100.0,11.906062982818506,6.636,5.270062982818506
3,85.0,1,20.0,0.0,1,6,6.7,-0.211,-0.49649999999999994,5.124499999999999,35.0,25.315,0,19.0,1641.0,136.0,0.6800000000000002,-0.01,-0.9349999999999999,-0.095,7.0,5.82,-29.205,0,1,1,100.0,12.08940947726037,6.7,5.38940947726037
3,86.0,1,20.0,0.0,1,6,6.764,-0.2142,-0.32889999999999997,5.3736999999999995,35.0,25.271,0,19.0,1641.0,136.0,1.6080000000000003,-0.026000000000000002,-0.931,-0.099,6.976,6.068,-30.681,0,1,1,100.0,12.272755971702233,6.764,5.508755971702233
3,87.0,1,20.0,0.0,1,6,6.84,-0.218,-0.15560000000000002,5.757,35.0,25.218,0,19.0,1641.0,136.0,3.394,-0.054000000000000006,-0.924,-0.112,6.4959999999999996,5.716,-32.622,0,1,1,100.0,12.490479933851946,6.84,5.650479933851946
3,88.0,1,20.0,0.0,1,6,6.8839999999999995,-0.2204,-0.096,6.1238,35.0,25.150000000000002,0,19.0,1641.0,136.0,5.534,-0.08600000000000001,-0.916,-0.128,5.592,4.812,-34.278,0,1,1,100.0,12.627989804683345,6.8839999999999995,5.743989804683346
3,89.0,1,20.0,0.0,1,6,6.817,-0.2205,-0.009300000000000003,6.7385,35.0,24.999,0,19.0,1641.0,136.0,9.988999999999999,-0.163,-0.911,-0.15,2.7670000000000003,2.057,-35.284,0,1,1,100.0,12.633719382634652,6.817,5.816719382634652
3,90.0,1,20.0,0.0,1,6,6.765000000000001,-0.2185,0.26949999999999996,7.2485,35.0,24.915,0,19.0,1641.0,136.0,10.825,-0.17500000000000002,-0.915,-0.15,2.115,1.645,-34.779999999999994,0,1,1,100.0,12.519127823608487,6.765000000000001,5.754127823608487
3,91.0,1,20.0,0.0,3,7,6.713,-0.2165,0.5483,7.7585,35.0,24.831,0,19.0,1641.0,136.0,11.661,-0.187,-0.919,-0.15,1.463,1.2329999999999999,-34.275999999999996,0,1,1,100.0,12.404536264582323,6.713,5.691536264582322
3,92.0,1,20.0,0.0,3,7,6.359999999999999,-0.2014,0.7538,8.7632,35.0,24.556,0,19.0,1641.0,136.0,13.688,-0.23199999999999998,-0.942,-0.128,-0.47000000000000003,2.058,-29.136,0,1,1,100.0,11.539369993934779,6.359999999999999,5.179369993934779
3,93.0,1,20.0,0.0,3,7,6.14,-0.191,0.9594,9.178799999999999,35.0,24.432000000000002,0,19.0,1641.0,136.0,14.068,-0.244,-0.958,-0.112,-1.026,3.378,-25.695999999999998,0,1,1,100.0,10.943493886998723,6.14,4.803493886998724
3,94.0,1,20.0,0.0,3,7,5.896,-0.178,1.1360000000000001,9.4256,35.0,24.404,0,19.0,1641.0,136.0,14.177999999999999,-0.25,-0.974,-0.096,-1.4280000000000002,5.03,-21.854,0,1,1,100.0,10.198648753328653,5.896,4.302648753328653
3,95.0,1,20.0,0.0,3,7,5.64,-0.162,1.552,9.688,35.0,24.46,0,19.0,1641.0,136.0,14.09,-0.25,-0.99,-0.08,-1.74,6.79,-17.79,0,1,1,100.0,9.281916281119337,5.64,3.641916281119337
3,96.0,1,20.0,0.8,3,7,5.36,-0.14200000000000002,1.6104,8.995199999999999,35.0,24.683999999999997,0,19.8,1641.0,136.0,13.834,-0.25,-1.006,-0.064,-2.02,8.206,-13.734,0,1,1,100.0,8.13600069085769,5.36,2.77600069085769
3,97.0,1,20.0,0.39999999999999997,3,7,5.074,-0.1208,1.7768,8.114,35.0,24.95,0,19.4,1641.0,136.0,13.506,-0.244,-1.016,-0.048,-2.3539999999999996,9.196,-9.888,0,1,1,100.0,6.921330165180345,5.074,1.8473301651803453
3,98.0,1,20.0,0.0,3,7,4.862,-0.104,1.8294,7.2592,35.0,25.166,0,19.0,1641.0,136.0,13.232,-0.24,-1.024,-0.038,-2.634,9.664,-7.172,0,1,1,100.0,5.958761069360562,4.862,1.0967610693605616
3,99.0,1,20.0,0.0,3,7,4.726,-0.092,1.7322,6.4936,35.0,25.317999999999998,0,19.0,1641.0,136.0,13.036,-0.24,-1.032,-0.034,-2.8419999999999996,9.751999999999999,-5.516,0,1,1,100.0,5.271211715203574,4.726,0.5452117152035738
3,100.0,1,20.0,0.0,3,7,4.59,-0.08,1.635,5.728,35.0,25.47,0,19.0,1641.0,136.0,12.84,-0.24,-1.04,-0.03,-3.05,9.84,-3.86,0,1,1,100.0,4.583662361046586,4.59,-0.006337638953413993
4,0.0,1,20.0,0.0,0,1,4.25,-0.056,1.475,3.416,35.0,25.72,0,19.0,1641.0,136.0,12.41,-0.23,-1.05,-0.02,-3.65,9.19,-0.47,0,1,1,100.0,3.20856365273261,4.25,-1.04143634726739
4,1.0,1,20.0,0.0,0,1,4.064,-0.0446,1.202,2.261,35.6,25.72,0,19.0,1641.0,136.0,12.224,-0.23,-1.056,-0.02,-4.0040000000000004,8.5,0.946,0,1,1,100.0,2.5553917662834715,4.064,-1.5086082337165285
4,2.0,1,20.0,0.0,0,1,3.913,-0.037,1.02,1.491,36.0,25.72,0,21.0,1641.0,136.0,12.074,-0.229,-1.06,-0.02,-4.291,7.898999999999999,2.05,0,1,1,100.0,2.1199438419840457,3.913,-1.793056158015954
4,3.0,1,20.0,0.0,0,1,3.832,-0.037,1.02,1.491,36.0,25.72,0,27.0,1641.0,136.0,11.996,-0.226,-1.06,-0.02,-4.444,7.475999999999999,2.5300000000000002,0,1,1,100.0,2.1199438419840457,3.832,-1.7120561580159541
4,4.0,1,20.0,0.0,0,1,3.751,-0.037,1.02,1.491,36.0,25.72,0,33.0,1641.0,136.0,11.918,-0.223,-1.06,-0.02,-4.597,7.053,3.0100000000000002,0,1,1,100.0,2.1199438419840457,3.751,-1.6310561580159542
4,5.0,1,20.0,0.0,0,1,3.43,-0.037,1.02,1.491,36.0,25.72,0,59.0,1641.0,136.0,11.59,-0.22,-1.07,-0.02,-5.1,5.23,4.92,0,1,1,100.0,2.1199438419840457,3.43,-1.3100561580159544
4,6.0,1,20.0,0.0,0,1,3.3160000000000003,-0.043,0.18899999999999995,0.5964,36.0,25.828,0,26.599999999999998,1641.0,136.0,11.452,-0.214,-1.07,-0.026,-5.2139999999999995,4.468,5.802,0,1,1,100.0,2.4637185190625397,3.3160000000000003,-0.8522814809374606
4,7.0,1,20.0,0.0,0,1,3.21,-0.0478,-0.2954,-0.0,36.0,25.892,0,5.0,1641.0,136.0,11.315999999999999,-0.21,-1.07,-0.03,-5.302,3.742,6.676,0,1,1,100.0,2.738738260725335,3.21,-0.47126173927466475
4,8.0,1,20.0,0.0,0,1,3.12,-0.050199999999999995,-0.08660000000000001,-0.0,36.0,25.868,0,5.0,1641.0,136.0,11.184000000000001,-0.21,-1.07,-0.03,-5.338,3.088,7.534000000000001,0,1,1,100.0,2.876248131556732,3.12,-0.24375186844326802
4,9.0,1,20.0,0.0,0,1,3.05,-0.0518,-0.0402,-0.0,36.0,25.86,0,5.0,1641.0,136.0,11.056000000000001,-0.21,-1.066,-0.034,-5.338,2.5100000000000002,8.324,0,1,1,100.0,2.9679213787776644,3.05,-0.08207862122233545
4,10.0,1,20.0,0.0,0,1,2.99,-0.053,-0.075,-0.0,36.0,25.86,0,5.0,1641.0,136.0,10.93,-0.21,-1.06,-0.04,-5.32,1.97,9.08,0,1,1,100.0,3.036676314193363,2.99,0.0466763141933626
4,11.0,1,20.0,0.0,0,1,2.96,-0.053,-0.033,-0.0,36.0,25.86,0,5.0,1641.0,136.0,10.816,-0.20400000000000001,-1.06,-0.04,-5.29,1.55,9.620000000000001,0,1,1,100.0,3.036676314193363,2.96,0.07667631419336285
4,12.0,1,20.0,0.0,0,1,2.938,-0.0528,0.012,-0.0,36.0,25.86,0,5.0,1641.0,136.0,10.706,-0.2,-1.058,-0.04,-5.26,1.172,10.056000000000001,0,1,1,100.0,3.0252171582907468,2.938,0.08721715829074661
4,13.0,1,20.0,0.0,0,1,2.932,-0.052199999999999996,0.063,-0.0,36.0,25.86,0,5.0,1641.0,136.0,10.604000000000001,-0.2,-1.052,-0.04,-5.2299999999999995,0.878,10.283999999999999,0,1,1,100.0,2.990839690582897,2.932,0.05883969058289695
4,14.0,1,20.0,0.0,0,1,2.942,-0.0512,0.1552,-0.0,36.0,25.86,0,5.0,1641.0,136.0,10.502,-0.196,-1.05,-0.044000000000000004,-5.212,0.644,10.268,0,1,1,100.0,2.933543911069815,2.942,-0.008456088930185235
4,15.0,1,20.0,0.0,0,1,2.96,-0.05,0.268,-0.0,36.0,25.86,0,5.0,1641.0,136.0,10.4,-0.19,-1.05,-0.05,-5.2,0.44,10.13,0,1,1,100.0,2.8647889756541165,2.96,-0.09521102434588347
4,16.0,1,20.0,0.0,0,1,3.002,-0.0482,0.20500000000000002,-0.0,36.0,25.86,0,5.0,1641.0,136.0,10.292,-0.19,-1.044,-0.05,-5.206,0.302,9.638,0,1,1,100.0,2.7616565725305677,3.002,-0.24034342746943205
4,17.0,1,20.0,0.0,0,1,3.05,-0.046,0.19440000000000002,-0.0,36.0,25.86,0,5.0,1641.0,136.0,10.178,-0.188,-1.038,-0.052000000000000005,-5.214,0.176,9.036000000000001,0,1,1,100.0,2.635605857601787,3.05,-0.41439414239821293
4,18.0,1,20.0,0.0,0,1,3.11,-0.043000000000000003,0.28859999999999997,-0.0,36.0,25.86,0,5.0,1641.0,136.0,10.052,-0.182,-1.032,-0.057999999999999996,-5.226,0.07400000000000001,8.214,0,1,1,100.0,2.46371851906254,3.11,-0.6462814809374597
4,19.0,1,20.0,0.0,0,1,3.186,-0.039200000000000006,0.3508,-0.0,36.0,25.875999999999998,0,5.0,1641.0,136.0,9.902,-0.18,-1.03,-0.06,-5.23,-0.008,7.22,0,1,1,100.0,2.2459945569128275,3.186,-0.9400054430871725
4,20.0,1,20.0,0.0,0,1,3.27,-0.035,0.397,-0.0,36.0,25.9,0,5.0,1641.0,136.0,9.74,-0.18,-1.03,-0.06,-5.23,-0.08,6.14,0,1,1,100.0,2.0053522829578814,3.27,-1.2646477170421186
4,21.0,1,20.0,0.0,0,1,3.366,-0.032600000000000004,0.34600000000000003,-0.0,36.0,25.875999999999998,0,5.0,1641.0,136.0,9.536,-0.17400000000000002,-1.03,-0.066,-5.194,-0.134,4.91,0,1,1,100.0,1.867842412126484,3.366,-1.498157587873516
4,22.0,1,20.0,0.0,0,1,3.464,-0.03,0.3268,-0.0,36.0,25.86,0,5.0,1641.0,136.0,9.32,-0.168,-1.028,-0.07,-5.136,-0.18000000000000002,3.6559999999999997,0,1,1,100.0,1.7188733853924696,3.464,-1.7451266146075304
4,23.0,1,20.0,0.0,0,1,3.5660000000000003,-0.027,0.37120000000000003,-0.0,36.0,25.86,0,5.0,1641.0,136.0,9.08,-0.162,-1.022,-0.07,-5.034,-0.21000000000000002,2.354,0,1,1,100.0,1.5469860468532226,3.5660000000000003,-2.0190139531467777
4,24.0,1,20.0,0.0,0,1,3.626666666666667,-0.0252,0.37653333333333333,-0.0,36.0,25.865333333333332,0,5.0,1641.0,136.0,8.94,-0.15866666666666668,-1.02,-0.07133333333333335,-4.961333333333333,-0.22133333333333333,1.632,0,1,1,100.0,1.4438536437296745,3.626666666666667,-2.182813022936992
4,25.0,1,20.0,0.0,0,1,3.6666666666666665,-0.024,0.36233333333333334,-0.0,36.0,25.87333333333333,0,5.0,1641.0,136.0,8.85,-0.15666666666666668,-1.02,-0.07333333333333333,-4.903333333333333,-0.22333333333333333,1.1999999999999997,0,1,1,100.0,1.3750987083139758,3.6666666666666665,-2.2915679583526907
4,26.0,1,20.0,0.0,0,1,3.7066666666666666,-0.0228,0.34813333333333335,-0.0,36.0,25.881333333333334,0,5.0,1641.0,136.0,8.76,-0.15466666666666667,-1.02,-0.07533333333333334,-4.8453333333333335,-0.22533333333333333,0.7679999999999998,0,1,1,100.0,1.306343772898277,3.7066666666666666,-2.4003228937683896
4,27.0,1,20.0,0.0,0,1,3.7466666666666666,-0.0216,0.33393333333333336,-0.0,36.0,25.889333333333333,0,5.0,1641.0,136.0,8.67,-0.15266666666666667,-1.02,-0.07733333333333334,-4.787333333333334,-0.22733333333333333,0.33599999999999974,0,1,1,100.0,1.2375888374825783,3.7466666666666666,-2.509077829184088
4,28.0,1,20.0,0.0,0,1,3.7866666666666666,-0.0204,0.3197333333333333,-0.0,36.0,25.897333333333332,0,5.0,1641.0,136.0,8.58,-0.15066666666666667,-1.02,-0.07933333333333334,-4.729333333333333,-0.22933333333333333,-0.09600000000000031,0,1,1,100.0,1.1688339020668794,3.7866666666666666,-2.617832764599787
4,29.0,1,20.0,0.6,0,1,4.2700000000000005,-0.0062,0.2584,0.0008,36.0,25.86,0,10.8,1641.0,136.0,7.37,-0.136,-1.02,-0.09,-3.488,-0.158,-4.968,0,1,1,100.0,0.3552338329811104,4.2700000000000005,-3.91476616701889
4,30.0,1,20.0,0.0,6,2,4.39,-0.005,0.43,0.002,36.0,25.86,0,18.0,1641.0,136.0,7.07,-0.13,-1.02,-0.09,-3.11,-0.11,-6.0,0,1,1,100.0,0.2864788975654116,4.39,-4.103521102434588
4,31.0,1,20.0,0.0,6,2,4.498,-0.0038,0.2884,0.006199999999999999,36.0,25.86,0,18.0,1641.0,136.0,6.7700000000000005,-0.124,-1.02,-0.09,-2.69,-0.05,-6.852,0,1,1,100.0,0.21772396214971282,4.498,-4.280276037850287
4,32.0,1,20.0,0.0,6,2,4.602,-0.0026,0.159,0.024800000000000003,36.0,25.86,0,18.0,1641.0,136.0,6.470000000000001,-0.118,-1.02,-0.092,-2.262,0.014,-7.628,0,1,1,100.0,0.14896902673401402,4.602,-4.453030973265986
4,33.0,1,20.0,0.0,6,2,4.698,-0.0014,0.05399999999999999,0.0722,36.0,25.86,0,18.0,1641.0,136.0,6.17,-0.112,-1.02,-0.098,-1.818,0.08600000000000001,-8.252,0,1,1,100.0,0.08021409131831525,4.698,-4.617785908681685
4,34.0,1,20.0,0.0,6,2,4.79,-0.001,0.023399999999999997,0.040799999999999996,36.0,25.86,0,18.0,1641.0,136.0,5.8740000000000006,-0.106,-1.02,-0.1,-1.37,0.154,-8.700000000000001,0,1,1,100.0,0.057295779513082325,4.79,-4.732704220486918
4,35.0,1,20.0,0.0,6,2,4.88,-0.001,0.03,-0.03,36.0,25.86,0,18.0,1641.0,136.0,5.58,-0.1,-1.02,-0.1,-0.92,0.22,-9.06,0,1,1,100.0,0.057295779513082325,4.88,-4.8227042204869175
4,36.0,1,20.0,0.6000000000000001,6,2,4.952,-0.001,0.036,-0.0696,36.0,25.86,0,18.6,1641.0,136.0,5.28,-0.094,-1.02,-0.1,-0.4640000000000001,0.25,-9.108,0,1,1,100.0,0.057295779513082325,4.952,-4.894704220486918
4,37.0,1,20.0,0.9,6,2,5.009,-0.0011,0.0197,-0.1231,36.0,25.86,0,18.9,1641.0,136.0,5.027,-0.089,-1.02,-0.1,-0.085,0.266,-9.083,0,1,1,100.0,0.06302535746439056,5.009,-4.94597464253561
4,38.0,1,20.0,0.6,6,2,5.036,-0.0014,-0.04120000000000001,-0.20440000000000003,36.0,25.86,0,18.6,1641.0,136.0,4.868,-0.086,-1.02,-0.1,0.13999999999999999,0.254,-8.912,0,1,1,100.0,0.08021409131831525,5.036,-4.955785908681684
4,39.0,1,20.0,0.29999999999999993,6,2,5.063,-0.0017000000000000001,-0.10210000000000001,-0.2857,36.0,25.86,0,18.3,1641.0,136.0,4.709,-0.083,-1.02,-0.1,0.365,0.24200000000000002,-8.741,0,1,1,100.0,0.09740282517223996,5.063,-4.96559717482776
4,40.0,1,20.0,1.0,6,2,5.16,-0.004,-0.206,-0.844,36.0,25.86,0,19.0,1641.0,136.0,4.0,-0.07,-1.03,-0.11,1.36,0.03,-7.22,0,1,1,100.0,0.2291831180523293,5.16,-4.9308168819476705
4,41.0,1,20.0,1.0,6,2,5.19,-0.007600000000000001,-0.3554,-1.3246,36.0,25.842,0,19.0,1641.0,136.0,3.652,-0.064,-1.03,-0.11,1.846,-0.21000000000000002,-5.864,0,1,1,100.0,0.4354479242994257,5.19,-4.754552075700575
4,42.0,1,20.0,1.0,6,2,5.212,-0.0116,-0.4566,-1.8164,36.0,25.816,0,19.0,1641.0,136.0,3.302,-0.057999999999999996,-1.03,-0.11,2.336,-0.494,-4.31,0,1,1,100.0,0.6646310423517549,5.212,-4.547368957648245
4,43.0,1,20.0,1.0,6,2,5.218,-0.016399999999999998,-0.46140000000000003,-2.3305999999999996,36.0,25.774,0,19.0,1641.0,136.0,2.948,-0.052000000000000005,-1.03,-0.11,2.834,-0.866,-2.36,0,1,1,100.0,0.9396507840145499,5.218,-4.27834921598545
4,44.0,1,20.0,1.0,6,2,5.22,-0.0212,-0.4666,-2.8371999999999997,36.0,25.716,0,19.0,1641.0,136.0,2.5940000000000003,-0.046,-1.034,-0.11,3.3,-1.33,-0.026000000000000023,0,1,1,100.0,1.2146705256773453,5.22,-4.005329474322655
4,45.0,1,20.0,1.0,6,2,5.22,-0.026,-0.472,-3.34,36.0,25.65,0,19.0,1641.0,136.0,2.24,-0.04,-1.04,-0.11,3.75,-1.84,2.5,0,1,1,100.0,1.4896902673401404,5.22,-3.730309732659859
4,46.0,1,20.0,1.0,6,2,5.208,-0.0272,-0.21039999999999998,-3.3495999999999997,36.0,25.65,0,19.0,1641.0,136.0,1.8920000000000001,-0.034,-1.046,-0.11,4.0920000000000005,-2.446,5.542,0,1,1,100.0,1.558445202755839,5.208,-3.649554797244161
4,47.0,1,20.0,1.0,6,2,5.194,-0.027800000000000002,0.019999999999999997,-3.27,36.0,25.657999999999998,0,19.0,1641.0,136.0,1.552,-0.028,-1.052,-0.108,4.384,-3.0660000000000003,8.728,0,1,1,100.0,1.5928226704636888,5.194,-3.601177329536311
4,48.0,1,20.0,1.0,6,2,5.176,-0.0272,0.18799999999999997,-3.012,36.0,25.682000000000002,0,19.0,1641.0,136.0,1.2280000000000002,-0.022,-1.058,-0.10200000000000001,4.576,-3.7140000000000004,12.202,0,1,1,100.0,1.558445202755839,5.176,-3.617554797244161
4,49.0,1,20.0,1.0,6,2,5.154,-0.024999999999999998,0.2532,-2.6864,36.0,25.718,0,19.0,1641.0,136.0,0.9440000000000001,-0.016,-1.064,-0.1,4.64,-4.362,15.884,0,1,1,100.0,1.432394487827058,5.154,-3.7216055121729417
4,50.0,1,20.0,1.0,6,2,5.13,-0.022,0.267,-2.327,36.0,25.76,0,19.0,1641.0,136.0,0.68,-0.01,-1.07,-0.1,4.64,-5.01,19.67,0,1,1,100.0,1.260507149287811,5.13,-3.869492850712189
4,51.0,1,20.0,1.0,6,2,5.112,-0.019,0.2934,-1.9627999999999999,36.0,25.778,0,19.0,1641.0,136.0,0.512,-0.01,-1.082,-0.1,4.424,-5.6579999999999995,23.654,0,1,1,100.0,1.088619810748564,5.112,-4.023380189251436
4,52.0,1,20.0,1.0,6,2,5.098,-0.0165,0.3079,-1.6748,36.0,25.794,0,19.0,1641.0,136.0,0.388,-0.01,-1.0910000000000002,-0.1,4.207,-6.2,26.988,0,1,1,100.0,0.9453803619658584,5.098,-4.152619638034142
4,53.0,1,20.0,1.0,6,2,5.092,-0.015000000000000001,0.29860000000000003,-1.5392,36.0,25.805999999999997,0,19.0,1641.0,136.0,0.35200000000000004,-0.01,-1.094,-0.1,3.988,-6.53,29.022000000000002,0,1,1,100.0,0.8594366926962349,5.092,-4.2325633073037645
4,54.0,1,20.0,1.0,6,2,5.086,-0.0135,0.2893,-1.4036,36.0,25.817999999999998,0,19.0,1641.0,136.0,0.316,-0.01,-1.097,-0.1,3.769,-6.86,31.056,0,1,1,100.0,0.7734930234266113,5.086,-4.312506976573389
4,55.0,1,20.0,1.0,6,2,5.09,-0.009,0.312,-0.901,36.0,25.83,0,19.0,1641.0,136.0,0.35,-0.01,-1.11,-0.09,2.51,-8.35,39.84,0,1,1,100.0,0.5156620156177408,5.09,-4.574337984382259
4,56.0,1,20.0,1.0,6,2,5.108,-0.0072,0.2202,-0.739,36.0,25.83,0,19.0,1641.0,136.0,0.47600000000000003,-0.01,-1.116,-0.09,1.748,-9.112,43.734,0,1,1,100.0,0.41252961249419273,5.108,-4.695470387505807
4,57.0,1,20.0,1.0,6,2,5.128,-0.0058000000000000005,0.15460000000000002,-0.5984,36.0,25.833,0,19.0,1641.0,136.0,0.5880000000000001,-0.011,-1.121,-0.09,1.104,-9.776,46.902,0,1,1,100.0,0.3323155211758775,5.128,-4.795684478824123
4,58.0,1,20.0,1.0,6,2,5.152,-0.0052,0.1414,-0.5005999999999999,36.0,25.842,0,19.0,1641.0,136.0,0.672,-0.014,-1.124,-0.09,0.6960000000000001,-10.244,48.617999999999995,0,1,1,100.0,0.29793805346802804,5.152,-4.8540619465319725
4,59.0,1,20.0,1.0,6,2,5.176,-0.0046,0.1282,-0.4028,36.0,25.851,0,19.0,1641.0,136.0,0.756,-0.017,-1.127,-0.09,0.28800000000000014,-10.712,50.333999999999996,0,1,1,100.0,0.26356058576017866,5.176,-4.912439414239821
4,60.0,1,20.0,1.0,6,2,5.32,-0.004,-0.072,-0.542,36.0,25.86,0,19.0,1641.0,136.0,1.13,-0.02,-1.13,-0.09,-1.41,-13.3,56.31,0,1,1,100.0,0.2291831180523293,5.32,-5.090816881947671
4,61.0,1,20.0,1.0,6,2,5.434,-0.0046,-0.08099999999999999,-0.6272000000000001,36.0,25.842,0,19.0,1641.0,136.0,1.226,-0.026,-1.13,-0.09,-2.076,-14.998,57.6,0,1,1,100.0,0.26356058576017866,5.434,-5.170439414239821
4,62.0,1,20.0,1.0,6,2,5.558,-0.0054,-0.09219999999999999,-0.7522,36.0,25.83,0,19.0,1641.0,136.0,1.28,-0.028,-1.128,-0.09,-2.684,-16.828,58.372,0,1,1,100.0,0.3093972093706446,5.558,-5.248602790629355
4,63.0,1,20.0,1.0,6,2,5.702,-0.0066,-0.1078,-0.9567999999999999,36.0,25.83,0,19.0,1641.0,136.0,1.25,-0.022,-1.122,-0.09,-3.176,-18.922,58.108000000000004,0,1,1,100.0,0.37815214478634335,5.702,-5.323847855213657
4,64.0,1,20.0,1.0,6,2,5.878,-0.0082,-0.125,-1.133,36.0,25.83,0,19.0,1641.0,136.0,1.1,-0.02,-1.112,-0.09,-3.544,-21.144000000000002,56.724000000000004,0,1,1,100.0,0.4698253920072751,5.878,-5.408174607992725
4,65.0,1,20.0,1.0,6,2,6.07,-0.01,-0.143,-1.295,36.0,25.83,0,19.0,1641.0,136.0,0.89,-0.02,-1.1,-0.09,-3.85,-23.43,54.78,0,1,1,100.0,0.5729577951308232,6.07,-5.497042204869177
4,66.0,1,20.0,0.7,6,2,6.184,-0.0106,-0.0986,-1.3073,36.0,25.83,0,18.7,1641.0,136.0,0.6859999999999999,-0.014,-1.094,-0.09,-3.922,-24.516,52.992000000000004,0,1,1,100.0,0.6073352628386727,6.184,-5.576664737161328
4,67.0,1,20.0,0.39999999999999997,6,2,6.298,-0.0112,-0.0542,-1.3196,36.0,25.83,0,18.4,1641.0,136.0,0.482,-0.008,-1.088,-0.09,-3.9939999999999998,-25.602,51.204,0,1,1,100.0,0.641712730546522,6.298,-5.656287269453478
4,68.0,1,20.0,0.09999999999999995,6,2,6.412,-0.0118,-0.009799999999999998,-1.3319,36.0,25.83,0,18.1,1641.0,136.0,0.27799999999999997,-0.002,-1.082,-0.09,-4.066,-26.688000000000002,49.416,0,1,1,100.0,0.6760901982543714,6.412,-5.7359098017456285
4,69.0,1,20.0,1.0,6,2,7.076,-0.0116,0.0276,-1.2762,36.0,25.83,0,19.0,1641.0,136.4,-1.282,0.022,-1.048,-0.09,-4.126,-30.362,36.296,0,1,1,100.0,0.6646310423517549,7.076,-6.411368957648245
4,70.0,1,20.0,1.0,1,5,7.37,-0.011,0.042,-1.215,36.0,25.83,0,19.0,1641.0,137.0,-2.02,0.04,-1.03,-0.09,-4.09,-31.16,30.08,0,1,1,100.0,0.6302535746439055,7.37,-6.739746425356095
4,71.0,1,20.0,0.39999999999999997,1,5,7.6819999999999995,-0.0104,0.0318,-1.1412,36.0,25.83,0,19.0,1641.0,137.0,-2.806,0.052,-1.012,-0.084,-3.958,-30.782,23.174,0,1,1,100.0,0.5958761069360561,7.6819999999999995,-7.086123893063943
4,72.0,1,20.0,0.0,1,5,8.0,-0.0182,-0.6826,-0.7574000000000001,36.0,25.822,0,19.0,1641.0,137.0,-3.564,0.064,-0.996,-0.08,-3.7920000000000003,-29.972,16.2,0,1,1,100.0,1.0427831871380984,8.0,-6.957216812861901
4,73.0,1,20.0,0.0,1,5,8.33,-0.0428,-2.8054,0.24639999999999995,36.0,25.798,0,19.0,1641.0,137.0,-4.266,0.076,-0.984,-0.08,-3.558,-28.298,9.09,0,1,1,100.0,2.452259363159923,8.33,-5.877740636840077
4,74.0,1,20.0,0.0,1,5,8.548,-0.0602,-3.3638,0.8124,36.0,25.77,0,19.0,1641.0,137.0,-4.66,0.082,-0.974,-0.08,-3.368,-26.791999999999998,4.3919999999999995,0,1,1,100.0,3.4492059266875557,8.548,-5.098794073312444
4,75.0,1,20.0,0.0,1,5,8.709999999999999,-0.074,-3.1399999999999997,1.1595,36.0,25.740000000000002,0,19.0,1641.0,137.0,-4.9,0.085,-0.965,-0.08,-3.1999999999999997,-25.369999999999997,0.899999999999999,0,1,1,100.0,4.2398876839680915,8.709999999999999,-4.470112316031908
4,76.0,1,20.0,0.0,1,6,8.872,-0.0878,-2.9162,1.5066,36.0,25.71,0,19.0,1641.0,137.0,-5.14,0.088,-0.956,-0.08,-3.032,-23.948,-2.5920000000000014,0,1,1,100.0,5.030569441248628,8.872,-3.841430558751372
4,77.0,1,20.0,0.0,1,6,9.084,-0.10400000000000001,-2.6286,1.9498,36.0,25.668,0,19.0,1641.0,137.0,-5.343999999999999,0.09,-0.948,-0.08,-2.766,-21.79,-7.13,0,1,1,100.0,5.958761069360562,9.084,-3.125238930639438
4,78.0,1,20.0,0.0,1,6,9.396,-0.125,-2.2134,2.5852000000000004,36.0,25.602,0,19.0,1641.0,137.0,-5.476,0.09,-0.942,-0.08,-2.304,-18.16,-13.76,0,1,1,100.0,7.16197243913529,9.396,-2.2340275608647104
4,79.0,1,20.0,0.0,1,6,9.688,-0.1428,-1.8674000000000002,3.1558,36.0,25.535999999999998,0,19.0,1641.0,137.0,-5.319999999999999,0.086,-0.9359999999999999,-0.084,-1.774,-14.358,-19.998,0,1,1,100.0,8.181837314468156,9.688,-1.5061626855318444
4,80.0,1,20.0,0.0,1,6,10.38,-0.178,-1.064,4.505,36.0,25.4,0,19.0,1641.0,137.0,-3.72,0.06,-0.93,-0.1,-0.21,-4.39,-34.72,0,1,1,100.0,10.198648753328653,10.38,-0.1813512466713476
4,81.0,1,20.0,0.0,1,6,10.578000000000001,-0.1852,-0.8126,4.9778,36.0,25.298,0,19.0,1641.0,137.0,-2.472,0.041999999999999996,-0.93,-0.106,0.30599999999999994,-1.3480000000000003,-38.938,0,1,1,100.0,10.611178365822846,10.578000000000001,0.03317836582284528
4,82.0,1,20.0,0.0,1,6,10.756,-0.1916,-0.6042000000000001,5.4246,36.0,25.216,0,19.0,1641.0,137.0,-1.0979999999999999,0.019999999999999997,-0.93,-0.114,0.768,1.4500000000000002,-42.762,0,1,1,100.0,10.977871354706572,10.756,0.22187135470657182
4,83.0,1,20.0,0.0,1,6,10.894,-0.19640000000000002,-0.4818,5.8194,36.0,25.174,0,19.0,1641.0,137.0,0.5280000000000002,-0.010000000000000002,-0.93,-0.126,1.1219999999999999,3.7600000000000002,-45.798,0,1,1,100.0,11.25289109636937,10.894,0.3588910963693692
4,84.0,1,20.0,0.0,1,6,10.988,-0.2004,-0.3878,6.087,36.0,25.132,0,19.0,1641.0,137.0,2.346,-0.04,-0.93,-0.134,1.284,5.630000000000001,-47.946,0,1,1,100.0,11.482074214421697,10.988,0.49407421442169763
4,85.0,1,20.0,0.0,1,6,11.06,-0.204,-0.308,6.291,36.0,25.09,0,19.0,1641.0,137.0,4.26,-0.07,-0.93,-0.14,1.35,7.28,-49.65,0,1,1,100.0,11.688339020668794,11.06,0.6283390206687933
4,86.0,1,20.0,0.0,1,6,11.063,-0.20459999999999998,-0.2423,6.429,36.0,25.069,0,19.0,1641.0,137.0,5.292,-0.08800000000000001,-0.933,-0.14600000000000002,1.194,7.832,-49.821,0,1,1,100.0,11.722716488376642,11.063,0.6597164883766418
4,87.0,1,20.0,0.0,1,6,11.066,-0.2052,-0.1766,6.567,36.0,25.048,0,19.0,1641.0,137.0,6.324,-0.10600000000000001,-0.9359999999999999,-0.152,1.038,8.384,-49.992,0,1,1,100.0,11.757093956084493,11.066,0.691093956084492
4,88.0,1,20.0,0.0,1,6,11.069,-0.20579999999999998,-0.1109,6.705,36.0,25.027,0,19.0,1641.0,137.0,7.356,-0.12400000000000001,-0.939,-0.158,0.882,8.936,-50.163,0,1,1,100.0,11.791471423792341,11.069,0.7224714237923404
4,89.0,1,20.0,0.13333333333333333,1,6,10.942,-0.20573333333333332,0.03473333333333333,7.120666666666667,36.0,24.961333333333332,0,19.133333333333333,1641.0,137.0,11.503333333333332,-0.19666666666666666,-0.9413333333333332,-0.17,-0.13266666666666665,10.784,-47.95466666666666,0,1,1,100.0,11.787651705158137,10.942,0.8456517051581365
4,90.0,1,20.0,0.3333333333333333,1,6,10.9,-0.2053333333333333,0.09433333333333332,7.226666666666667,36.0,24.933333333333334,0,19.333333333333332,1641.0,137.0,12.093333333333334,-0.20666666666666667,-0.9433333333333332,-0.17,-0.2866666666666667,11.120000000000001,-47.166666666666664,0,1,1,100.0,11.764733393352902,10.9,0.8647333933529016
4,91.0,1,20.0,0.5333333333333333,3,7,10.858,-0.20493333333333333,0.1539333333333333,7.332666666666666,36.0,24.905333333333335,0,19.533333333333335,1641.0,137.0,12.683333333333334,-0.21666666666666667,-0.9453333333333332,-0.17,-0.44066666666666665,11.456,-46.37866666666667,0,1,1,100.0,11.74181508154767,10.858,0.8838150815476702
4,92.0,1,20.0,0.7333333333333333,3,7,10.816,-0.20453333333333332,0.2135333333333333,7.438666666666666,36.0,24.877333333333333,0,19.733333333333334,1641.0,137.0,13.273333333333333,-0.22666666666666666,-0.9473333333333332,-0.17,-0.5946666666666667,11.792,-45.590666666666664,0,1,1,100.0,11.718896769742436,10.816,0.9028967697424353
4,93.0,1,20.0,0.9333333333333333,3,7,10.774,-0.20413333333333333,0.2731333333333333,7.544666666666667,36.0,24.849333333333334,0,19.933333333333334,1641.0,137.0,13.863333333333333,-0.23666666666666666,-0.9493333333333333,-0.17,-0.7486666666666667,12.128,-44.80266666666667,0,1,1,100.0,11.695978457937205,10.774,0.9219784579372057
4,94.0,1,20.0,0.0,3,7,9.9,-0.1682,1.4692,9.9416,36.0,24.292,0,19.0,1641.0,137.0,18.09,-0.322,-0.988,-0.142,-1.386,18.41,-28.907999999999998,0,1,1,100.0,9.637150114100447,9.9,-0.2628498858995538
4,95.0,1,20.0,0.0,3,7,9.63,-0.152,1.714,10.121,36.0,24.25,0,19.0,1641.0,137.0,18.66,-0.34,-1.0,-0.13,-1.35,20.15,-24.45,0,1,1,100.0,8.708958485988513,9.63,-0.9210415140114883
4,96.0,1,20.0,0.0,3,7,9.336,-0.1406,1.1632,8.9852,36.0,24.586,0,19.0,1641.0,137.0,19.056,-0.346,-1.006,-0.11800000000000001,-1.254,21.541999999999998,-20.172,0,1,1,100.0,8.055786599539374,9.336,-1.2802134004606263
4,97.0,1,20.0,0.0,3,7,9.038,-0.12940000000000002,0.8916000000000001,7.9834,36.0,24.88,0,19.0,1641.0,137.0,19.414,-0.354,-1.014,-0.106,-1.156,22.712,-16.07,0,1,1,100.0,7.414073868992854,9.038,-1.6239261310071464
4,98.0,1,20.0,0.0,3,7,8.732000000000001,-0.11860000000000001,1.1784,7.2496,36.0,25.09,0,19.0,1641.0,137.0,19.695999999999998,-0.366,-1.026,-0.094,-1.054,23.438,-12.32,0,1,1,100.0,6.795279450251564,8.732000000000001,-1.9367205497484372
4,99.0,1,20.0,0.0,3,7,8.422,-0.1078,1.096,6.0958,36.0,25.3,0,19.0,1641.0,137.0,19.906,-0.374,-1.034,-0.082,-0.984,23.644,-9.034,0,1,1,100.0,6.176485031510275,8.422,-2.2455149684897258
4,100.0,1,20.0,0.0,3,7,8.11,-0.097,0.829,4.732,36.0,25.51,0,19.0,1641.0,137.0,20.08,-0.38,-1.04,-0.07,-0.93,23.59,-5.98,0,1,1,100.0,5.557690612768986,8.11,-2.5523093872310136
5,0.0,1,20.0,0.0,0,1,7.61,-0.086,0.727,3.183,36.0,25.72,0,19.0,1641.0,137.0,20.2,-0.38,-1.05,-0.06,-0.99,22.27,-2.11,0,1,1,100.0,4.927437038125079,7.61,-2.682562961874921
5,1.0,1,20.0,0.0,0,1,7.3386000000000005,-0.07951,0.7022200000000001,2.35051,36.0,25.72,0,19.0,1641.0,137.0,20.2,-0.3859,-1.05,-0.0541,-1.1434,20.930699999999998,-0.517,0,1,1,100.0,4.555587429085175,7.3386000000000005,-2.783012570914825
5,2.0,1,20.0,0.0,0,1,7.1242,-0.075,0.685,1.772,36.0,25.72,0,20.2,1641.0,137.0,20.191599999999998,-0.3894,-1.05,-0.0494,-1.2806,19.8146,0.6734,0,1,1,100.0,4.297183463481174,7.1242,-2.8270165365188262
5,3.0,1,20.0,0.0,0,1,7.039633333333334,-0.075,0.685,1.772,36.0,25.72,0,24.133333333333336,1641.0,137.0,20.164066666666667,-0.38743333333333335,-1.05,-0.047433333333333334,-1.3809,19.2069,0.9467666666666668,0,1,1,100.0,4.297183463481174,7.039633333333334,-2.7424498698521598
5,4.0,1,20.0,0.0,0,1,6.955066666666666,-0.075,0.685,1.772,36.0,25.72,0,28.066666666666666,1641.0,137.0,20.136533333333333,-0.3854666666666667,-1.05,-0.04546666666666667,-1.4812,18.5992,1.2201333333333335,0,1,1,100.0,4.297183463481174,6.955066666666666,-2.6578832031854924
5,5.0,1,20.0,0.0,0,1,6.8705,-0.075,0.685,1.772,36.0,25.72,0,32.0,1641.0,137.0,20.108999999999998,-0.3835,-1.05,-0.043500000000000004,-1.5815000000000001,17.9915,1.4935,0,1,1,100.0,4.297183463481174,6.8705,-2.573316536518826
5,6.0,1,20.0,0.0,0,1,6.785933333333333,-0.075,0.685,1.772,36.0,25.72,0,35.93333333333334,1641.0,137.0,20.081466666666664,-0.38153333333333334,-1.05,-0.04153333333333333,-1.6818000000000002,17.3838,1.766866666666667,0,1,1,100.0,4.297183463481174,6.785933333333333,-2.4887498698521595
5,7.0,1,20.0,0.0,0,1,6.0175,-0.034480000000000004,5.410189999999997,-0.0,36.0,25.86,0,7.0,1641.0,137.0,19.1768,-0.3674,-1.05,-0.03,-3.2497000000000003,9.499199999999998,1.8403999999999996,0,1,1,100.0,1.9755584776110786,6.0175,-4.041941522388921
5,8.0,1,20.0,0.0,0,1,5.87,-0.03212,1.9663599999999979,-0.0,36.0,25.86,0,7.0,1641.0,137.0,18.799200000000003,-0.35559999999999997,-1.05,-0.03,-3.6568000000000005,7.634799999999999,1.2975999999999996,0,1,1,100.0,1.8403404379602044,5.87,-4.029659562039796
5,9.0,1,20.0,0.0,0,1,5.7442,-0.029449999999999997,0.35246000000000005,-0.0,36.0,25.86,0,7.0,1641.0,137.0,18.3844,-0.3469,-1.05,-0.033100000000000004,-4.0360000000000005,5.9254,0.6307999999999998,0,1,1,100.0,1.6873607066602743,5.7442,-4.056839293339726
5,10.0,1,20.0,0.0,0,1,5.638,-0.0265,0.3914,-0.0,36.0,25.86,0,7.0,1641.0,137.0,17.936,-0.341,-1.05,-0.039,-4.390000000000001,4.356,-0.14800000000000002,0,1,1,100.0,1.5183381570966814,5.638,-4.1196618429033185
5,11.0,1,20.0,0.4900000000000006,0,1,5.5612,-0.022569999999999996,0.5577400000000002,-0.0,36.0,25.86,0,7.49,1641.0,137.0,17.4386,-0.3302,-1.0451000000000001,-0.04,-4.709700000000001,3.0511999999999984,-1.098300000000001,0,1,1,100.0,1.293165743610268,5.5612,-4.268034256389733
5,12.0,1,20.0,1.0,0,1,5.4944,-0.017879999999999983,0.7329600000000001,-0.0,36.0,25.86,0,8.0,1641.0,137.0,16.924799999999998,-0.31839999999999996,-1.04,-0.04,-5.016800000000001,1.8411999999999982,-2.1084000000000023,0,1,1,100.0,1.024448537693911,5.4944,-4.4699514623060885
5,13.0,1,20.0,1.0,0,1,5.4531,-0.009619999999999997,0.79904,-0.0,36.0,25.86,0,8.0,1641.0,137.0,16.3702,-0.3066,-1.04,-0.04,-5.288200000000001,0.8912999999999996,-3.2766000000000006,0,1,1,100.0,0.5511853989158517,5.4531,-4.901914601084148
5,14.0,1,20.0,1.0,0,1,5.424799999999999,-0.0018799999999999895,0.8913800000000002,-0.0,36.0,25.86,0,8.0,1641.0,137.0,15.797399999999998,-0.2948,-1.04,-0.04260000000000001,-5.538800000000001,0.05579999999999901,-4.528000000000002,0,1,1,100.0,0.10771606548459417,5.424799999999999,-5.317083934515405
5,15.0,1,20.0,1.0,0,1,5.413,0.005200000000000001,1.01705,-0.0,36.0,25.86,0,8.0,1641.0,137.0,15.201500000000001,-0.28300000000000003,-1.04,-0.0485,-5.763,-0.6345,-5.885000000000001,0,1,1,100.0,-0.2979380534680281,5.413,-5.710938053468029
5,16.0,1,20.0,1.0,0,1,5.4122,0.010960000000000006,1.06616,-0.0,36.0,25.8688,0,8.0,1641.0,137.0,14.819,-0.2756,-1.0378,-0.05,-5.886,-0.9882000000000003,-6.808600000000001,0,1,1,100.0,-0.6279617434633826,5.4122,-6.040161743463383
5,17.0,1,20.0,1.0,0,1,5.41515,0.01627000000000001,1.08917,-0.0,36.0,25.880599999999998,0,8.0,1641.0,137.0,14.50925,-0.2697,-1.03485,-0.05,-5.9745,-1.2271500000000006,-7.584450000000001,0,1,1,100.0,-0.93220233267785,5.41515,-6.34735233267785
5,18.0,1,20.0,1.0,0,1,5.4181,0.021580000000000005,1.11218,-0.0,36.0,25.8924,0,8.0,1641.0,137.0,14.1995,-0.26380000000000003,-1.0319,-0.05,-6.063000000000001,-1.4661000000000002,-8.3603,0,1,1,100.0,-1.2364429218923167,5.4181,-6.654542921892316
5,19.0,1,20.0,1.0,0,1,5.4826,0.05241000000000002,1.6439499999999998,-0.0,36.0,25.86,0,8.0,1641.0,137.0,12.6969,-0.23369999999999996,-1.03,-0.06210000000000001,-6.3715,-2.2193,-12.577700000000002,0,1,1,100.0,-3.0028718042806455,5.4826,-8.485471804280646
5,20.0,1,20.0,1.0,0,1,5.518,0.0648,1.5819999999999999,-0.0,36.0,25.86,0,8.0,1641.0,137.0,12.042,-0.216,-1.03,-0.068,-6.46,-2.414,-14.565999999999999,0,1,1,100.0,-3.7127665124477343,5.518,-9.230766512447733
5,21.0,1,20.0,1.0,0,1,5.5534,0.07446000000000001,1.0746699999999993,-0.0,36.0,25.8756,0,8.0,1641.0,137.0,11.3598,-0.2022,-1.0261,-0.07,-6.5329,-2.5463,-16.628400000000003,0,1,1,100.0,-4.266243742544111,5.5534,-9.81964374254411
5,22.0,1,20.0,1.0,0,1,5.5888,0.08272000000000002,0.33893999999999863,-0.0,36.0,25.899199999999997,0,8.0,1641.0,137.0,10.663599999999999,-0.19039999999999999,-1.0202,-0.07,-6.597799999999999,-2.6466000000000003,-18.728800000000003,0,1,1,100.0,-4.73950688132217,5.5888,-10.32830688132217
5,23.0,1,20.0,1.0,0,1,5.6299,0.083,-0.061060000000001106,-0.0,36.0,25.8772,0,8.0,1641.0,137.0,9.916099999999998,-0.17859999999999998,-1.02,-0.07570000000000002,-6.6285,-2.6728,-20.686700000000005,0,1,1,100.0,-4.755549699585833,5.6299,-10.385449699585834
5,24.0,1,20.0,1.0,0,1,5.6696,0.08187999999999998,-0.4284800000000012,-0.0,36.0,25.86,0,8.0,1641.0,137.0,9.155599999999996,-0.16519999999999993,-1.02,-0.08,-6.6436,-2.6803999999999997,-22.503600000000006,0,1,1,100.0,-4.6913784265311795,5.6696,-10.36097842653118
5,25.0,1,20.0,1.0,0,1,5.705,0.07775,-0.74,-0.0,36.0,25.86,0,8.0,1641.0,137.0,8.365,-0.14750000000000002,-1.02,-0.08,-6.62,-2.645,-23.955,0,1,1,100.0,-4.45474685714215,5.705,-10.15974685714215
5,26.0,1,20.0,1.0,0,1,5.7302,0.07192,-0.8362999999999999,-0.0,36.0,25.8736,0,8.0,1641.0,137.0,7.570999999999999,-0.13319999999999999,-1.02,-0.0834,-6.5556,-2.5892,-24.9848,0,1,1,100.0,-4.12071246258088,5.7302,-9.85091246258088
5,27.0,1,20.0,1.0,6,2,5.7479000000000005,0.06483999999999998,-0.7743499999999999,-0.0,36.0,25.897199999999998,0,8.0,1641.0,137.0,6.774499999999998,-0.12139999999999998,-1.02,-0.0893,-6.4612,-2.5183999999999997,-25.7046,0,1,1,100.0,-3.715058343628257,5.7479000000000005,-9.462958343628257
5,28.0,1,20.0,0.47999999999999826,6,2,5.7552,0.06087999999999999,-1.080560000000001,-0.08216000000000027,36.0,25.863599999999998,0,13.200000000000017,1641.0,137.0,5.993599999999998,-0.10959999999999996,-1.02,-0.09520000000000002,-6.288799999999999,-2.4163999999999994,-25.6652,0,1,1,100.0,-3.4881670567564513,5.7552,-9.243367056756451
5,29.0,1,20.0,0.0,6,2,5.7566999999999995,0.055799999999999954,-1.3520699999999997,-0.07043999999999818,36.0,25.83,0,18.0,1641.0,137.0,5.225799999999998,-0.09669999999999994,-1.02,-0.1,-6.087199999999998,-2.3024999999999993,-25.362999999999996,0,1,1,100.0,-3.197104496829991,5.7566999999999995,-8.95380449682999
5,30.0,1,20.0,0.0,6,2,5.739,0.044,-1.2559,0.3992,36.0,25.83,0,18.0,1641.0,137.0,4.506,-0.079,-1.02,-0.1,-5.804,-2.1550000000000002,-24.36,0,1,1,100.0,-2.521014298575622,5.739,-8.260014298575623
5,31.0,1,20.0,0.1450000000000003,6,2,5.71985,0.035535,-1.1595849999999999,0.6636650000000001,36.0,25.83,0,18.145,1641.0,137.0,3.9804999999999993,-0.0671,-1.02145,-0.10145000000000001,-5.5657499999999995,-2.03215,-23.415,0,1,1,100.0,-2.03600552499738,5.71985,-7.75585552499738
5,32.0,1,20.0,0.4400000000000006,6,2,5.6992,0.03051999999999999,-1.0631199999999998,0.7158800000000001,36.0,25.83,0,18.44,1641.0,137.0,3.6559999999999993,-0.06119999999999999,-1.0244,-0.1044,-5.374,-1.9347999999999999,-22.53,0,1,1,100.0,-1.748667190739272,5.6992,-7.447867190739272
5,33.0,1,20.0,0.7350000000000009,6,2,5.67855,0.025504999999999986,-0.9666549999999997,0.7680950000000001,36.0,25.83,0,18.735,1641.0,137.0,3.3314999999999992,-0.05529999999999999,-1.02735,-0.10735000000000001,-5.18225,-1.8374499999999998,-21.645,0,1,1,100.0,-1.461328856481164,5.67855,-7.139878856481165
5,34.0,1,20.0,0.060000000000002274,6,2,5.5516,0.010579999999999984,-0.6748199999999996,0.5187399999999982,36.0,25.831799999999998,0,18.060000000000002,1641.0,137.0,2.0307999999999984,-0.03879999999999995,-1.03,-0.11060000000000002,-4.141199999999998,-1.3973999999999995,-16.55319999999999,0,1,1,100.0,-0.60618934724841,5.5516,-6.15778934724841
5,35.0,1,20.0,0.65,6,2,5.468999999999999,0.00645,-0.55505,0.06385000000000002,36.0,25.8495,0,18.65,1641.0,137.0,1.5470000000000002,-0.027,-1.03,-0.11649999999999999,-3.563,-1.2734999999999999,-13.733,0,1,1,100.0,-0.369557777859381,5.468999999999999,-5.83855777785938
5,36.0,1,20.0,0.7599999999999995,6,2,5.3768,0.0025599999999999967,-0.4924,-0.41120000000000045,36.0,25.8528,0,18.759999999999998,1641.0,137.0,1.0991999999999995,-0.017599999999999994,-1.03,-0.12,-2.9439999999999995,-1.2047999999999999,-10.787999999999997,0,1,1,100.0,-0.14667719555349057,5.3768,-5.5234771955534905
5,37.0,1,20.0,0.16999999999999882,6,2,5.2706,-0.0009800000000000071,-0.51305,-0.9156500000000009,36.0,25.835099999999997,0,18.169999999999998,1641.0,137.0,0.7038999999999992,-0.011699999999999988,-1.03,-0.12,-2.2654999999999985,-1.2166,-7.660999999999994,0,1,1,100.0,0.056149863922821085,5.2706,-5.214450136077179
5,38.0,1,20.0,0.4200000000000017,6,2,5.156,-0.005360000000000014,-0.52068,-1.4079200000000014,36.0,25.8132,0,18.42,1641.0,137.0,0.35479999999999906,-0.005799999999999983,-1.0342,-0.12420000000000002,-1.5281999999999978,-1.3334000000000004,-4.38279999999999,0,1,1,100.0,0.30710537819012207,5.156,-4.848894621809878
5,39.0,1,20.0,1.0,6,2,5.0379,-0.01009000000000002,-0.5236300000000002,-1.896470000000002,36.0,25.789299999999997,0,19.0,1641.0,137.0,0.025399999999998955,0.00010000000000002275,-1.04,-0.13,-0.7659999999999968,-1.494600000000001,-1.0404999999999867,0,1,1,100.0,0.5781144152870018,5.0379,-4.459785584712998
5,40.0,1,20.0,1.0,6,2,4.914,-0.0154,-0.5608,-2.4552,36.0,25.747999999999998,0,19.0,1641.0,137.0,-0.246,0.006,-1.04,-0.13,0.05999999999999989,-1.766,2.4699999999999998,0,1,1,100.0,0.8823550045014678,4.914,-4.031644995498532
5,41.0,1,20.0,1.0,6,2,4.7863,-0.020330000000000004,-0.5263399999999998,-2.90525,36.0,25.714299999999998,0,19.0,1641.0,137.0,-0.5022000000000002,0.01,-1.0419,-0.13,0.8841000000000007,-2.0602,6.024200000000003,0,1,1,100.0,1.164823197500964,4.7863,-3.6214768024990356
5,42.0,1,20.0,1.0,6,2,4.6506,-0.024460000000000006,-0.3410799999999996,-3.1265000000000005,36.0,25.6966,0,19.0,1641.0,137.0,-0.7264000000000005,0.01,-1.0478,-0.13,1.7042000000000013,-2.4024000000000005,9.670400000000006,0,1,1,100.0,1.401454766889994,4.6506,-3.249145233110006
5,43.0,1,20.0,1.0,6,2,4.514899999999999,-0.026,-0.16728999999999952,-3.1312999999999995,36.0,25.69,0,19.0,1641.0,137.0,-0.9247000000000006,0.013700000000000018,-1.05,-0.13,2.487300000000002,-2.755700000000001,13.37950000000001,0,1,1,100.0,1.4896902673401404,4.514899999999999,-3.0252097326598584
5,44.0,1,20.0,1.0,6,2,4.3792,-0.026,-0.0003199999999993546,-3.0073999999999996,36.0,25.69,0,19.0,1641.0,137.0,-1.1076000000000008,0.019600000000000024,-1.05,-0.13,3.248400000000003,-3.1156000000000015,17.126000000000015,0,1,1,100.0,1.4896902673401404,4.3792,-2.8895097326598593
5,45.0,1,20.0,1.0,6,2,4.31225,-0.025175,0.068475,-2.882125,36.0,25.69825,0,19.0,1641.0,137.0,-1.1832500000000001,0.02275,-1.0555,-0.12725,3.5942499999999997,-3.305,19.156499999999998,0,1,1,100.0,1.4424212492418473,4.31225,-2.8698287507581526
5,46.0,1,20.0,1.0,6,2,4.2503,-0.024289999999999996,0.13013000000000036,-2.7567499999999994,36.0,25.7071,0,19.0,1641.0,137.0,-1.2511000000000005,0.025700000000000018,-1.0614000000000001,-0.12429999999999998,3.9099000000000017,-3.482000000000001,21.06220000000001,0,1,1,100.0,1.3917144843727693,4.2503,-2.858585515627231
5,47.0,1,20.0,1.0,6,2,4.18835,-0.023405,0.1917850000000001,-2.631375,36.0,25.71595,0,19.0,1641.0,137.0,-1.3189500000000003,0.028650000000000005,-1.0673000000000001,-0.12134999999999999,4.225550000000001,-3.6590000000000007,22.967900000000004,0,1,1,100.0,1.3410077195036918,4.18835,-2.847342280496308
5,48.0,1,20.0,1.0,6,2,3.9187999999999996,-0.017719999999999982,0.26808000000000043,-1.948599999999998,36.0,25.7696,0,19.0,1641.0,137.0,-1.4964000000000002,0.03,-1.0832000000000002,-0.12,5.222400000000001,-4.492400000000003,32.52800000000003,0,1,1,100.0,1.0152812129718178,3.9187999999999996,-2.903518787028182
5,49.0,1,20.0,1.0,6,2,3.8244,-0.01535999999999999,0.3235400000000002,-1.671299999999999,36.0,25.7873,0,19.0,1641.0,137.0,-1.5082,0.03,-1.0891000000000002,-0.12,5.411200000000001,-4.828700000000001,36.45150000000001,0,1,1,100.0,0.8800631733209439,3.8244,-2.9443368266790557
5,50.0,1,20.0,1.0,6,2,3.75,-0.013,0.277,-1.3719999999999999,36.0,25.81,0,19.0,1641.0,137.0,-1.4649999999999999,0.03,-1.1,-0.11499999999999999,5.355,-5.1850000000000005,40.404999999999994,0,1,1,100.0,0.7448451336700702,3.75,-3.0051548663299297
5,51.0,1,20.0,1.0,6,2,3.6845999999999997,-0.010639999999999986,0.23325000000000043,-1.0794499999999987,36.0,25.8327,0,19.0,1641.0,137.0,-1.4001999999999992,0.029099999999999966,-1.1118000000000001,-0.11,5.210599999999998,-5.552100000000003,44.36210000000002,0,1,1,100.0,0.6096270940191951,3.6845999999999997,-3.0749729059808044
5,52.0,1,20.0,1.0,6,2,3.6492,-0.008279999999999996,0.3070000000000001,-0.8463999999999995,36.0,25.8504,0,19.0,1641.0,137.0,-1.2703999999999998,0.023199999999999988,-1.1236,-0.11,4.821199999999999,-5.959200000000001,48.30920000000001,0,1,1,100.0,0.47440905436832137,3.6492,-3.1747909456316785
5,53.0,1,20.0,1.0,6,2,3.6327,-0.006189999999999986,0.3027199999999992,-0.5698799999999975,36.0,25.8519,0,19.0,1641.0,137.0,-1.1135999999999986,0.02,-1.1327,-0.11,4.315699999999995,-6.404100000000003,52.19420000000003,0,1,1,100.0,0.3546608751859788,3.6327,-3.278039124814021
5,54.0,1,20.0,1.0,6,2,3.6386000000000003,-0.004419999999999993,0.20595999999999962,-0.24183999999999875,36.0,25.8342,0,19.0,1641.0,137.0,-0.9247999999999993,0.02,-1.1385999999999998,-0.11,3.6725999999999974,-6.8938000000000015,56.005600000000015,0,1,1,100.0,0.2532473454478235,3.6386000000000003,-3.3853526545521766
5,55.0,1,20.0,1.0,6,2,3.6715,-0.00355,0.14429999999999998,-0.16535,36.0,25.83,0,19.0,1641.0,137.0,-0.718,0.0155,-1.1444999999999999,-0.1055,2.9215,-7.478,59.492999999999995,0,1,1,100.0,0.20340001727144225,3.6715,-3.4680999827285577
5,56.0,1,20.0,1.0,6,2,3.713,-0.003020000000000002,0.09519999999999985,-0.1751200000000007,36.0,25.83,0,19.0,1641.0,137.0,-0.5139999999999995,0.009799999999999982,-1.15,-0.1,2.1621999999999977,-8.078600000000003,62.735200000000006,0,1,1,100.0,0.17303325412950873,3.713,-3.5399667458704913
5,57.0,1,20.0,1.0,6,2,3.75725,-0.0033150000000000007,0.06864999999999995,-0.2948900000000002,36.0,25.83,0,19.0,1641.0,137.0,-0.4254999999999998,0.006849999999999994,-1.15,-0.1,1.7521499999999992,-8.50045,63.9919,0,1,1,100.0,0.18993550908586793,3.75725,-3.567314490914132
5,58.0,1,20.0,1.0,6,2,3.8015000000000003,-0.0036100000000000025,0.042099999999999804,-0.41466000000000086,36.0,25.83,0,19.0,1641.0,137.0,-0.3369999999999993,0.0038999999999999773,-1.15,-0.1,1.342099999999997,-8.922300000000003,65.24860000000001,0,1,1,100.0,0.20683776404222734,3.8015000000000003,-3.594662235957773
5,59.0,1,20.0,1.0,6,2,3.8457500000000002,-0.0039050000000000014,0.015549999999999906,-0.5344300000000004,36.0,25.83,0,19.0,1641.0,137.0,-0.2484999999999996,0.0009499999999999886,-1.15,-0.1,0.9320499999999985,-9.344150000000003,66.5053,0,1,1,100.0,0.22374001899858656,3.8457500000000002,-3.6220099810014137
5,60.0,1,20.0,0.6,6,2,4.218,-0.0058000000000000005,-0.159,-0.8088,36.0,25.83,0,18.6,1641.0,137.0,-0.116,0.0,-1.132,-0.1,-0.8200000000000001,-12.556000000000001,68.704,0,1,1,100.0,0.3323155211758775,4.218,-3.8856844788241225
5,61.0,1,20.0,0.009999999999996534,6,2,4.406800000000001,-0.006980000000000007,-0.1944000000000002,-1.0577800000000015,36.0,25.83,0,18.009999999999998,1641.0,137.0,-0.1691000000000003,0.0,-1.1202,-0.1,-1.3805000000000032,-14.14310000000001,68.32639999999999,0,1,1,100.0,0.399924541001315,4.406800000000001,-4.006875458998686
5,62.0,1,20.0,0.0,6,2,4.642,-0.008160000000000002,-0.1404799999999999,-1.10724,36.0,25.83,0,18.0,1641.0,137.0,-0.3904000000000004,0.005800000000000012,-1.1084,-0.09419999999999999,-1.7148000000000005,-16.055000000000003,66.24359999999999,0,1,1,100.0,0.4675335608267519,4.642,-4.174466439173249
5,63.0,1,20.0,0.17000000000000456,6,2,4.891600000000002,-0.009170000000000005,-0.0892699999999997,-1.1512200000000001,36.0,25.83,0,18.170000000000005,1641.0,137.0,-0.6690000000000033,0.011700000000000045,-1.0949,-0.09,-1.9823000000000008,-18.016700000000018,63.629899999999964,0,1,1,100.0,0.5254022981349652,4.891600000000002,-4.366197701865037
5,64.0,1,20.0,0.7600000000000023,6,2,5.174800000000001,-0.009760000000000003,-0.048559999999999846,-1.19016,36.0,25.83,0,18.76,1641.0,137.0,-1.0820000000000016,0.017600000000000022,-1.0772,-0.09,-2.0944000000000007,-20.08760000000001,59.777199999999986,0,1,1,100.0,0.5592068080476836,5.174800000000001,-4.615593191952318
5,65.0,1,20.0,1.0,6,2,5.486,-0.01,-0.02325,-1.21055,36.0,25.83,0,19.0,1641.0,137.35,-1.593,0.027,-1.0595,-0.09,-2.1015,-22.071,54.9795,0,1,1,100.0,0.5729577951308232,5.486,-4.913042204869177
5,66.0,1,20.0,1.0,1,5,5.816400000000002,-0.01,-0.008499999999999916,-1.21822,36.0,25.83,0,19.0,1641.0,137.94,-2.1712000000000033,0.03880000000000007,-1.0417999999999998,-0.09,-2.0365999999999995,-23.994400000000013,49.533799999999964,0,1,1,100.0,0.5729577951308232,5.816400000000002,-5.2434422048691784
5,67.0,1,20.0,0.4699999999999988,1,5,6.1733,-0.01,-0.0027599999999999908,-1.1813699999999998,36.0,25.83,0,19.0,1641.0,138.0,-2.850100000000001,0.05060000000000002,-1.0241,-0.08469999999999998,-1.9133999999999998,-25.2235,42.96449999999999,0,1,1,100.0,0.5729577951308232,6.1733,-5.600342204869177
5,68.0,1,20.0,0.0,1,5,6.539200000000003,-0.015160000000000196,-0.4331600000000165,-0.965479999999993,36.0,25.8252,0,19.0,1641.0,138.0,-3.541600000000005,0.06240000000000009,-1.0064,-0.08,-1.7859999999999991,-26.153200000000002,36.12039999999995,0,1,1,100.0,0.8686040174183393,6.539200000000003,-5.670595982581664
5,69.0,1,20.0,0.0,1,5,6.928600000000001,-0.0405300000000001,-2.5677800000000084,-0.06808999999999656,36.0,25.8016,0,19.0,1641.0,138.0,-4.237800000000003,0.07420000000000004,-0.9886999999999999,-0.08,-1.6679999999999997,-26.2181,28.69819999999997,0,1,1,100.0,2.3221979436652322,6.928600000000001,-4.606402056334769
5,70.0,1,20.0,0.0,1,5,7.324,-0.0674,-3.4151,0.6394,36.0,25.769,0,19.0,1641.0,138.0,-4.88,0.083,-0.971,-0.08,-1.5470000000000002,-25.665,21.135,0,1,1,100.0,3.8617355391817485,7.324,-3.4622644608182513
5,71.0,1,20.0,0.0,1,5,7.725200000000002,-0.09572000000000017,-3.0180299999999978,1.163320000000003,36.0,25.7277,0,19.0,1641.0,138.0,-5.470000000000003,0.08890000000000003,-0.9532999999999998,-0.08,-1.4230999999999991,-24.514499999999995,13.435499999999955,0,1,1,100.0,5.48435201499225,7.725200000000002,-2.2408479850077523
5,72.0,1,20.0,0.0,1,5,8.131200000000002,-0.11876000000000005,-2.539359999999999,1.8182800000000012,36.0,25.672,0,19.0,1641.0,138.0,-5.872800000000001,0.09480000000000001,-0.9404,-0.08,-1.2607999999999997,-22.447199999999995,5.764799999999986,0,1,1,100.0,6.804446774973659,8.131200000000002,-1.3267532250263425
5,73.0,1,20.0,0.0,1,5,8.535500000000003,-0.13989000000000013,-2.0599099999999972,2.497250000000005,36.0,25.6144,0,19.0,1641.0,138.0,-6.1907000000000005,0.1,-0.9293,-0.08070000000000005,-1.079899999999998,-20.07179999999998,-1.8636000000000568,0,1,1,100.0,8.015106596085094,8.535500000000003,-0.520393403914909
5,74.0,1,20.0,0.0,1,6,8.919000000000002,-0.15582000000000007,-1.7135799999999988,3.1315000000000026,36.0,25.5672,0,19.0,1641.0,138.0,-6.1966,0.1,-0.9234,-0.08660000000000002,-0.826199999999999,-16.96839999999999,-9.22680000000003,0,1,1,100.0,8.92782836372849,8.919000000000002,0.008828363728488497
5,75.0,1,20.0,0.0,1,6,9.2925,-0.16975,-1.3845,3.7049999999999996,36.0,25.505,0,19.0,1641.0,138.0,-6.0125,0.0975,-0.9175,-0.09,-0.525,-13.725,-16.3525,0,1,1,100.0,9.725958572345725,9.2925,0.4334585723457245
5,76.0,1,20.0,0.0,1,6,9.652400000000002,-0.18096000000000007,-1.0788799999999983,4.1958800000000025,36.0,25.4224,0,19.0,1641.0,138.0,-5.569999999999998,0.09159999999999996,-0.9116,-0.09,-0.15919999999999782,-10.291199999999979,-23.15520000000004,0,1,1,100.0,10.368244260687382,9.652400000000002,0.7158442606873798
5,77.0,1,20.0,0.0,1,6,9.9822,-0.18873,-0.8902199999999997,4.730620000000001,36.0,25.3398,0,19.0,1641.0,138.0,-4.787799999999998,0.07709999999999996,-0.91,-0.09860000000000002,0.26680000000000087,-6.960599999999993,-29.403200000000012,0,1,1,100.0,10.813432467504027,9.9822,0.8312324675040266
5,78.0,1,20.0,0.0,1,6,10.299000000000001,-0.19516000000000006,-0.7462599999999991,5.274480000000002,36.0,25.258000000000003,0,19.0,1641.0,138.0,-3.8639999999999897,0.05939999999999986,-0.9102000000000001,-0.11020000000000005,0.7148000000000033,-3.6853999999999782,-35.413800000000045,0,1,1,100.0,11.18184432977315,10.299000000000001,0.8828443297731479
5,79.0,1,20.0,0.0,1,6,10.5645,-0.19988000000000003,-0.6359299999999996,5.613140000000001,36.0,25.199,0,19.0,1641.0,138.0,-2.5069999999999952,0.04169999999999993,-0.9161,-0.11610000000000002,1.1514000000000015,-0.8946999999999892,-40.54090000000002,0,1,1,100.0,11.452280409074897,10.5645,0.887780409074896
5,80.0,1,20.0,0.0,1,6,10.808,-0.2038,-0.47979999999999995,5.9406,36.0,25.146,0,19.0,1641.0,138.0,-1.032,0.019999999999999997,-0.92,-0.124,1.534,1.6719999999999997,-45.288,0,1,1,100.0,11.676879864766178,10.808,0.8688798647661784
5,81.0,1,20.0,0.0,1,6,11.008600000000001,-0.20616,-0.2343599999999986,6.246220000000002,36.0,25.1047,0,19.0,1641.0,138.0,0.67310000000001,-0.009500000000000173,-0.92,-0.1358000000000001,1.8113000000000015,3.801900000000012,-49.29410000000002,0,1,1,100.0,11.812097904417053,11.008600000000001,0.8034979044170516
5,82.0,1,20.0,0.0,1,6,11.1636,-0.20776,-0.10861999999999988,6.5013000000000005,36.0,25.063399999999998,0,19.0,1641.0,138.0,2.537800000000004,-0.039000000000000055,-0.9238000000000001,-0.14760000000000004,1.9062,5.5214000000000025,-52.487,0,1,1,100.0,11.903771151637983,11.1636,0.7401711516379823
5,83.0,1,20.0,0.0,1,6,11.293400000000002,-0.20894,-0.04902999999999954,6.728450000000002,36.0,25.0221,0,19.0,1641.0,138.0,4.490700000000015,-0.06850000000000023,-0.9297000000000001,-0.1594000000000001,1.9002999999999999,7.0141000000000115,-55.23050000000002,0,1,1,100.0,11.97138017146342,11.293400000000002,0.6779801714634175
5,84.0,1,20.0,0.0,1,6,11.3168,-0.209,-0.010719999999999856,6.796186666666667,36.0,25.006933333333333,0,19.0,1641.0,138.0,5.226533333333336,-0.08120000000000005,-0.9318666666666667,-0.1618666666666667,1.8178666666666663,7.431600000000001,-55.7956,0,1,1,100.0,11.974817918234205,11.3168,0.6580179182342043
5,85.0,1,20.0,0.0,1,6,11.3345,-0.209,0.02645000000000036,6.855383333333334,36.0,24.993166666666667,0,19.0,1641.0,138.0,5.897166666666673,-0.09300000000000012,-0.9338333333333334,-0.16383333333333336,1.7313333333333325,7.791500000000004,-56.244,0,1,1,100.0,11.974817918234205,11.3345,0.6403179182342047
5,86.0,1,20.0,0.0,1,6,11.3522,-0.209,0.06362000000000022,6.914580000000001,36.0,24.9794,0,19.0,1641.0,138.0,6.567800000000004,-0.10480000000000007,-0.9358,-0.16580000000000003,1.6447999999999994,8.151400000000002,-56.6924,0,1,1,100.0,11.974817918234205,11.3522,0.6226179182342051
5,87.0,1,20.0,0.0,1,6,11.369900000000001,-0.209,0.10079000000000043,6.973776666666668,36.0,24.965633333333333,0,19.0,1641.0,138.0,7.238433333333341,-0.11660000000000015,-0.9377666666666666,-0.1677666666666667,1.5582666666666656,8.511300000000004,-57.140800000000006,0,1,1,100.0,11.974817918234205,11.369900000000001,0.6049179182342037
5,88.0,1,20.0,0.0,1,6,11.3876,-0.209,0.13796000000000028,7.032973333333334,36.0,24.951866666666668,0,19.0,1641.0,138.0,7.909066666666671,-0.1284000000000001,-0.9397333333333333,-0.16973333333333335,1.4717333333333327,8.871200000000004,-57.589200000000005,0,1,1,100.0,11.974817918234205,11.3876,0.5872179182342041
5,89.0,1,20.0,0.0,3,7,11.052299999999999,-0.19187999999999997,0.6868900000000008,8.795340000000003,36.0,24.4725,0,19.0,1641.0,138.0,14.709200000000004,-0.2604000000000001,-0.9802000000000001,-0.1649,0.27249999999999946,15.838600000000008,-51.204999999999984,0,1,1,100.0,10.993914172970234,11.052299999999999,-0.058385827029765025
5,90.0,1,20.0,0.0,3,7,10.882,-0.1844,0.8856999999999999,9.385299999999999,36.0,24.329,0,19.0,1641.0,138.0,15.785,-0.28300000000000003,-0.992,-0.157,0.143,18.166,-47.786,0,1,1,100.0,10.56534174221238,10.882,-0.31665825778761914
5,91.0,1,20.0,0.0,3,7,10.6578,-0.17496000000000003,1.078629999999999,9.876769999999997,36.0,24.2051,0,19.0,1641.0,138.0,16.5815,-0.3006999999999999,-1.0038,-0.13930000000000006,0.10170000000000017,20.73839999999999,-43.514400000000016,0,1,1,100.0,10.024469583608886,10.6578,-0.6333304163911144
5,92.0,1,20.0,0.0,3,7,10.475599999999998,-0.16705999999999993,1.1975000000000005,10.11596,36.0,24.149800000000003,0,19.0,1641.0,138.0,17.138600000000004,-0.3128000000000001,-1.0114,-0.12719999999999992,0.08,22.668200000000013,-40.12199999999997,0,1,1,100.0,9.57183292545553,10.475599999999998,-0.9037670745444686
5,93.0,1,20.0,0.0,3,7,10.339899999999998,-0.16086499999999995,1.2343750000000002,10.07584,36.0,24.170450000000002,0,19.0,1641.0,138.0,17.43065,-0.31870000000000004,-1.01435,-0.12129999999999996,0.08,23.88655000000001,-37.70299999999998,0,1,1,100.0,9.216885571371986,10.339899999999998,-1.1230144286280126
5,94.0,1,20.0,0.0,3,7,10.2042,-0.15466999999999997,1.27125,10.03572,36.0,24.191100000000002,0,19.0,1641.0,138.0,17.7227,-0.32460000000000006,-1.0173,-0.11539999999999997,0.08,25.104900000000004,-35.28399999999999,0,1,1,100.0,8.861938217288442,10.2042,-1.3422617827115584
5,95.0,1,20.0,0.0,3,7,10.054,-0.1482,1.2792,9.93215,36.0,24.231,0,19.0,1641.0,138.0,18.026999999999997,-0.331,-1.021,-0.109,0.0805,26.372999999999998,-32.653,0,1,1,100.0,8.4912345238388,10.054,-1.5627654761612
5,96.0,1,20.0,0.0,3,7,9.747199999999996,-0.13875999999999986,0.9747599999999953,9.143319999999989,36.0,24.478800000000003,0,19.0,1641.0,138.0,18.463600000000007,-0.34280000000000016,-1.0328000000000002,-0.09719999999999981,0.08640000000000009,28.17840000000003,-27.732399999999924,0,1,1,100.0,7.950362365235295,9.747199999999996,-1.7968376347647013
5,97.0,1,20.0,0.0,3,7,8.923299999999998,-0.11773499999999995,0.785064999999999,7.096164999999993,36.0,25.09025,0,19.0,1641.0,138.0,19.3091,-0.37115000000000004,-1.05115,-0.06884999999999997,0.09769999999999994,30.7124,-16.101899999999976,0,1,1,100.0,6.745718600972745,8.923299999999998,-2.177581399027253
5,98.0,1,20.0,0.0,3,7,8.752199999999998,-0.11448999999999997,0.7057099999999994,6.527109999999995,36.0,25.1935,0,19.0,1641.0,138.0,19.4094,-0.37410000000000004,-1.0541,-0.06589999999999999,0.09179999999999996,30.641599999999997,-14.054599999999985,0,1,1,100.0,6.5597937964527935,8.752199999999998,-2.192406203547205
5,99.0,1,20.0,0.0,3,7,8.5811,-0.11124499999999998,0.6263549999999997,5.958054999999998,36.0,25.29675,0,19.0,1641.0,138.0,19.5097,-0.37705,-1.05705,-0.06294999999999999,0.08589999999999998,30.5708,-12.007299999999992,0,1,1,100.0,6.373868991932842,8.5811,-2.207231008067157
5,100.0,1,20.0,0.0,3,7,7.83,-0.102,0.234,3.543,37.0,25.65,0,19.0,1641.0,138.0,19.74,-0.38,-1.06,-0.05,-0.04,28.79,-4.08,0,1,1,100.0,5.844169510334397,7.83,-1.9858304896656032
6,0.0,1,20.0,0.0,0,1,7.28,-0.098,0.198,2.186,37.0,25.76,0,19.0,1641.0,138.0,19.68,-0.38,-1.07,-0.04,-0.29,25.96,0.7,0,1,1,100.0,5.614986392282068,7.28,-1.665013607717932
6,1.0,1,20.0,0.0,0,1,7.1240000000000006,-0.09620000000000001,0.2628,1.8752,37.0,25.76,0,19.0,1641.0,138.0,19.626,-0.38,-1.07,-0.04,-0.419,24.838,1.7319999999999998,0,1,1,100.0,5.51185398915852,7.1240000000000006,-1.6121460108414807
6,2.0,1,20.0,0.0,0,1,6.968,-0.0944,0.3276,1.5644,37.0,25.76,0,19.0,1641.0,138.0,19.572,-0.38,-1.07,-0.04,-0.5479999999999999,23.716,2.764,0,1,1,100.0,5.4087215860349716,6.968,-1.5592784139650284
6,3.0,1,20.0,0.0,0,1,6.811999999999999,-0.0926,0.39239999999999997,1.2536,37.0,25.76,0,19.0,1641.0,138.0,19.518,-0.38,-1.07,-0.04,-0.6769999999999999,22.593999999999998,3.796,0,1,1,100.0,5.305589182911423,6.811999999999999,-1.5064108170885762
6,4.0,1,20.0,0.0,0,1,6.576,-0.092,0.414,1.15,37.0,25.76,0,27.0,1641.0,138.0,19.376,-0.376,-1.07,-0.04,-0.944,20.524,4.9799999999999995,0,1,1,100.0,5.271211715203574,6.576,-1.3047882847964258
6,5.0,1,20.0,0.0,0,1,5.9,-0.092,0.414,1.15,37.0,25.76,0,59.0,1641.0,138.0,18.76,-0.36,-1.06,-0.04,-1.88,13.74,7.27,0,1,1,100.0,5.271211715203574,5.9,-0.6287882847964266
6,6.0,1,20.0,0.0,0,1,5.702,-0.0752,4.798800000000001,0.45999999999999996,37.0,25.862000000000002,0,27.799999999999997,1641.0,138.0,18.442,-0.354,-1.06,-0.04,-2.222,11.382,7.354,0,1,1,100.0,4.308642619383791,5.702,-1.3933573806162087
6,7.0,1,20.0,0.0,0,1,5.5200000000000005,-0.063,6.253,-0.0,37.0,25.916,0,7.0,1641.0,138.0,18.11,-0.346,-1.058,-0.04,-2.5500000000000003,9.134,7.282,0,1,1,100.0,3.6096341093241864,5.5200000000000005,-1.910365890675814
6,8.0,1,20.0,0.0,0,1,5.37,-0.06,1.846,-0.0,37.0,25.874,0,7.0,1641.0,138.0,17.75,-0.334,-1.052,-0.04,-2.85,7.106,6.898,0,1,1,100.0,3.437746770784939,5.37,-1.932253229215061
6,9.0,1,20.0,0.0,0,1,5.248,-0.0566,0.393,-0.0,37.0,25.86,0,7.0,1641.0,138.0,17.362,-0.326,-1.05,-0.04,-3.122,5.33,6.25,0,1,1,100.0,3.2429411204404595,5.248,-2.0050588795595408
6,10.0,1,20.0,0.0,0,1,5.14,-0.053,0.417,-0.0,37.0,25.86,0,7.0,1641.0,138.0,16.96,-0.32,-1.05,-0.04,-3.38,3.68,5.47,0,1,1,100.0,3.036676314193363,5.14,-2.103323685806637
6,11.0,1,20.0,0.0,0,1,5.107,-0.0506,0.4926,-0.0,37.0,25.86,0,7.0,1641.0,138.0,16.735,-0.314,-1.0470000000000002,-0.04,-3.491,3.044,4.903,0,1,1,100.0,2.8991664433619655,5.107,-2.2078335566380347
6,12.0,1,20.0,0.0,0,1,5.074,-0.0482,0.5682,-0.0,37.0,25.86,0,7.0,1641.0,138.0,16.51,-0.308,-1.044,-0.04,-3.602,2.408,4.336,0,1,1,100.0,2.7616565725305677,5.074,-2.312343427469432
6,13.0,1,20.0,0.0,0,1,5.041,-0.0458,0.6438,-0.0,37.0,25.86,0,7.0,1641.0,138.0,16.285,-0.302,-1.041,-0.04,-3.713,1.772,3.769,0,1,1,100.0,2.6241467016991704,5.041,-2.41685329830083
6,14.0,1,20.0,0.4,0,1,4.984,-0.0218,1.3074,-0.0,37.0,25.86,0,7.4,1641.0,138.0,15.07,-0.282,-1.03,-0.05,-4.164,-0.37600000000000006,-0.09999999999999987,0,1,1,100.0,1.2490479933851946,4.984,-3.7349520066148054
6,15.0,1,20.0,1.0,0,1,4.99,-0.011,1.662,-0.0,37.0,25.86,0,8.0,1641.0,138.0,14.56,-0.27,-1.03,-0.05,-4.32,-1.0,-1.93,0,1,1,100.0,0.6302535746439055,4.99,-4.359746425356095
6,16.0,1,20.0,1.0,0,1,5.0200000000000005,0.0028000000000000004,1.6956,-0.0,37.0,25.86,0,8.0,1641.0,138.0,14.026,-0.258,-1.03,-0.05,-4.446000000000001,-1.408,-4.102,0,1,1,100.0,-0.16042818263663053,5.0200000000000005,-5.180428182636631
6,17.0,1,20.0,1.0,0,1,5.058,0.0178,1.7422,-0.0,37.0,25.86,0,8.0,1641.0,138.0,13.48,-0.246,-1.028,-0.052000000000000005,-4.5600000000000005,-1.772,-6.39,0,1,1,100.0,-1.0198648753328654,5.058,-6.077864875332866
6,18.0,1,20.0,1.0,0,1,5.112,0.0352,1.8148,-0.0,37.0,25.86,0,8.0,1641.0,138.0,12.91,-0.234,-1.022,-0.057999999999999996,-4.6499999999999995,-2.048,-8.91,0,1,1,100.0,-2.016811438860498,5.112,-7.128811438860498
6,19.0,1,20.0,1.0,0,1,5.174,0.0502,1.5434,-0.0,37.0,25.86,0,8.0,1641.0,138.0,12.308,-0.222,-1.02,-0.06,-4.736,-2.2760000000000002,-11.586,0,1,1,100.0,-2.8762481315567325,5.174,-8.050248131556733
6,20.0,1,20.0,1.0,0,1,5.24,0.064,1.1,-0.0,37.0,25.86,0,8.0,1641.0,138.0,11.69,-0.21,-1.02,-0.06,-4.82,-2.48,-14.34,0,1,1,100.0,-3.666929888837269,5.24,-8.906929888837269
6,21.0,1,20.0,1.0,0,1,5.312,0.0688,0.32539999999999997,-0.0,37.0,25.86,0,8.0,1641.0,138.0,10.994,-0.198,-1.02,-0.06,-4.88,-2.618,-16.986,0,1,1,100.0,-3.941949630500064,5.312,-9.253949630500063
6,22.0,1,20.0,1.0,0,1,5.384,0.07039999999999999,-0.3438,-0.0,37.0,25.86,0,8.0,1641.0,138.0,10.272,-0.186,-1.02,-0.062,-4.922,-2.734,-19.452,0,1,1,100.0,-4.033622877720995,5.384,-9.417622877720994
6,23.0,1,20.0,1.0,0,1,5.456,0.0656,-0.8022,-0.0,37.0,25.86,0,8.0,1641.0,138.0,9.498,-0.17400000000000002,-1.02,-0.068,-4.928,-2.806,-21.558,0,1,1,100.0,-3.7586031360582006,5.456,-9.214603136058201
6,24.0,1,20.0,1.0,0,1,5.502000000000001,0.060200000000000004,-0.9836,-0.0,37.0,25.86,0,8.0,1641.0,138.0,8.964,-0.164,-1.02,-0.07,-4.906,-2.828,-22.658,0,1,1,100.0,-3.449205926687556,5.502000000000001,-8.951205926687557
6,25.0,1,20.0,1.0,0,1,5.535,0.0545,-1.0265,-0.0,37.0,25.86,0,8.0,1641.0,138.0,8.55,-0.155,-1.02,-0.07,-4.869999999999999,-2.825,-23.255000000000003,0,1,1,100.0,-3.1226199834629864,5.535,-8.657619983462986
6,26.0,1,20.0,1.0,0,1,5.568,0.048799999999999996,-1.0694000000000001,-0.0,37.0,25.86,0,8.0,1641.0,138.0,8.136000000000001,-0.14600000000000002,-1.02,-0.07,-4.834,-2.822,-23.852,0,1,1,100.0,-2.796034040238417,5.568,-8.364034040238417
6,27.0,1,20.0,0.8,0,1,5.682,0.0262,-1.3746,-0.034999999999999996,37.0,25.854,0,10.0,1641.0,138.0,6.192,-0.11399999999999999,-1.02,-0.08,-4.42,-2.6340000000000003,-24.136,0,1,1,100.0,-1.501149423242757,5.682,-7.1831494232427575
6,28.0,1,20.0,0.19999999999999996,6,2,5.718,0.0208,-1.5173999999999999,-0.13999999999999999,37.0,25.836,0,16.0,1641.0,138.0,5.388,-0.096,-1.02,-0.08,-4.119999999999999,-2.436,-23.194,0,1,1,100.0,-1.1917522138721122,5.718,-6.909752213872112
6,29.0,1,20.0,0.0,6,2,5.738,0.015,-1.2610000000000001,-0.3346,37.0,25.842,0,18.0,1641.0,138.0,4.628,-0.082,-1.024,-0.084,-3.7359999999999998,-2.198,-21.632,0,1,1,100.0,-0.8594366926962348,5.738,-6.597436692696236
6,30.0,1,20.0,0.0,6,2,5.75,0.009,-0.805,-0.574,37.0,25.86,0,18.0,1641.0,138.0,3.89,-0.07,-1.03,-0.09,-3.31,-1.94,-19.76,0,1,1,100.0,-0.5156620156177408,5.75,-6.265662015617741
6,31.0,1,20.0,0.0,6,2,5.732,0.0024000000000000002,-0.7642,-1.1782,37.0,25.842,0,18.0,1641.0,138.0,3.23,-0.058,-1.03,-0.09,-2.752,-1.712,-17.114,0,1,1,100.0,-0.1375098708313976,5.732,-5.869509870831398
6,32.0,1,20.0,0.0,6,2,5.708,-0.0042,-0.7343999999999999,-1.7431999999999999,37.0,25.816,0,18.0,1641.0,138.0,2.594,-0.046,-1.03,-0.092,-2.1479999999999997,-1.52,-14.267999999999999,0,1,1,100.0,0.24064227395494575,5.708,-5.467357726045054
6,33.0,1,20.0,0.0,6,2,5.672,-0.010799999999999999,-0.7266,-2.2298,37.0,25.774,0,18.0,1641.0,138.0,2.0060000000000002,-0.034,-1.03,-0.098,-1.452,-1.4000000000000001,-11.021999999999998,0,1,1,100.0,0.618794418741289,5.672,-5.053205581258711
6,34.0,1,20.0,0.4,6,2,5.62,-0.017,-0.7111999999999999,-2.7727999999999997,37.0,25.716,0,18.4,1641.0,138.0,1.4540000000000002,-0.026,-1.034,-0.1,-0.692,-1.3840000000000001,-7.444,0,1,1,100.0,0.9740282517223996,5.62,-4.6459717482776
6,35.0,1,20.0,1.0,6,2,5.56,-0.023,-0.692,-3.344,37.0,25.65,0,19.0,1641.0,138.0,0.92,-0.02,-1.04,-0.1,0.1,-1.42,-3.7,0,1,1,100.0,1.3178029288008934,5.56,-4.242197071199106
6,36.0,1,20.0,1.0,6,2,5.524,-0.0248,-0.5624,-3.4301,37.0,25.641,0,19.0,1641.0,138.0,0.683,-0.014,-1.0430000000000001,-0.1,0.49899999999999994,-1.519,-1.6240000000000003,0,1,1,100.0,1.4209353319244415,5.524,-4.103064668075558
6,37.0,1,20.0,1.0,6,2,5.488,-0.026600000000000002,-0.43279999999999996,-3.5162,37.0,25.632,0,19.0,1641.0,138.0,0.44600000000000006,-0.008,-1.046,-0.1,0.8979999999999999,-1.6179999999999999,0.4519999999999995,0,1,1,100.0,1.5240677350479899,5.488,-3.9639322649520103
6,38.0,1,20.0,1.0,6,2,5.452,-0.0284,-0.30319999999999997,-3.6022999999999996,37.0,25.623,0,19.0,1641.0,138.0,0.20900000000000002,-0.002,-1.049,-0.1,1.2969999999999997,-1.717,2.5279999999999996,0,1,1,100.0,1.627200138171538,5.452,-3.824799861828462
6,39.0,1,20.0,1.0,6,2,5.222,-0.027,0.23,-3.059,37.0,25.648,0,19.0,1641.0,138.0,-0.784,0.014,-1.068,-0.1,3.042,-2.5100000000000002,13.716,0,1,1,100.0,1.5469860468532226,5.222,-3.675013953146778
6,40.0,1,20.0,1.0,6,2,5.12,-0.024,0.389,-2.525,37.0,25.69,0,19.0,1641.0,138.0,-1.12,0.02,-1.08,-0.1,3.63,-2.87,18.36,0,1,1,100.0,1.3750987083139758,5.12,-3.7449012916860243
6,41.0,1,20.0,1.0,6,2,5.024,-0.020399999999999998,0.4616,-2.0948,37.0,25.732000000000003,0,19.0,1641.0,138.0,-1.36,0.026,-1.086,-0.1,4.026,-3.2600000000000002,23.112000000000002,0,1,1,100.0,1.1688339020668792,5.024,-3.855166097933121
6,42.0,1,20.0,1.0,6,2,4.932,-0.0168,0.5008,-1.6822000000000001,37.0,25.774,0,19.0,1641.0,138.0,-1.558,0.03,-1.094,-0.1,4.34,-3.658,27.866,0,1,1,100.0,0.962569095819783,4.932,-3.9694309041802174
6,43.0,1,20.0,1.0,6,2,4.848,-0.0132,0.4732,-1.3048000000000002,37.0,25.816,0,19.0,1641.0,138.0,-1.672,0.03,-1.106,-0.1,4.49,-4.072,32.624,0,1,1,100.0,0.7563042895726867,4.848,-4.091695710427313
6,44.0,1,20.0,1.0,6,2,4.768000000000001,-0.01,0.372,-1.0042,37.0,25.842,0,19.0,1641.0,138.0,-1.702,0.03,-1.114,-0.096,4.484,-4.502,37.318,0,1,1,100.0,0.5729577951308232,4.768000000000001,-4.195042204869178
6,45.0,1,20.0,1.0,6,2,4.69,-0.007,0.234,-0.742,37.0,25.86,0,19.0,1641.0,138.0,-1.69,0.03,-1.12,-0.09,4.4,-4.94,41.98,0,1,1,100.0,0.40107045659157625,4.69,-4.2889295434084245
6,46.0,1,20.0,1.0,6,2,4.642,-0.0052,0.15660000000000002,-0.4876,37.0,25.842,0,19.0,1641.0,138.0,-1.552,0.03,-1.132,-0.09,4.112,-5.42,46.426,0,1,1,100.0,0.29793805346802804,4.642,-4.344061946531973
6,47.0,1,20.0,1.0,6,2,4.602,-0.0038,0.1172,-0.2748,37.0,25.83,0,19.0,1641.0,138.0,-1.388,0.028,-1.14,-0.09,3.778,-5.922000000000001,50.722,0,1,1,100.0,0.21772396214971282,4.602,-4.384276037850287
6,48.0,1,20.0,1.0,6,2,4.578,-0.0032,0.1538,-0.1452,37.0,25.83,0,19.0,1641.0,138.0,-1.1720000000000002,0.022,-1.14,-0.09,3.352,-6.468,54.717999999999996,0,1,1,100.0,0.18334649444186343,4.578,-4.394653505558137
6,49.0,1,20.0,1.0,6,2,4.582,-0.0026,0.11,-0.1204,37.0,25.83,0,19.0,1641.0,138.0,-0.936,0.016,-1.144,-0.09,2.898,-7.162,58.166,0,1,1,100.0,0.14896902673401402,4.582,-4.433030973265986
6,50.0,1,20.0,1.0,6,2,4.6,-0.002,0.026,-0.148,37.0,25.83,0,19.0,1641.0,138.0,-0.69,0.01,-1.15,-0.09,2.43,-7.93,61.34,0,1,1,100.0,0.11459155902616465,4.6,-4.485408440973835
6,51.0,1,20.0,1.0,6,2,4.63,-0.0023,-0.005499999999999998,-0.2233,37.0,25.83,0,19.0,1641.0,138.0,-0.585,0.01,-1.1469999999999998,-0.087,2.214,-8.488,62.309,0,1,1,100.0,0.13178029288008933,4.63,-4.498219707119911
6,52.0,1,20.0,1.0,6,2,4.66,-0.0026,-0.03699999999999999,-0.2986,37.0,25.83,0,19.0,1641.0,138.0,-0.48,0.01,-1.144,-0.084,1.998,-9.046,63.278,0,1,1,100.0,0.14896902673401402,4.66,-4.511030973265986
6,53.0,1,20.0,1.0,6,2,4.69,-0.0029000000000000002,-0.06849999999999999,-0.3739,37.0,25.83,0,19.0,1641.0,138.0,-0.37500000000000006,0.01,-1.141,-0.081,1.782,-9.604,64.247,0,1,1,100.0,0.16615776058793874,4.69,-4.523842239412062
6,54.0,1,20.0,0.6,6,2,4.974,-0.0048000000000000004,-0.1048,-0.8384,37.0,25.83,0,18.6,1641.0,138.0,-0.14600000000000002,0.0,-1.1219999999999999,-0.08,1.058,-13.734,64.248,0,1,1,100.0,0.2750197416627952,4.974,-4.698980258337205
6,55.0,1,20.0,0.0,6,2,5.13,-0.006,-0.202,-0.974,37.0,25.83,0,18.0,1641.0,138.0,-0.17,0.0,-1.11,-0.08,0.89,-15.72,62.85,0,1,1,100.0,0.34377467707849396,5.13,-4.786225322921506
6,56.0,1,20.0,0.6000000000000001,6,2,5.334,-0.0078,-0.1876,-1.0754,37.0,25.83,0,18.6,1641.0,138.0,-0.356,0.006,-1.092,-0.08,0.89,-17.94,59.664,0,1,1,100.0,0.4469070802020421,5.334,-4.887092919797958
6,57.0,1,20.0,1.0,6,2,5.553999999999999,-0.0092,-0.14959999999999998,-1.1682,37.0,25.83,0,19.0,1641.0,138.0,-0.604,0.012,-1.074,-0.08,0.936,-20.138,55.924,0,1,1,100.0,0.5271211715203573,5.553999999999999,-5.026878828479642
6,58.0,1,20.0,1.0,6,2,5.806,-0.0098,-0.0644,-1.2438,37.0,25.83,0,19.0,1641.0,138.0,-0.9760000000000001,0.018000000000000002,-1.056,-0.08,1.074,-22.292,51.076,0,1,1,100.0,0.5614986392282068,5.806,-5.244501360771793
6,59.0,1,20.0,1.0,6,2,6.085999999999999,-0.0104,-0.007199999999999998,-1.2897999999999998,37.0,25.83,0,19.0,1641.0,138.4,-1.456,0.028,-1.038,-0.08,1.264,-24.150000000000002,45.288000000000004,0,1,1,100.0,0.5958761069360561,6.085999999999999,-5.490123893063943
6,60.0,1,20.0,1.0,1,5,6.38,-0.011,0.036,-1.321,37.0,25.83,0,19.0,1641.0,139.0,-1.99,0.04,-1.02,-0.08,1.48,-25.86,39.03,0,1,1,100.0,0.6302535746439055,6.38,-5.749746425356094
6,61.0,1,20.0,0.39999999999999997,1,5,6.704,-0.011,0.010199999999999997,-1.306,37.0,25.83,0,19.0,1641.0,139.0,-2.614,0.046,-1.002,-0.08,1.744,-26.772,31.872,0,1,1,100.0,0.6302535746439055,6.704,-6.073746425356094
6,62.0,1,20.0,0.0,1,5,6.958666666666667,-0.013999999999999999,-0.25079999999999997,-1.2034,37.0,25.827333333333332,0,19.0,1641.0,139.0,-3.0986666666666665,0.051333333333333335,-0.9886666666666667,-0.08,1.9473333333333334,-27.360666666666667,26.269333333333336,0,1,1,100.0,0.8021409131831524,6.958666666666667,-6.156525753483514
6,63.0,1,20.0,0.0,1,5,7.074666666666666,-0.023,-0.9822,-0.9256,37.0,25.819333333333333,0,19.0,1641.0,139.0,-3.3046666666666664,0.05533333333333334,-0.9846666666666667,-0.08,2.029333333333333,-27.302666666666667,23.777333333333335,0,1,1,100.0,1.3178029288008934,7.074666666666666,-5.756863737865773
6,64.0,1,20.0,0.0,1,5,7.190666666666667,-0.032,-1.7136,-0.6478,37.0,25.811333333333334,0,19.0,1641.0,139.0,-3.5106666666666664,0.059333333333333335,-0.9806666666666667,-0.08,2.1113333333333335,-27.244666666666667,21.285333333333334,0,1,1,100.0,1.8334649444186344,7.190666666666667,-5.357201722248033
6,65.0,1,20.0,0.0,1,5,7.306666666666667,-0.041,-2.445,-0.37,37.0,25.80333333333333,0,19.0,1641.0,139.0,-3.7166666666666663,0.06333333333333334,-0.9766666666666667,-0.08,2.1933333333333334,-27.186666666666667,18.793333333333333,0,1,1,100.0,2.3491269600363753,7.306666666666667,-4.957539706630291
6,66.0,1,20.0,0.0,1,5,7.422666666666666,-0.05,-3.1763999999999997,-0.09220000000000002,37.0,25.795333333333332,0,19.0,1641.0,139.0,-3.9226666666666663,0.06733333333333334,-0.9726666666666667,-0.08,2.275333333333333,-27.128666666666668,16.301333333333332,0,1,1,100.0,2.8647889756541165,7.422666666666666,-4.55787769101255
6,67.0,1,20.0,0.0,1,5,8.79,-0.148,-2.0382,2.23,37.0,25.644,0,19.0,1641.0,139.0,-5.338,0.09,-0.938,-0.08,3.436,-19.326,-11.236,0,1,1,100.0,8.479775367936183,8.79,-0.31022463206381623
6,68.0,1,20.0,0.0,1,6,9.120000000000001,-0.16599999999999998,-1.7988,2.707,37.0,25.626,0,19.0,1641.0,139.0,-5.302,0.09,-0.932,-0.08,3.844,-15.924,-17.554000000000002,0,1,1,100.0,9.511099399171664,9.120000000000001,0.39109939917166336
6,69.0,1,20.0,0.0,1,6,9.43,-0.1812,-1.5178,3.1392,37.0,25.576,0,19.0,1641.0,139.0,-5.022,0.086,-0.93,-0.084,4.28,-12.25,-23.38,0,1,1,100.0,10.381995247770517,9.43,0.9519952477705171
6,70.0,1,20.0,0.0,1,6,9.73,-0.195,-1.216,3.549,37.0,25.51,0,19.0,1641.0,139.0,-4.62,0.08,-0.93,-0.09,4.73,-8.44,-28.96,0,1,1,100.0,11.172677005051053,9.73,1.4426770050510527
6,71.0,1,20.0,0.0,1,6,9.988,-0.2058,-1.1602,3.8142,37.0,25.486,0,19.0,1641.0,139.0,-3.846,0.062,-0.9359999999999999,-0.096,5.186,-4.731999999999999,-33.718,0,1,1,100.0,11.791471423792343,9.988,1.8034714237923435
6,72.0,1,20.0,0.0,1,6,10.228,-0.21559999999999999,-1.0834,4.0336,37.0,25.464,0,19.0,1641.0,139.0,-2.966,0.044000000000000004,-0.94,-0.10200000000000001,5.62,-1.19,-38.186,0,1,1,100.0,12.352970063020548,10.228,2.124970063020548
6,73.0,1,20.0,0.0,1,6,10.432,-0.22340000000000002,-0.9646,4.1613999999999995,37.0,25.446,0,19.0,1641.0,139.0,-1.874,0.026000000000000002,-0.94,-0.108,6.01,2.0199999999999996,-42.074,0,1,1,100.0,12.799877143222592,10.432,2.367877143222591
6,74.0,1,20.0,0.0,1,6,10.592,-0.23,-0.7542,4.4036,37.0,25.412000000000003,0,19.0,1641.0,139.0,-0.6220000000000001,0.008,-0.944,-0.11800000000000001,6.239999999999999,4.7379999999999995,-45.309999999999995,0,1,1,100.0,13.178029288008934,10.592,2.586029288008934
6,75.0,1,20.0,0.0,1,6,10.73,-0.236,-0.498,4.703,37.0,25.37,0,19.0,1641.0,139.0,0.71,-0.01,-0.95,-0.13,6.39,7.21,-48.22,0,1,1,100.0,13.521803965087427,10.73,2.7918039650874267
6,76.0,1,20.0,0.0,1,6,10.763,-0.23809999999999998,-0.4335,4.8479,37.0,25.349,0,19.0,1641.0,139.0,1.454,-0.022,-0.953,-0.133,6.2909999999999995,8.02,-49.177,0,1,1,100.0,13.6421251020649,10.763,2.8791251020649007
6,77.0,1,20.0,0.0,1,6,10.796,-0.2402,-0.369,4.9928,37.0,25.328,0,19.0,1641.0,139.0,2.198,-0.034,-0.956,-0.136,6.191999999999999,8.83,-50.134,0,1,1,100.0,13.762446239042374,10.796,2.9664462390423747
6,78.0,1,20.0,0.0,1,6,10.829,-0.2423,-0.3045,5.1377,37.0,25.307000000000002,0,19.0,1641.0,139.0,2.942,-0.046,-0.959,-0.139,6.093,9.64,-51.090999999999994,0,1,1,100.0,13.882767376019846,10.829,3.053767376019845
6,79.0,1,20.0,0.0,1,6,10.792,-0.2482,-0.2134,5.551,37.0,25.248,0,19.0,1641.0,139.0,6.771999999999999,-0.116,-0.974,-0.164,4.602,11.192,-52.936,0,1,1,100.0,14.220812475147033,10.792,3.4288124751470335
6,80.0,1,20.0,0.0,3,7,10.72,-0.25,-0.217,5.704,37.0,25.23,0,19.0,1641.0,139.0,8.29,-0.14,-0.98,-0.17,3.75,11.21,-52.9,0,1,1,100.0,14.32394487827058,10.72,3.60394487827058
6,81.0,1,20.0,0.0,3,7,10.582,-0.2506,-0.1264,5.7958,37.0,25.23,0,19.0,1641.0,139.0,9.718,-0.164,-0.98,-0.17,2.598,10.634,-51.994,0,1,1,100.0,14.35832234597843,10.582,3.7763223459784285
6,82.0,1,20.0,0.0,3,7,10.422,-0.251,-0.0726,5.8824000000000005,37.0,25.222,0,19.0,1641.0,139.0,11.102,-0.188,-0.98,-0.17200000000000001,1.366,9.916,-50.838,0,1,1,100.0,14.381240657783662,10.422,3.9592406577836616
6,83.0,1,20.0,0.0,3,7,10.218,-0.251,-0.09240000000000001,5.9586,37.0,25.198,0,19.0,1641.0,139.0,12.398,-0.212,-0.98,-0.178,-0.026000000000000245,8.914,-49.182,0,1,1,100.0,14.381240657783662,10.218,4.163240657783662
6,84.0,1,20.0,0.0,3,7,9.982000000000001,-0.251,-0.0522,5.9572,37.0,25.206,0,19.0,1641.0,139.0,13.582,-0.23600000000000002,-0.98,-0.18,-1.526,7.736,-47.134,0,1,1,100.0,14.381240657783662,9.982000000000001,4.399240657783661
6,85.0,1,20.0,0.0,3,7,9.73,-0.251,0.018,5.917,37.0,25.23,0,19.0,1641.0,139.0,14.71,-0.26,-0.98,-0.18,-3.08,6.47,-44.89,0,1,1,100.0,14.381240657783662,9.73,4.651240657783662
6,86.0,1,20.0,0.0,3,7,9.43,-0.2504,0.1326,5.995,37.0,25.23,0,19.0,1641.0,139.0,15.538,-0.272,-0.98,-0.17400000000000002,-4.49,5.372,-42.1,0,1,1,100.0,14.346863190075814,9.43,4.916863190075814
6,87.0,1,20.0,0.0,3,7,9.116,-0.2474,0.33299999999999996,6.2021999999999995,37.0,25.202,0,19.0,1641.0,139.0,16.242,-0.28400000000000003,-0.982,-0.166,-5.771999999999999,4.4559999999999995,-39.158,0,1,1,100.0,14.174975851536567,9.116,5.058975851536568
6,88.0,1,20.0,0.0,3,7,8.774000000000001,-0.23959999999999998,0.705,6.667800000000001,37.0,25.118,0,19.0,1641.0,139.0,16.698,-0.296,-0.988,-0.154,-6.798,3.904,-35.912,0,1,1,100.0,13.728068771334524,8.774000000000001,4.954068771334523
6,89.0,1,20.0,0.0,3,7,8.42,-0.2306,1.033,7.0578,37.0,25.046,0,19.0,1641.0,139.0,16.906,-0.304,-0.994,-0.13799999999999998,-7.524,3.836,-32.474,0,1,1,100.0,13.212406755716783,8.42,4.792406755716783
6,90.0,1,20.0,0.0,3,7,8.06,-0.221,1.339,7.41,37.0,24.98,0,19.0,1641.0,139.0,16.99,-0.31,-1.0,-0.12,-8.1,4.01,-28.94,0,1,1,100.0,12.662367272391194,8.06,4.602367272391193
6,91.0,1,20.0,0.0,3,7,7.8740000000000006,-0.2135,1.5064,7.4952000000000005,37.0,24.992,0,19.0,1641.0,139.0,16.887999999999998,-0.307,-1.0030000000000001,-0.111,-8.208,4.420999999999999,-27.128,0,1,1,100.0,12.232648926043076,7.8740000000000006,4.358648926043076
6,92.0,1,20.0,0.0,3,7,7.688000000000001,-0.20600000000000002,1.6738,7.5804,37.0,25.004,0,19.0,1641.0,139.0,16.785999999999998,-0.304,-1.006,-0.102,-8.316,4.832,-25.316,0,1,1,100.0,11.802930579694959,7.688000000000001,4.114930579694958
6,93.0,1,20.0,0.0,3,7,7.502000000000001,-0.1985,1.8412,7.6655999999999995,37.0,25.016,0,19.0,1641.0,139.0,16.683999999999997,-0.301,-1.009,-0.093,-8.424000000000001,5.243,-23.503999999999998,0,1,1,100.0,11.373212233346841,7.502000000000001,3.8712122333468404
6,94.0,1,20.0,0.0,3,7,6.552,-0.14880000000000002,2.4356,7.4472000000000005,37.0,25.192,0,19.0,1641.0,139.0,15.702000000000002,-0.286,-1.024,-0.048,-8.354,8.112,-15.044,0,1,1,100.0,8.52561199154665,6.552,1.973611991546651
6,95.0,1,20.0,0.0,3,7,6.18,-0.126,2.462,6.912,37.0,25.3,0,19.0,1641.0,139.0,15.24,-0.28,-1.03,-0.03,-8.24,9.24,-11.96,0,1,1,100.0,7.219268218648373,6.18,1.039268218648373
6,96.0,1,20.0,0.0,3,7,5.826,-0.1002,2.7248,6.3354,37.0,25.444,0,19.0,1641.0,139.0,14.748,-0.274,-1.036,-0.018000000000000002,-8.144,9.918,-9.482000000000001,0,1,1,100.0,5.741037107210849,5.826,-0.08496289278915103
6,97.0,1,20.0,0.0,3,7,5.534,-0.07830000000000001,2.9099,5.796799999999999,37.0,25.558,0,19.0,1641.0,139.0,14.344,-0.269,-1.041,-0.009000000000000001,-8.071,10.386,-7.533,0,1,1,100.0,4.486259535874346,5.534,-1.0477404641256536
6,98.0,1,20.0,0.0,3,7,5.366,-0.06420000000000001,2.9396,5.3342,37.0,25.612,0,19.0,1641.0,139.0,14.116,-0.266,-1.044,-0.006,-8.044,10.434,-6.642,0,1,1,100.0,3.6783890447398857,5.366,-1.687610955260114
6,99.0,1,20.0,0.0,3,7,5.198,-0.0501,2.9693,4.8716,37.0,25.666,0,19.0,1641.0,139.0,13.888,-0.263,-1.0470000000000002,-0.003,-8.017,10.482,-5.751,0,1,1,100.0,2.8705185536054243,5.198,-2.327481446394576
6,100.0,1,20.0,0.0,3,7,5.03,-0.036,2.999,4.409,37.0,25.72,0,19.0,1641.0,139.0,13.66,-0.26,-1.05,0.0,-7.99,10.53,-4.86,0,1,1,100.0,2.0626480624709633,5.03,-2.967351937529037
7,0.0,1,20.0,0.0,0,1,4.51,0.0,1.603,2.051,37.0,25.83,0,19.0,1641.0,139.0,13.01,-0.25,-1.06,0.01,-7.9,9.65,-2.96,0,1,1,100.0,-0.0,4.51,-4.51
7,1.0,1,20.0,0.0,0,1,4.215599999999999,0.01152,0.9789999999999999,1.08076,37.0,25.83,0,19.0,1641.0,139.0,12.6388,-0.24359999999999998,-1.0664,0.01,-7.7848,8.5556,-2.1279999999999997,0,1,1,100.0,-0.6600473799907084,4.215599999999999,-4.875647379990708
7,2.0,1,20.0,0.0,0,1,3.9379999999999997,0.018,0.628,0.535,37.0,25.83,0,24.6,1641.0,139.0,12.276,-0.2372,-1.07,0.01,-7.622,7.3548,-1.2595999999999998,0,1,1,100.0,-1.0313240312354817,3.9379999999999997,-4.969324031235481
7,3.0,1,20.0,0.0,0,1,3.682,0.018,0.628,0.535,37.0,25.83,0,37.400000000000006,1641.0,139.0,11.924000000000001,-0.2308,-1.07,0.01,-7.398,6.017199999999999,-0.3443999999999996,0,1,1,100.0,-1.0313240312354817,3.682,-4.713324031235482
7,4.0,1,20.0,0.0,0,1,3.5547999999999997,0.018,0.628,0.535,37.0,25.83,0,44.6,1641.0,139.0,11.726,-0.2272,-1.0728,0.0072,-7.2216,5.295599999999999,0.3440000000000002,0,1,1,100.0,-1.0313240312354817,3.5547999999999997,-4.586124031235482
7,5.0,1,20.0,0.0,0,1,3.446,0.018,0.628,0.535,37.0,25.83,0,51.0,1641.0,139.0,11.55,-0.224,-1.076,0.004,-7.052,4.662,1.0,0,1,1,100.0,-1.0313240312354817,3.446,-4.477324031235482
7,6.0,1,20.0,0.0,0,1,3.3371999999999997,0.018,0.628,0.535,37.0,25.83,0,57.400000000000006,1641.0,139.0,11.374,-0.2208,-1.0792000000000002,0.0007999999999999972,-6.8824,4.0283999999999995,1.6560000000000008,0,1,1,100.0,-1.0313240312354817,3.3371999999999997,-4.368524031235482
7,7.0,1,20.0,0.0,0,1,2.9143999999999997,-0.047760000000000004,-8.096599999999995,-0.0,37.0,25.86,0,4.0,1641.0,139.0,10.6188,-0.2052,-1.08,-0.014800000000000004,-5.819599999999999,1.6051999999999995,5.988400000000001,0,1,1,100.0,2.736446429544812,2.9143999999999997,-0.17795357045518756
7,8.0,1,20.0,0.0,0,1,2.7796,-0.05472,-0.5399999999999999,-0.0,37.0,25.86,0,4.0,1641.0,139.0,10.3492,-0.1988,-1.08,-0.021200000000000004,-5.3524,0.8407999999999997,7.960800000000001,0,1,1,100.0,3.1352250549558645,2.7796,0.3556250549558646
7,9.0,1,20.0,0.0,0,1,2.6708,-0.05856,-0.39599999999999996,-0.0,37.0,25.86,0,4.0,1641.0,139.0,10.1316,-0.19240000000000002,-1.08,-0.0276,-4.8852,0.25839999999999985,9.9384,0,1,1,100.0,3.3552408482861007,2.6708,0.6844408482861009
7,10.0,1,20.0,0.0,0,1,2.586,-0.060399999999999995,-0.228,-0.0,37.0,25.86,0,4.0,1641.0,139.0,9.950000000000001,-0.19,-1.076,-0.03,-4.434,-0.19600000000000004,11.748,0,1,1,100.0,3.460665082590172,2.586,0.8746650825901723
7,11.0,1,20.0,0.0,0,1,2.5176,-0.061,-0.04931999999999989,-0.0,37.0,25.86,0,4.0,1641.0,139.0,9.793600000000001,-0.1896,-1.0696,-0.030400000000000003,-3.995599999999999,-0.5628000000000002,13.426400000000001,0,1,1,100.0,3.4950425502980216,2.5176,0.9774425502980217
7,12.0,1,20.0,0.0,0,1,2.4792,-0.061,0.07356000000000022,-0.0,37.0,25.86,0,4.0,1641.0,139.0,9.6912,-0.18319999999999997,-1.0632000000000001,-0.03680000000000001,-3.605199999999999,-0.7676000000000004,14.648800000000001,0,1,1,100.0,3.4950425502980216,2.4792,1.0158425502980215
7,13.0,1,20.0,0.0,0,1,2.4568,-0.06036,0.11996,-0.0,37.0,25.86,0,4.0,1641.0,139.0,9.617600000000001,-0.18,-1.06,-0.0432,-3.2532,-0.8796,15.5544,0,1,1,100.0,3.458373251409649,2.4568,1.0015732514096491
7,14.0,1,20.0,0.0,0,1,2.4504,-0.059079999999999994,0.08987999999999996,-0.0,37.0,25.86,0,4.0,1641.0,139.0,9.5728,-0.18,-1.06,-0.04960000000000001,-2.9395999999999995,-0.8988,16.1432,0,1,1,100.0,3.3850346536329035,2.4504,0.9346346536329033
7,15.0,1,20.0,0.0,0,1,2.4650000000000003,-0.0566,0.28,-0.0,37.0,25.86,0,4.0,1641.0,139.0,9.564,-0.18,-1.057,-0.05,-2.815,-0.846,16.102,0,1,1,100.0,3.2429411204404595,2.4650000000000003,0.7779411204404592
7,16.0,1,20.0,0.0,0,1,2.481,-0.05404,0.4848000000000002,-0.0,37.0,25.86,0,4.0,1641.0,139.0,9.5576,-0.18,-1.0538,-0.05,-2.703,-0.7884,16.0188,0,1,1,100.0,3.0962639248869688,2.481,0.6152639248869689
7,17.0,1,20.0,0.0,0,1,2.497,-0.05147999999999999,0.6896000000000003,-0.0,37.0,25.86,0,4.0,1641.0,139.0,9.551200000000001,-0.18,-1.0506,-0.05,-2.5909999999999997,-0.7307999999999999,15.935599999999999,0,1,1,100.0,2.9495867293334777,2.497,0.45258672933347777
7,18.0,1,20.0,0.0,0,1,2.5416,-0.043199999999999995,1.092,-0.0,37.0,25.86,0,4.0,1641.0,139.0,9.555200000000001,-0.18,-1.0448,-0.055200000000000006,-2.4711999999999996,-0.5795999999999999,15.1036,0,1,1,100.0,2.475177674965156,2.5416,-0.06642232503484369
7,19.0,1,20.0,0.0,0,1,2.7236000000000002,-0.012679999999999986,1.5819200000000002,-0.0,37.0,25.86,0,4.0,1641.0,139.0,9.544400000000001,-0.17,-1.0292000000000001,-0.0608,-2.396,-0.15479999999999994,11.0544,0,1,1,100.0,0.726510484225883,2.7236000000000002,-1.997089515774117
7,20.0,1,20.0,0.0,0,1,2.778,-0.0034000000000000002,1.7896,-0.0,37.0,25.86,0,4.0,1641.0,139.0,9.522,-0.17,-1.026,-0.064,-2.46,-0.09400000000000001,9.672,0,1,1,100.0,0.1948056503444799,2.778,-2.5831943496555203
7,21.0,1,20.0,0.0,0,1,2.8324,0.005880000000000008,1.9972800000000002,-0.0,37.0,25.86,0,4.0,1641.0,139.0,9.499600000000001,-0.17,-1.0228,-0.06720000000000001,-2.524,-0.03319999999999996,8.289599999999998,0,1,1,100.0,-0.3368991835369245,2.8324,-3.1692991835369244
7,22.0,1,20.0,0.08000000000000114,0,1,3.0876,0.05256000000000004,2.473319999999999,-0.0,37.0,25.8968,0,4.080000000000001,1641.0,139.0,9.296,-0.1692,-1.0192,-0.07,-2.9692000000000007,0.1,0.9027999999999924,0,1,1,100.0,-3.011466171207609,3.0876,-6.099066171207609
7,23.0,1,20.0,0.7200000000000017,0,1,3.2284,0.07304000000000006,1.7878799999999981,-0.0,37.0,25.871199999999998,0,4.7200000000000015,1641.0,139.0,9.104,-0.1628,-1.0128,-0.07,-3.282800000000001,0.1,-3.3148000000000115,0,1,1,100.0,-4.184883735635537,3.2284,-7.413283735635536
7,24.0,1,20.0,1.0,0,1,3.3728000000000007,0.08452000000000001,0.9091199999999964,-0.0,37.0,25.86,0,5.0,1641.0,139.0,8.825599999999998,-0.15639999999999998,-1.01,-0.07360000000000003,-3.600000000000001,0.09279999999999995,-7.518000000000015,0,1,1,100.0,-4.842639284445719,3.3728000000000007,-8.215439284445718
7,25.0,1,20.0,1.0,0,1,3.52,0.089,-0.12,-0.0,37.0,25.86,0,5.0,1641.0,139.0,8.48,-0.15,-1.01,-0.08,-3.92,0.08,-11.71,0,1,1,100.0,-5.099324376664327,3.52,-8.619324376664327
7,26.0,1,20.0,1.0,0,1,3.6608,0.08388,-0.8214400000000006,-0.0,37.0,25.86,0,5.0,1641.0,139.0,7.9552,-0.1436,-1.01,-0.08,-4.1632,0.04159999999999996,-15.210800000000004,0,1,1,100.0,-4.805969985557345,3.6608,-8.466769985557345
7,27.0,1,20.0,1.0,0,1,3.8016000000000005,0.07679999999999998,-1.1067999999999996,-0.0,37.0,25.86,0,5.0,1641.0,139.0,7.371599999999999,-0.1344,-1.01,-0.08280000000000001,-4.3420000000000005,-0.010800000000000122,-18.216000000000005,0,1,1,100.0,-4.400315866604721,3.8016000000000005,-8.201915866604722
7,28.0,1,20.0,1.0,0,1,3.9424000000000006,0.06719999999999998,-0.8571999999999993,-0.0,37.0,25.86,0,5.0,1641.0,139.0,6.712399999999998,-0.12159999999999996,-1.01,-0.08920000000000002,-4.438000000000001,-0.08120000000000017,-20.584000000000007,0,1,1,100.0,-3.850276383279131,3.9424000000000006,-7.792676383279131
7,29.0,1,20.0,1.0,0,1,4.066400000000001,0.057599999999999964,-0.7834399999999998,-0.0,37.0,25.86,0,5.0,1641.0,139.0,5.991599999999997,-0.10879999999999995,-1.01,-0.09,-4.3884,-0.1628000000000003,-21.832,0,1,1,100.0,-3.3002368999535396,4.066400000000001,-7.366636899953541
7,30.0,1,20.0,1.0,0,1,4.184,0.0492,-0.7024,-0.0,37.0,25.86,0,5.0,1641.0,139.0,5.2620000000000005,-0.096,-1.01,-0.092,-4.268,-0.244,-22.554,0,1,1,100.0,-2.81895235204365,4.184,-7.00295235204365
7,31.0,1,20.0,1.0,6,2,4.292800000000001,0.04344,-0.5500799999999999,-0.0,37.0,25.86,0,5.0,1641.0,139.0,4.532399999999999,-0.0832,-1.01,-0.09840000000000002,-4.037599999999999,-0.3208000000000001,-22.4708,0,1,1,100.0,-2.488928662048296,4.292800000000001,-6.781728662048296
7,32.0,1,20.0,0.7599999999999995,6,2,4.348800000000001,0.04128,-0.5168,-0.03192000000000008,37.0,25.8528,0,7.880000000000007,1641.0,139.0,4.090799999999999,-0.07519999999999999,-1.0124,-0.1024,-3.8431999999999995,-0.3496,-22.039599999999997,0,1,1,100.0,-2.365169778300038,4.348800000000001,-6.713969778300038
7,33.0,1,20.0,0.4399999999999991,6,2,4.387200000000001,0.04032,-0.5232,-0.07448000000000012,37.0,25.8432,0,11.72000000000001,1641.0,139.0,3.7451999999999988,-0.06879999999999999,-1.0156,-0.10560000000000001,-3.6607999999999996,-0.36240000000000006,-21.492399999999996,0,1,1,100.0,-2.310165829967479,4.387200000000001,-6.69736582996748
7,34.0,1,20.0,0.11999999999999882,6,2,4.4256,0.03936,-0.5296000000000001,-0.11704000000000016,37.0,25.833599999999997,0,15.560000000000013,1641.0,139.0,3.3995999999999986,-0.062399999999999976,-1.0188,-0.10880000000000001,-3.4783999999999997,-0.37520000000000003,-20.945199999999996,0,1,1,100.0,-2.2551618816349204,4.4256,-6.68076188163492
7,35.0,1,20.0,0.0,6,2,4.532,0.0186,-0.7666,0.37279999999999996,37.0,25.842,0,17.0,1641.0,139.0,1.974,-0.036,-1.02,-0.114,-2.3080000000000003,-0.34400000000000003,-16.214,0,1,1,100.0,-1.065701498943331,4.532,-5.597701498943331
7,36.0,1,20.0,0.0,6,2,4.5496,0.011719999999999996,-0.62064,0.2840799999999996,37.0,25.86,0,17.0,1641.0,139.0,1.4407999999999996,-0.029199999999999986,-1.02,-0.12,-1.7387999999999995,-0.35520000000000007,-13.662799999999997,0,1,1,100.0,-0.6715065358933247,4.5496,-5.221106535893324
7,37.0,1,20.0,0.0,6,2,4.5432,0.007239999999999992,-0.5508799999999999,-0.14664000000000077,37.0,25.86,0,17.0,1641.0,139.0,0.9735999999999991,-0.016399999999999977,-1.02,-0.12,-1.0795999999999988,-0.4384000000000001,-10.667599999999995,0,1,1,100.0,-0.4148214436747156,4.5432,-4.958021443674715
7,38.0,1,20.0,0.3200000000000017,6,2,4.5208,0.0024399999999999865,-0.5544000000000002,-0.6349600000000015,37.0,25.8504,0,17.32,1641.0,139.0,0.5383999999999989,-0.006799999999999983,-1.0232,-0.12,-0.369199999999998,-0.5920000000000005,-7.486799999999991,0,1,1,100.0,-0.1398017020119201,4.5208,-4.66060170201192
7,39.0,1,20.0,0.9600000000000023,6,2,4.4824,-0.0026800000000000183,-0.6312000000000003,-1.1808800000000022,37.0,25.8312,0,17.96,1641.0,139.0,0.13519999999999854,-0.00039999999999997725,-1.0296,-0.12,0.39240000000000264,-0.8160000000000007,-4.120399999999988,0,1,1,100.0,0.15355268909506167,4.4824,-4.328847310904939
7,40.0,1,20.0,0.7,6,2,4.453,-0.0054,-0.5982000000000001,-1.4472,37.0,25.817999999999998,0,17.7,1641.0,139.0,-0.049000000000000016,0.003,-1.03,-0.123,0.839,-0.992,-2.179,0,1,1,100.0,0.3093972093706446,4.453,-4.143602790629355
7,41.0,1,20.0,0.3799999999999983,6,2,4.4242,-0.007960000000000014,-0.5578799999999998,-1.6948800000000013,37.0,25.8052,0,17.38,1641.0,139.0,-0.21860000000000093,0.006200000000000017,-1.03,-0.1262,1.2646000000000024,-1.164800000000001,-0.3325999999999899,0,1,1,100.0,0.4560744049241361,4.4242,-3.968125595075864
7,42.0,1,20.0,0.05999999999999938,6,2,4.3953999999999995,-0.010520000000000005,-0.5175599999999999,-1.9425600000000005,37.0,25.7924,0,17.06,1641.0,139.0,-0.3882000000000004,0.009400000000000006,-1.03,-0.12940000000000002,1.6902000000000008,-1.3376000000000003,1.5138000000000038,0,1,1,100.0,0.6027516004776263,4.3953999999999995,-3.792648399522373
7,43.0,1,20.0,1.0,6,2,4.2436,-0.0213,-0.4868600000000001,-2.9396799999999996,37.0,25.7018,0,18.0,1641.0,139.0,-0.9965999999999998,0.02,-1.04,-0.13,3.5057999999999994,-2.2953999999999994,9.811199999999996,0,1,1,100.0,1.2204001036286534,4.2436,-3.0231998963713465
7,44.0,1,20.0,1.0,6,2,4.198799999999999,-0.022900000000000007,-0.37837999999999955,-3.0574400000000006,37.0,25.679399999999998,0,18.0,1641.0,139.0,-1.1278000000000006,0.02,-1.04,-0.13,3.931400000000002,-2.548200000000001,11.929600000000008,0,1,1,100.0,1.3120733508495857,4.198799999999999,-2.8867266491504138
7,45.0,1,20.0,1.0,6,2,4.154,-0.0245,-0.2699,-3.1752000000000002,37.0,25.657,0,18.0,1641.0,139.0,-1.2590000000000001,0.02,-1.04,-0.13,4.357,-2.8009999999999997,14.048000000000002,0,1,1,100.0,1.403746598070517,4.154,-2.750253401929483
7,46.0,1,20.0,1.0,6,2,3.9483999999999995,-0.024239999999999984,0.24984000000000048,-2.654999999999998,37.0,25.7032,0,18.0,1641.0,139.0,-1.7788000000000008,0.034400000000000035,-1.0588000000000002,-0.12559999999999996,5.976400000000003,-4.028800000000002,24.767200000000024,0,1,1,100.0,1.3888496953971146,3.9483999999999995,-2.559550304602885
7,47.0,1,20.0,1.0,6,2,3.8611999999999997,-0.02151999999999999,0.3317600000000001,-2.2785199999999994,37.0,25.7256,0,18.0,1641.0,139.0,-1.9428,0.04,-1.0708,-0.12,6.4596,-4.523200000000001,29.34080000000001,0,1,1,100.0,1.233005175121531,3.8611999999999997,-2.628194824878469
7,48.0,1,20.0,1.0,6,2,3.7907999999999995,-0.017679999999999974,0.37784000000000034,-1.842679999999997,37.0,25.7704,0,18.0,1641.0,139.0,-2.045200000000001,0.04,-1.0772000000000002,-0.12,6.6964000000000015,-5.028800000000004,33.98720000000004,0,1,1,100.0,1.012989381791294,3.7907999999999995,-2.7778106182087052
7,49.0,1,20.0,1.0,6,2,3.7312,-0.014199999999999989,0.36955999999999983,-1.4655199999999988,37.0,25.804399999999998,0,18.0,1641.0,139.0,-2.0936,0.04,-1.0872000000000002,-0.12,6.7496,-5.552400000000002,38.65520000000002,0,1,1,100.0,0.8136000690857683,3.7312,-2.9175999309142315
7,50.0,1,20.0,1.0,6,2,3.68,-0.011,0.319,-1.134,37.0,25.83,0,18.0,1641.0,139.0,-2.1,0.04,-1.1,-0.12,6.66,-6.09,43.34,0,1,1,100.0,0.6302535746439055,3.68,-3.0497464253560946
7,51.0,1,20.0,1.0,6,2,3.6544,-0.008439999999999986,0.2613999999999997,-0.8760799999999986,37.0,25.83,0,18.0,1641.0,139.0,-1.9975999999999994,0.04,-1.1128000000000002,-0.12,6.243999999999998,-6.698000000000003,47.986400000000025,0,1,1,100.0,0.483576379090414,3.6544,-3.170823620909586
7,52.0,1,20.0,1.0,6,2,3.6428000000000003,-0.006159999999999997,0.2234,-0.5907199999999995,37.0,25.83,0,18.0,1641.0,139.0,-1.8503999999999996,0.03719999999999999,-1.1228,-0.11719999999999998,5.6991999999999985,-7.334000000000001,52.55720000000001,0,1,1,100.0,0.35294200180058694,3.6428000000000003,-3.2898579981994134
7,53.0,1,20.0,1.0,6,2,3.6492,-0.004239999999999986,0.2105999999999999,-0.2700799999999977,37.0,25.83,0,18.0,1641.0,139.0,-1.6455999999999986,0.030799999999999952,-1.1292,-0.11079999999999995,4.988799999999995,-8.006000000000004,57.030800000000035,0,1,1,100.0,0.24293410513546823,3.6492,-3.4062658948645317
7,54.0,1,20.0,1.0,6,2,3.6892,-0.0028799999999999954,0.19219999999999993,-0.025599999999999193,37.0,25.846799999999998,0,18.0,1641.0,139.0,-1.362399999999999,0.024399999999999977,-1.1356,-0.11,4.115999999999997,-8.778800000000002,61.12360000000002,0,1,1,100.0,0.16501184499767682,3.6892,-3.524188155002323
7,55.0,1,20.0,1.0,6,2,3.7350000000000003,-0.0018,0.1593,0.1327,37.0,25.857,0,18.0,1641.0,139.0,-1.105,0.019,-1.141,-0.11,3.35,-9.478,64.399,0,1,1,100.0,0.10313240312354818,3.7350000000000003,-3.631867596876452
7,56.0,1,20.0,1.0,6,2,3.7830000000000004,-0.0011599999999999965,0.09625999999999967,0.12533999999999998,37.0,25.8474,0,18.0,1641.0,139.0,-0.928999999999999,0.015799999999999984,-1.1441999999999999,-0.11,2.8699999999999974,-9.983600000000003,65.9958,0,1,1,100.0,0.06646310423517529,3.7830000000000004,-3.716536895764825
7,57.0,1,20.0,1.0,6,2,3.8310000000000004,-0.0005199999999999989,0.03321999999999989,0.11797999999999999,37.0,25.837799999999998,0,18.0,1641.0,139.0,-0.7529999999999997,0.012599999999999995,-1.1474,-0.11,2.3899999999999992,-10.489200000000002,67.5926,0,1,1,100.0,0.029793805346802742,3.8310000000000004,-3.8012061946531976
7,58.0,1,20.0,1.0,6,2,3.897600000000001,-0.00012000000000000456,-0.024480000000000245,0.07599999999999864,37.0,25.83,0,18.0,1641.0,139.0,-0.5463999999999976,0.008799999999999955,-1.15,-0.11,1.8307999999999935,-11.15200000000001,69.24520000000001,0,1,1,100.0,0.00687549354157014,3.897600000000001,-3.890724506458431
7,59.0,1,20.0,1.0,6,2,4.0448,-0.0007600000000000023,-0.05904000000000012,-0.11600000000000067,37.0,25.83,0,18.0,1641.0,139.0,-0.20719999999999875,0.0023999999999999772,-1.15,-0.11,0.9283999999999967,-12.496000000000004,71.1396,0,1,1,100.0,0.0435447924299427,4.0448,-4.001255207570058
7,60.0,1,20.0,1.0,6,2,4.566,-0.0028,-0.08600000000000001,-0.4144,37.0,25.83,0,18.0,1641.0,139.0,0.41000000000000003,-0.01,-1.132,-0.11,-0.8800000000000001,-17.062,71.2,0,1,1,100.0,0.1604281826366305,4.566,-4.405571817363369
7,61.0,1,20.0,1.0,6,2,4.819200000000001,-0.004080000000000007,-0.13855999999999988,-0.5887200000000012,37.0,25.8312,0,18.0,1641.0,139.0,0.5271999999999998,-0.01,-1.1192,-0.11,-1.3764000000000014,-19.170800000000014,69.44799999999998,0,1,1,100.0,0.23376678041337628,4.819200000000001,-4.5854332195866245
7,62.0,1,20.0,1.0,6,2,5.1264,-0.005360000000000003,-0.11551999999999996,-0.8242400000000004,37.0,25.8504,0,18.0,1641.0,139.0,0.48239999999999994,-0.01,-1.1064,-0.11,-1.6388000000000005,-21.423600000000004,65.896,0,1,1,100.0,0.3071053781901214,5.1264,-4.819294621809879
7,63.0,1,20.0,0.6799999999999954,6,2,5.459200000000003,-0.006320000000000004,-0.12064000000000023,-0.9724000000000004,37.0,25.8504,0,17.679999999999996,1641.0,139.0,0.3351999999999982,-0.0067999999999999545,-1.0904,-0.10679999999999995,-1.7924000000000004,-23.593200000000014,61.435199999999966,0,1,1,100.0,0.3621093265226805,5.459200000000003,-5.0970906734773225
7,64.0,1,20.0,0.039999999999997676,6,2,5.817600000000001,-0.006960000000000003,-0.1539200000000001,-1.0332000000000001,37.0,25.8312,0,17.04,1641.0,139.0,0.08559999999999914,-0.00039999999999997725,-1.0712,-0.10039999999999998,-1.8372000000000002,-25.679600000000008,56.065599999999975,0,1,1,100.0,0.39877862541105313,5.817600000000001,-5.418821374588949
7,65.0,1,20.0,0.6000000000000001,1,5,6.218,-0.008199999999999999,-0.0816,-1.0346,37.0,25.83,0,17.6,1641.0,139.6,-0.33799999999999997,0.006,-1.046,-0.1,-1.75,-27.256,49.232,0,1,1,100.0,0.46982539200727497,6.218,-5.748174607992725
7,66.0,1,20.0,0.7599999999999966,1,5,6.635600000000002,-0.008759999999999997,-0.012799999999999728,-1.02724,37.0,25.8204,0,18.240000000000002,1641.0,140.0,-0.8212000000000029,0.014800000000000068,-1.0228,-0.1,-1.6011999999999986,-28.4432,41.93839999999996,0,1,1,100.0,0.501911028534601,6.635600000000002,-6.133688971465401
7,67.0,1,20.0,0.11999999999999882,1,5,7.077200000000001,-0.008119999999999999,0.038400000000000094,-1.01188,37.0,25.7948,0,18.880000000000003,1641.0,140.0,-1.384400000000001,0.02760000000000002,-1.0036,-0.1,-1.3643999999999996,-29.0384,34.04079999999999,0,1,1,100.0,0.4652417296462284,7.077200000000001,-6.611958270353773
7,68.0,1,20.0,0.0,1,5,7.534400000000003,-0.030880000000000195,-1.873920000000017,-0.2721599999999935,37.0,25.79,0,19.0,1641.0,140.0,-1.9840000000000044,0.035200000000000044,-0.9791999999999998,-0.09479999999999995,-1.0287999999999975,-28.681999999999995,25.851999999999943,0,1,1,100.0,1.7692936713639933,7.534400000000003,-5.76510632863601
7,69.0,1,20.0,0.0,1,5,7.938400000000001,-0.05584000000000005,-3.5854399999999993,0.48208000000000106,37.0,25.784399999999998,0,19.0,1641.0,140.0,-2.507200000000001,0.04080000000000001,-0.9583999999999999,-0.09,-0.6967999999999991,-28.022799999999997,18.641599999999986,0,1,1,100.0,3.1993963280105198,7.938400000000001,-4.739003671989481
7,70.0,1,20.0,0.0,1,5,8.172,-0.0712,-3.3352,0.7784,37.0,25.762,0,19.0,1641.0,140.0,-2.776,0.044000000000000004,-0.952,-0.09,-0.444,-27.114,14.568,0,1,1,100.0,4.079459501331462,8.172,-4.092540498668539
7,71.0,1,20.0,0.0,1,5,8.405600000000002,-0.08656000000000008,-3.084959999999999,1.0747200000000017,37.0,25.7396,0,19.0,1641.0,140.0,-3.0448000000000013,0.04720000000000002,-0.9455999999999999,-0.09,-0.19119999999999865,-26.205199999999994,10.494399999999978,0,1,1,100.0,4.95952267465241,8.405600000000002,-3.4460773253475914
7,72.0,1,20.0,0.0,1,5,9.385200000000001,-0.13832000000000005,-2.1565599999999994,2.538480000000001,37.0,25.641199999999998,0,19.0,1641.0,140.0,-3.8232,0.06,-0.9092,-0.09,1.0980000000000012,-20.24959999999999,-6.178400000000012,0,1,1,100.0,7.92515222224955,9.385200000000001,-1.460047777750451
7,73.0,1,20.0,0.0,1,6,9.826800000000002,-0.15688000000000013,-1.7130399999999968,3.102320000000004,37.0,25.5708,0,19.0,1641.0,140.0,-3.8488,0.06,-0.9027999999999999,-0.09,1.802000000000005,-16.32639999999997,-13.52560000000005,0,1,1,100.0,8.988561890012363,9.826800000000002,-0.838238109987639
7,74.0,1,20.0,0.0,1,6,10.246800000000002,-0.17220000000000005,-1.3983999999999992,3.642400000000002,37.0,25.504,0,19.0,1641.0,140.0,-3.6439999999999984,0.05639999999999998,-0.8964,-0.09360000000000002,2.5384000000000024,-12.147599999999985,-20.570400000000024,0,1,1,100.0,9.866333232152778,10.246800000000002,-0.3804667678472242
7,75.0,1,20.0,0.0,1,6,10.65,-0.185,-1.184,4.164,37.0,25.44,0,19.0,1641.0,140.0,-3.26,0.05,-0.89,-0.1,3.3,-7.77,-27.38,0,1,1,100.0,10.599719209920229,10.65,-0.050280790079771265
7,76.0,1,20.0,0.0,1,6,11.002000000000002,-0.19332000000000005,-0.8479999999999982,4.7227200000000025,37.0,25.3504,0,19.0,1641.0,140.0,-2.4151999999999956,0.037199999999999935,-0.8835999999999999,-0.10640000000000004,4.042400000000004,-3.481999999999977,-33.52400000000003,0,1,1,100.0,11.076420095469077,11.002000000000002,0.07442009546907435
7,77.0,1,20.0,0.0,1,6,11.326,-0.20052,-0.5892799999999997,5.205560000000001,37.0,25.2804,0,19.0,1641.0,140.0,-1.3771999999999978,0.021599999999999963,-0.8828,-0.11280000000000001,4.740000000000001,0.5484000000000067,-39.351600000000005,0,1,1,100.0,11.488949707963268,11.326,0.1629497079632678
7,78.0,1,20.0,0.0,1,6,11.614000000000003,-0.20628000000000002,-0.42991999999999886,5.590840000000003,37.0,25.2356,0,19.0,1641.0,140.0,-0.09079999999999096,0.002399999999999862,-0.8892000000000001,-0.11920000000000004,5.380000000000004,4.247600000000027,-44.77240000000004,0,1,1,100.0,11.818973397958622,11.614000000000003,0.20497339795861969
7,79.0,1,20.0,0.0,1,6,11.834800000000001,-0.20980000000000001,-0.21847999999999923,5.941960000000001,37.0,25.168400000000002,0,19.0,1641.0,140.0,1.520400000000006,-0.02240000000000009,-0.89,-0.12560000000000002,5.880000000000002,7.11240000000001,-49.487600000000015,0,1,1,100.0,12.020654541844673,11.834800000000001,0.18585454184467132
7,80.0,1,20.0,0.0,1,6,12.001000000000001,-0.21209999999999998,-0.06770000000000001,6.2253,37.0,25.113,0,19.0,1641.0,140.0,2.9610000000000003,-0.045,-0.891,-0.132,6.236,9.262,-53.224,0,1,1,100.0,12.15243483472476,12.001000000000001,0.15143483472475872
7,81.0,1,20.0,0.0,1,6,12.0682,-0.21242,-0.06674000000000001,6.370259999999999,37.0,25.090600000000002,0,19.0,1641.0,140.0,3.924199999999997,-0.06099999999999994,-0.8942,-0.13839999999999997,6.3191999999999995,10.100399999999997,-55.02879999999999,0,1,1,100.0,12.170769484168947,12.0682,0.10256948416894751
7,82.0,1,20.0,0.0,1,6,12.1354,-0.21273999999999998,-0.06577999999999999,6.515220000000001,37.0,25.0682,0,19.0,1641.0,140.0,4.88740000000001,-0.07700000000000017,-0.8974000000000001,-0.14480000000000007,6.402400000000001,10.938800000000008,-56.83360000000002,0,1,1,100.0,12.189104133613132,12.1354,0.05370413361313098
7,83.0,1,20.0,0.0,1,6,12.262799999999999,-0.21227999999999997,0.17152000000000214,7.073040000000004,37.0,24.9548,0,19.0,1641.0,140.0,9.124400000000012,-0.14600000000000024,-0.9224000000000001,-0.16,5.989599999999998,12.954000000000004,-62.288000000000004,0,1,1,100.0,12.162748075037113,12.262799999999999,-0.10005192496288551
7,84.0,1,20.0,0.0,1,6,12.224400000000001,-0.20844,0.47296000000000105,7.627920000000002,37.0,24.8204,0,19.0,1641.0,140.0,10.961200000000007,-0.17800000000000013,-0.9352,-0.16,5.560799999999999,13.562000000000001,-63.184000000000005,0,1,1,100.0,11.942732281706878,12.224400000000001,-0.2816677182931233
7,85.0,1,20.0,0.0,1,6,12.138,-0.2062,0.3848,7.7144,37.0,24.798,0,19.0,1641.0,140.0,12.578000000000001,-0.21,-0.948,-0.16,5.172000000000001,14.43,-63.008,0,1,1,100.0,11.814389735597574,12.138,-0.3236102644024257
7,86.0,1,20.0,0.0,3,7,12.0176,-0.2048,0.09563999999999928,7.553639999999999,37.0,24.8344,0,19.0,1641.0,140.0,14.037599999999998,-0.2415999999999999,-0.9611999999999999,-0.15920000000000004,4.815200000000001,15.498799999999994,-62.08680000000001,0,1,1,100.0,11.73417564427926,12.0176,-0.2834243557207401
7,87.0,1,20.0,0.0,3,7,11.819199999999999,-0.20159999999999997,0.2978800000000022,7.899880000000004,37.0,24.744799999999998,0,19.0,1641.0,140.0,15.119200000000012,-0.26720000000000027,-0.9804000000000002,-0.14639999999999986,4.578399999999998,17.239600000000017,-59.635599999999975,0,1,1,100.0,11.550829149837394,11.819199999999999,-0.2683708501626043
7,88.0,1,20.0,0.0,3,7,11.588799999999999,-0.19711999999999996,0.4924400000000013,8.307240000000004,37.0,24.623199999999997,0,19.0,1641.0,140.0,16.015200000000004,-0.2864000000000001,-0.9964000000000001,-0.1335999999999999,4.402399999999999,19.274800000000017,-56.49959999999997,0,1,1,100.0,11.294144057618785,11.588799999999999,-0.2946559423812136
7,89.0,1,20.0,0.0,3,7,11.3264,-0.19135999999999997,0.6793200000000006,8.775720000000002,37.0,24.4696,0,19.0,1641.0,140.0,16.725600000000004,-0.2992,-1.0092,-0.12079999999999995,4.2871999999999995,21.60440000000001,-52.67879999999998,0,1,1,100.0,10.964120367623432,11.3264,-0.362279632376568
7,90.0,1,20.0,0.0,3,7,11.157,-0.1874,0.6772,8.8902,37.0,24.46,0,19.0,1641.0,140.0,16.971,-0.306,-1.016,-0.111,4.238,22.965,-50.172,0,1,1,100.0,10.737229080751629,11.157,-0.4197709192483714
7,91.0,1,20.0,0.0,3,7,10.993800000000002,-0.18356,0.6624800000000001,8.98108,37.0,24.46,0,19.0,1641.0,140.0,17.1854,-0.31239999999999996,-1.0224,-0.10140000000000003,4.1932,24.260999999999996,-47.75280000000001,0,1,1,100.0,10.517213287421391,10.993800000000002,-0.4765867125786105
7,92.0,1,20.0,0.0,3,7,10.830599999999999,-0.17971999999999996,0.6477599999999999,9.07196,37.0,24.46,0,19.0,1641.0,140.0,17.399800000000003,-0.3188000000000001,-1.0288000000000002,-0.0917999999999999,4.1484,25.557000000000013,-45.333599999999976,0,1,1,100.0,10.297197494091153,10.830599999999999,-0.5334025059088461
7,93.0,1,20.0,0.0,3,7,10.493199999999998,-0.17067999999999992,0.9460800000000026,9.280880000000002,37.0,24.46,0,19.0,1641.0,140.0,17.627200000000002,-0.32520000000000004,-1.0352000000000001,-0.07959999999999991,4.020399999999999,27.73440000000002,-40.48599999999996,0,1,1,100.0,9.779243647292885,10.493199999999998,-0.7139563527071129
7,94.0,1,20.0,0.0,3,7,9.4628,-0.13979999999999995,1.4426399999999993,8.625999999999998,37.0,24.6812,0,19.0,1641.0,140.0,17.8872,-0.34,-1.0516,-0.04679999999999996,3.3479999999999985,32.3744,-26.41399999999998,0,1,1,100.0,8.009949975928906,9.4628,-1.4528500240710933
7,95.0,1,20.0,0.0,3,7,9.034,-0.127,1.2531999999999999,8.066,37.0,24.886,0,19.0,1641.0,140.0,17.836,-0.34,-1.058,-0.034,2.9,33.232,-21.07,0,1,1,100.0,7.276563998161455,9.034,-1.7574360018385455
7,96.0,1,20.0,0.0,3,7,8.600799999999994,-0.11463999999999983,1.1266799999999986,7.059839999999983,37.0,25.104000000000003,0,19.0,1641.0,140.0,17.7276,-0.34,-1.0644000000000002,-0.025599999999999908,2.368399999999992,33.5,-16.06039999999993,0,1,1,100.0,6.568388163379748,8.600799999999994,-2.0324118366202466
