t_ms,segment_id,packet_type,source_mode,frame_fid,note,walk_fid,walk_dt_ms,walk_exec_ms,walk_out,walk_state,walk_tilt_forward_deg,walk_pos_rad,walk_vel_rad_s,walk_tq_nm,walk_temp_c,walk_vbus_v,walk_err_code,walk_fb_age_ms,walk_typical_stride_ms,walk_effective_step_count,walk_tilt_accel_deg,walk_acc_x,walk_acc_y,walk_acc_z,walk_gyr_x,walk_gyr_y,walk_gyr_z,cfg_fid,cfg_robot_id,cfg_ble_target,cfg_gait_model,cfg_gait_mode,cfg_side_is_left,cfg_assist_pct
20,1,walk,walk,2804,,2804.0,20.0,0.0,0.0,1.0,2.49,0.135,0.882,0.0,28.0,25.97,0.0,2.0,1283.0,18.0,3.43,-0.06,-1.07,-0.09,4.77,-25.69,8.45,228.0,,,0.0,1.0,1.0,100.0
40,1,walk,walk,2805,,2805.0,20.0,0.0,0.0,1.0,2.39,0.144,0.249,0.0,28.0,25.97,0.0,2.0,1283.0,18.0,4.06,-0.08,-1.07,-0.11,1.36,-37.67,8.19,228.0,,,0.0,1.0,1.0,100.0
60,1,walk,walk,2806,,2806.0,20.0,0.0,0.0,1.0,2.32,0.143,0.032,0.0,28.0,25.97,0.0,2.0,1283.0,18.0,4.83,-0.09,-1.08,-0.14,-2.52,-51.74,7.81,228.0,,,0.0,1.0,1.0,100.0
120,1,walk,walk,2807,,2807.0,20.0,0.0,0.0,1.0,2.28,0.137,-0.636,0.0,28.0,25.97,0.0,2.0,1283.0,18.0,5.67,-0.11,-1.08,-0.15,-6.63,-66.89,7.58,228.0,,,0.0,1.0,1.0,100.0
120,1,walk,walk,2808,,2808.0,20.0,0.0,0.0,1.0,2.27,0.125,-0.762,0.0,28.0,25.97,0.0,2.0,1283.0,18.0,6.45,-0.12,-1.09,-0.16,-10.74,-81.72,7.78,228.0,,,0.0,1.0,1.0,100.0
120,1,walk,walk,2809,,2809.0,20.0,0.0,0.0,1.0,2.28,0.12,-0.232,0.0,28.0,25.97,0.0,2.0,1283.0,18.0,7.09,-0.14,-1.09,-0.16,-14.7,-94.77,8.52,228.0,,,0.0,1.0,1.0,100.0
140,1,walk,walk,2810,,2810.0,20.0,0.0,0.0,1.0,2.33,0.114,-0.64,0.0,28.0,25.97,0.0,2.0,1283.0,18.0,7.54,-0.14,-1.09,-0.16,-18.38,-104.9,9.83,228.0,,,0.0,1.0,1.0,100.0
160,1,walk,walk,2811,,2811.0,20.0,0.0,0.0,1.0,2.4,0.101,-0.882,0.0,28.0,25.97,0.0,2.0,1283.0,18.0,7.86,-0.15,-1.09,-0.14,-21.7,-111.64,11.68,228.0,,,0.0,1.0,1.0,100.0
180,1,walk,walk,2812,,2812.0,20.0,0.0,0.0,1.0,2.49,0.091,-0.421,0.0,28.0,25.97,0.0,2.0,1283.0,18.0,8.11,-0.15,-1.09,-0.12,-24.58,-115.21,13.86,228.0,,,0.0,1.0,1.0,100.0
200,1,walk,walk,2813,,2813.0,20.0,0.0,0.0,1.0,2.6,0.082,-1.04,0.0,28.0,25.97,0.0,2.0,1283.0,18.0,8.37,-0.16,-1.08,-0.09,-26.96,-116.33,16.08,228.0,,,0.0,1.0,1.0,100.0
220,1,walk,walk,2814,,2814.0,20.0,0.0,0.0,1.0,2.74,0.068,-0.789,0.0,28.0,25.97,0.0,2.0,1283.0,18.0,8.7,-0.16,-1.07,-0.07,-28.76,-116.01,18.03,228.0,,,0.0,1.0,1.0,100.0
240,1,walk,walk,2815,,2815.0,20.0,0.0,0.0,1.0,2.91,0.059,-0.614,0.0,28.0,25.97,0.0,2.0,1283.0,18.0,9.12,-0.17,-1.05,-0.04,-29.97,-115.15,19.42,228.0,,,0.0,1.0,1.0,100.0
280,1,walk,walk,2816,,2816.0,20.0,0.0,0.0,1.0,3.1,0.049,-0.614,0.0,28.0,25.97,0.0,2.0,1283.0,18.0,9.58,-0.18,-1.04,-0.02,-30.59,-114.36,20.01,228.0,,,0.0,1.0,1.0,100.0
280,1,walk,walk,2817,,2817.0,20.0,0.0,0.0,1.0,3.31,0.042,-0.214,0.0,28.0,25.97,0.0,2.0,1283.0,18.0,10.03,-0.18,-1.02,-0.01,-30.69,-113.91,19.67,228.0,,,0.0,1.0,1.0,100.0
320,1,walk,walk,2818,,2818.0,20.0,0.0,0.0,1.0,3.55,0.042,-0.013,0.0,28.0,25.97,0.0,2.0,1283.0,18.0,10.39,-0.18,-1.0,0.01,-30.38,-113.69,18.36,228.0,,,0.0,1.0,1.0,100.0
320,1,walk,walk,2819,,2819.0,20.0,0.0,0.0,1.0,3.81,0.042,0.052,0.0,28.0,25.97,0.0,2.0,1283.0,18.0,10.63,-0.18,-0.98,0.02,-29.74,-113.43,16.16,228.0,,,0.0,1.0,1.0,100.0
340,1,walk,walk,2820,,2820.0,20.0,0.0,0.0,1.0,4.1,0.042,0.171,0.0,28.0,25.97,0.0,2.0,1283.0,18.0,10.76,-0.18,-0.96,0.02,-28.84,-112.9,13.19,228.0,,,0.0,1.0,1.0,100.0
360,1,walk,walk,2821,,2821.0,20.0,0.0,0.0,1.0,4.4,0.043,0.049,0.0,28.0,25.97,0.0,2.0,1283.0,18.0,10.79,-0.18,-0.94,0.03,-27.74,-112.01,9.63,228.0,,,0.0,1.0,1.0,100.0
380,1,walk,walk,2822,,2822.0,20.0,0.0,0.0,1.0,4.71,0.044,0.123,0.0,28.0,25.97,0.0,2.0,1283.0,18.0,10.8,-0.18,-0.92,0.03,-26.47,-110.85,5.59,228.0,,,0.0,1.0,1.0,100.0
420,1,walk,walk,2823,,2823.0,20.0,0.0,0.0,1.0,5.04,0.045,0.144,0.0,28.0,25.97,0.0,2.0,1283.0,18.0,10.83,-0.17,-0.9,0.02,-25.07,-109.56,1.22,228.0,,,0.0,1.0,1.0,100.0
440,1,walk,walk,2824,,2824.0,20.0,1.0,0.0,1.0,5.36,0.048,0.279,0.0,28.0,25.97,0.0,3.0,1283.0,18.0,10.91,-0.17,-0.89,0.01,-23.58,-108.31,-3.37,228.0,,,0.0,1.0,1.0,100.0
440,1,walk,walk,2825,,2825.0,20.0,1.0,0.0,1.0,5.68,0.052,0.381,0.0,28.0,25.97,0.0,3.0,1283.0,18.0,11.07,-0.17,-0.88,0.0,-22.06,-107.21,-8.06,228.0,,,0.0,1.0,1.0,100.0
460,1,walk,walk,2826,,2826.0,20.0,1.0,0.0,1.0,5.98,0.06,0.739,0.0,28.0,25.97,0.0,3.0,1283.0,18.0,11.28,-0.17,-0.87,-0.01,-20.54,-106.33,-12.75,228.0,,,0.0,1.0,1.0,100.0
480,1,walk,walk,2827,,2827.0,20.0,1.0,0.0,1.0,6.26,0.078,1.455,0.0,28.0,25.97,0.0,3.0,1283.0,18.0,11.54,-0.18,-0.87,-0.02,-19.06,-105.71,-17.33,228.0,,,0.0,1.0,1.0,100.0
520,1,walk,walk,2828,,2828.0,20.0,1.0,0.0,1.0,6.51,0.1,1.745,0.0,28.0,25.97,0.0,3.0,1283.0,18.0,11.79,-0.18,-0.87,-0.04,-17.64,-105.36,-21.75,228.0,,,0.0,1.0,1.0,100.0
520,1,walk,walk,2829,,2829.0,20.0,1.0,0.0,1.0,6.73,0.123,1.535,0.0,28.0,25.97,0.0,3.0,1283.0,18.0,12.04,-0.18,-0.86,-0.06,-16.29,-105.26,-25.97,228.0,,,0.0,1.0,1.0,100.0
540,1,walk,walk,2830,,2830.0,20.0,1.0,0.0,1.0,6.9,0.133,-1.296,0.0,28.0,25.97,0.0,3.0,1283.0,18.0,12.19,-0.19,-0.86,-0.08,-15.02,-105.38,-29.98,228.0,,,0.0,1.0,1.0,100.0
600,1,walk,walk,2831,,2831.0,20.0,1.0,0.0,1.0,7.02,0.12,-0.075,0.0,28.0,25.97,0.0,3.0,1283.0,18.0,12.05,-0.18,-0.87,-0.09,-13.88,-104.81,-33.83,228.0,,,0.0,1.0,1.0,100.0
600,1,walk,walk,2832,,2832.0,20.0,1.0,0.0,1.0,7.09,0.098,-1.811,0.0,28.0,25.97,0.0,3.0,1283.0,18.0,11.47,-0.18,-0.87,-0.11,-12.85,-102.96,-37.51,228.0,,,0.0,1.0,1.0,100.0
600,1,walk,walk,2833,,2833.0,20.0,1.0,0.0,1.0,7.11,0.076,-1.158,0.0,28.0,25.97,0.0,3.0,1283.0,18.0,10.43,-0.16,-0.88,-0.13,-11.89,-99.65,-40.76,228.0,,,0.0,1.0,1.0,100.0
640,1,walk,walk,2834,,2834.0,20.0,1.0,0.0,1.0,7.06,0.073,0.077,0.0,28.0,25.97,0.0,3.0,1283.0,18.0,8.97,-0.14,-0.9,-0.15,-10.83,-95.13,-43.39,228.0,,,0.0,1.0,1.0,100.0
640,1,walk,walk,2835,,2835.0,20.0,2.0,0.0,1.0,6.95,0.074,0.3,0.0,28.0,25.97,0.0,4.0,1283.0,18.0,7.16,-0.12,-0.92,-0.17,-9.51,-89.76,-45.37,228.0,,,0.0,1.0,1.0,100.0
660,1,walk,walk,2836,,2836.0,20.0,1.0,0.0,1.0,6.78,0.078,-0.111,0.0,28.0,25.97,0.0,3.0,1283.0,18.0,5.15,-0.09,-0.95,-0.18,-7.79,-83.79,-46.62,228.0,,,0.0,1.0,1.0,100.0
680,1,walk,walk,2837,,2837.0,20.0,2.0,0.0,1.0,6.54,0.078,0.053,0.0,28.0,25.97,0.0,4.0,1283.0,18.0,3.13,-0.05,-0.98,-0.19,-5.7,-77.35,-46.95,228.0,,,0.0,1.0,1.0,100.0
700,1,walk,walk,2838,,2838.0,20.0,0.0,0.0,1.0,6.24,0.076,-0.093,0.0,28.0,25.97,0.0,2.0,1283.0,18.0,1.27,-0.02,-1.01,-0.19,-3.49,-70.6,-46.28,228.0,,,0.0,1.0,1.0,100.0
720,1,walk,walk,2839,,2839.0,20.0,0.0,0.0,1.0,5.87,0.075,-0.151,0.0,28.0,25.97,0.0,2.0,1283.0,18.0,-0.32,0.01,-1.03,-0.18,-1.45,-63.73,-44.65,228.0,,,0.0,1.0,1.0,100.0
760,1,walk,walk,2840,,2840.0,20.0,1.0,0.0,1.0,5.44,0.072,-0.264,0.0,28.0,25.97,0.0,3.0,1283.0,18.0,-1.59,0.03,-1.05,-0.16,0.2,-56.93,-42.16,228.0,,,0.0,1.0,1.0,100.0
780,1,walk,walk,2841,,2841.0,20.0,0.0,0.0,1.0,4.96,0.069,-0.202,0.0,28.0,25.97,0.0,2.0,1283.0,18.0,-2.55,0.05,-1.07,-0.14,1.34,-50.37,-38.97,228.0,,,0.0,1.0,1.0,100.0
780,1,walk,walk,2842,,2842.0,20.0,0.0,0.0,1.0,4.42,0.065,-0.335,0.0,28.0,25.97,0.0,2.0,1283.0,18.0,-3.21,0.06,-1.08,-0.13,1.97,-44.16,-35.29,228.0,,,0.0,1.0,1.0,100.0
800,1,walk,walk,2843,,2843.0,20.0,0.0,0.0,1.0,3.85,0.06,-0.346,0.0,28.0,25.97,0.0,2.0,1283.0,18.0,-3.6,0.07,-1.08,-0.11,2.2,-38.38,-31.31,228.0,,,0.0,1.0,1.0,100.0
820,1,walk,walk,2844,,2844.0,20.0,0.0,0.0,1.0,3.23,0.055,-0.347,0.0,28.0,25.97,0.0,2.0,1283.0,18.0,-3.77,0.07,-1.08,-0.1,2.2,-33.08,-27.22,228.0,,,0.0,1.0,1.0,100.0
840,1,walk,walk,2845,,2845.0,20.0,0.0,0.0,1.0,2.59,0.052,-0.132,0.0,28.0,25.97,0.0,2.0,1283.0,18.0,-3.75,0.07,-1.08,-0.09,2.08,-28.29,-23.19,228.0,,,0.0,1.0,1.0,100.0
860,1,walk,walk,2846,,2846.0,20.0,0.0,0.0,1.0,1.94,0.049,-0.206,0.0,28.0,25.97,0.0,2.0,1283.0,18.0,-3.59,0.07,-1.08,-0.08,1.93,-24.03,-19.37,228.0,,,0.0,1.0,1.0,100.0
900,1,walk,walk,2847,,2847.0,20.0,1.0,0.0,1.0,1.28,0.048,-0.097,0.0,28.0,25.97,0.0,3.0,1283.0,18.0,-3.31,0.06,-1.08,-0.07,1.8,-20.27,-15.89,228.0,,,0.0,1.0,1.0,100.0
920,1,walk,walk,2848,,2848.0,20.0,1.0,0.0,1.0,0.62,0.047,-0.075,0.0,28.0,25.97,0.0,3.0,1283.0,18.0,-2.96,0.06,-1.07,-0.07,1.67,-17.01,-12.85,228.0,,,0.0,1.0,1.0,100.0
920,1,walk,walk,2849,,2849.0,20.0,1.0,0.0,1.0,-0.02,0.047,-0.056,0.0,28.0,25.97,0.0,3.0,1283.0,18.0,-2.57,0.05,-1.06,-0.07,1.55,-14.22,-10.34,228.0,,,0.0,1.0,1.0,100.0
960,1,walk,walk,2850,,2850.0,20.0,1.0,0.0,1.0,-0.63,0.047,-0.005,0.0,28.0,25.97,0.0,3.0,1283.0,18.0,-2.16,0.04,-1.06,-0.06,1.41,-11.86,-8.38,228.0,,,0.0,1.0,1.0,100.0
960,1,walk,walk,2851,,2851.0,20.0,1.0,0.0,1.0,-1.22,0.047,0.017,0.0,28.0,25.97,0.0,3.0,1283.0,18.0,-1.76,0.03,-1.05,-0.06,1.26,-9.83,-6.95,228.0,,,0.0,1.0,1.0,100.0
980,1,walk,walk,2852,,2852.0,20.0,1.0,0.0,1.0,-1.77,0.047,-0.036,0.0,28.0,25.97,0.0,3.0,1283.0,18.0,-1.41,0.03,-1.05,-0.06,1.1,-8.1,-6.02,228.0,,,0.0,1.0,1.0,100.0
1000,1,walk,walk,2853,,2853.0,20.0,1.0,0.0,1.0,-2.28,0.047,0.022,0.0,28.0,25.97,0.0,3.0,1283.0,18.0,-1.11,0.02,-1.04,-0.06,0.91,-6.61,-5.48,228.0,,,0.0,1.0,1.0,100.0
1020,1,walk,walk,2854,,2854.0,20.0,1.0,0.0,1.0,-2.74,0.047,0.131,0.0,28.0,25.97,0.0,3.0,1283.0,18.0,-0.87,0.02,-1.04,-0.05,0.71,-5.36,-5.26,228.0,,,0.0,1.0,1.0,100.0
1080,1,walk,walk,2855,,2855.0,20.0,1.0,0.0,1.0,-3.17,0.048,0.025,0.0,28.0,25.97,0.0,3.0,1283.0,18.0,-0.71,0.01,-1.04,-0.05,0.52,-4.3,-5.26,228.0,,,0.0,1.0,1.0,100.0
1080,1,walk,walk,2856,,2856.0,20.0,1.0,0.0,1.0,-3.54,0.049,0.064,0.0,28.0,25.97,0.0,3.0,1283.0,18.0,-0.61,0.01,-1.03,-0.05,0.37,-3.4,-5.37,228.0,,,0.0,1.0,1.0,100.0
1080,1,walk,walk,2857,,2857.0,20.0,1.0,0.0,1.0,-3.87,0.051,0.061,0.0,28.0,25.97,0.0,3.0,1283.0,18.0,-0.57,0.01,-1.03,-0.05,0.29,-2.63,-5.54,228.0,,,0.0,1.0,1.0,100.0
1100,1,walk,walk,2858,,2858.0,20.0,1.0,0.0,1.0,-4.17,0.053,0.101,0.0,28.0,25.97,0.0,3.0,1283.0,18.0,-0.57,0.01,-1.03,-0.05,0.3,-1.97,-5.72,228.0,,,0.0,1.0,1.0,100.0
1120,1,walk,walk,2859,,2859.0,20.0,1.0,0.0,1.0,-4.42,0.054,0.117,0.0,28.0,25.97,0.0,3.0,1283.0,18.0,-0.61,0.01,-1.03,-0.05,0.42,-1.42,-5.87,228.0,,,0.0,1.0,1.0,100.0
1140,1,walk,walk,2860,,2860.0,20.0,1.0,0.0,1.0,-4.64,0.056,0.002,0.0,28.0,25.97,0.0,3.0,1283.0,18.0,-0.68,0.01,-1.03,-0.05,0.64,-0.95,-5.98,228.0,,,0.0,1.0,1.0,100.0
1160,1,walk,walk,2861,,2861.0,20.0,1.0,0.0,1.0,-4.82,0.056,-0.053,0.0,28.0,25.97,0.0,3.0,1283.0,18.0,-0.76,0.01,-1.03,-0.06,0.97,-0.56,-6.01,228.0,,,0.0,1.0,1.0,100.0
1180,1,walk,walk,2862,,2862.0,20.0,1.0,0.0,1.0,-4.99,0.056,0.011,0.0,28.0,25.97,0.0,3.0,1283.0,18.0,-0.88,0.02,-1.03,-0.06,1.39,-0.22,-5.9,228.0,,,0.0,1.0,1.0,100.0
1200,1,walk,walk,2863,,2863.0,20.0,1.0,0.0,1.0,-5.12,0.056,0.033,0.0,28.0,25.97,0.0,3.0,1283.0,18.0,-1.02,0.02,-1.03,-0.06,1.89,0.08,-5.63,228.0,,,0.0,1.0,1.0,100.0
1240,1,walk,walk,2864,,2864.0,20.0,1.0,0.0,1.0,-5.24,0.056,-0.064,0.0,28.0,25.97,0.0,3.0,1283.0,18.0,-1.17,0.02,-1.03,-0.06,2.46,0.36,-5.19,228.0,,,0.0,1.0,1.0,100.0
1240,1,walk,walk,2865,,2865.0,20.0,1.0,0.0,1.0,-5.33,0.056,-0.054,0.0,28.0,25.97,0.0,3.0,1283.0,18.0,-1.32,0.02,-1.03,-0.06,3.1,0.64,-4.57,228.0,,,0.0,1.0,1.0,100.0
1280,1,walk,walk,2866,,2866.0,20.0,1.0,0.0,1.0,-5.42,0.057,0.054,0.0,28.0,25.93,0.0,3.0,1283.0,18.0,-1.46,0.03,-1.03,-0.06,3.81,0.93,-3.81,228.0,,,0.0,1.0,1.0,100.0
1300,1,walk,walk,2867,,2867.0,20.0,1.0,0.0,1.0,-5.49,0.059,0.112,0.0,28.0,25.97,0.0,3.0,1283.0,18.0,-1.6,0.03,-1.03,-0.06,4.58,1.22,-2.91,228.0,,,0.0,1.0,1.0,100.0
1300,1,walk,walk,2868,,2868.0,20.0,0.0,0.0,1.0,-5.54,0.06,-0.049,0.0,28.0,25.97,0.0,2.0,1283.0,18.0,-1.72,0.03,-1.04,-0.06,5.41,1.53,-1.89,228.0,,,0.0,1.0,1.0,100.0
1340,1,walk,walk,2869,,2869.0,20.0,0.0,0.0,1.0,-5.59,0.061,-0.021,0.0,28.0,25.97,0.0,2.0,1283.0,18.0,-1.82,0.03,-1.04,-0.06,6.25,1.8,-0.78,228.0,,,0.0,1.0,1.0,100.0
1360,1,walk,walk,2870,,2870.0,20.0,0.0,0.0,1.0,-5.63,0.063,0.197,0.0,28.0,25.97,0.0,2.0,1283.0,18.0,-1.89,0.03,-1.04,-0.05,7.06,1.97,0.44,228.0,,,0.0,1.0,1.0,100.0
1400,1,walk,walk,2871,,2871.0,20.0,0.0,0.0,1.0,-5.65,0.069,0.685,0.0,28.0,25.97,0.0,2.0,1283.0,18.0,-1.92,0.03,-1.04,-0.05,7.66,1.82,1.74,228.0,,,0.0,1.0,1.0,100.0
1400,1,walk,walk,2872,,2872.0,20.0,0.0,0.0,1.0,-5.67,0.083,1.113,0.0,28.0,25.97,0.0,2.0,1283.0,18.0,-1.91,0.03,-1.04,-0.06,7.92,1.02,3.05,228.0,,,0.0,1.0,1.0,100.0
1400,1,walk,walk,2873,,2873.0,20.0,0.0,0.0,1.0,-5.67,0.101,1.259,0.0,28.0,25.97,0.0,2.0,1283.0,18.0,-1.87,0.03,-1.05,-0.06,7.72,-0.73,4.3,228.0,,,0.0,1.0,1.0,100.0
1440,1,walk,walk,2874,,2874.0,20.0,0.0,0.0,1.0,-5.67,0.114,0.826,0.0,28.0,25.97,0.0,2.0,1283.0,18.0,-1.79,0.03,-1.05,-0.06,7.01,-3.62,5.48,228.0,,,0.0,1.0,1.0,100.0
1440,1,walk,walk,2875,,2875.0,20.0,0.0,0.0,1.0,-5.65,0.126,0.457,0.0,28.0,25.97,0.0,2.0,1283.0,18.0,-1.62,0.03,-1.06,-0.07,5.8,-7.73,6.61,228.0,,,0.0,1.0,1.0,100.0
1460,1,walk,walk,2876,,2876.0,20.0,0.0,0.0,1.0,-5.61,0.126,0.04,0.0,28.0,25.97,0.0,2.0,1283.0,18.0,-1.29,0.02,-1.07,-0.07,4.19,-13.0,7.84,228.0,,,0.0,1.0,1.0,100.0
1480,1,walk,walk,2877,,2877.0,20.0,0.0,0.0,1.0,-5.56,0.125,-0.158,0.0,28.0,25.97,0.0,2.0,1283.0,18.0,-0.8,0.02,-1.08,-0.08,2.29,-19.17,9.29,228.0,,,0.0,1.0,1.0,100.0
1520,1,walk,walk,2878,,2878.0,20.0,0.0,0.0,1.0,-5.5,0.121,-0.328,0.0,28.0,25.97,0.0,2.0,1283.0,18.0,-0.19,0.0,-1.09,-0.08,0.26,-25.86,11.09,228.0,,,0.0,1.0,1.0,100.0
1560,1,walk,walk,2879,,2879.0,20.0,0.0,0.0,1.0,-5.42,0.115,-0.661,0.0,28.0,25.97,0.0,2.0,1283.0,18.0,0.46,-0.01,-1.1,-0.07,-1.77,-32.53,13.27,228.0,,,0.0,1.0,1.0,100.0
1560,1,walk,walk,2880,,2880.0,20.0,0.0,0.0,1.0,-5.32,0.103,-0.817,0.0,28.0,25.97,0.0,2.0,1283.0,18.0,1.08,-0.02,-1.11,-0.07,-3.73,-38.61,15.84,228.0,,,0.0,1.0,1.0,100.0
1580,1,walk,walk,2881,,2881.0,20.0,0.0,0.0,1.0,-5.2,0.096,-0.304,0.0,28.0,25.97,0.0,2.0,1283.0,18.0,1.61,-0.03,-1.12,-0.06,-5.55,-43.67,18.66,228.0,,,0.0,1.0,1.0,100.0
1580,1,walk,walk,2882,,2882.0,20.0,0.0,0.0,1.0,-5.05,0.091,-0.433,0.0,28.0,25.97,0.0,2.0,1283.0,18.0,2.02,-0.04,-1.12,-0.05,-7.15,-47.49,21.49,228.0,,,0.0,1.0,1.0,100.0
1600,1,walk,walk,2883,,2883.0,20.0,0.0,0.0,1.0,-4.88,0.078,-1.096,0.0,28.0,25.97,0.0,2.0,1283.0,18.0,2.32,-0.05,-1.12,-0.03,-8.5,-50.06,24.06,228.0,,,0.0,1.0,1.0,100.0
1620,1,walk,walk,2884,,2884.0,20.0,0.0,0.0,1.0,-4.68,0.067,-0.413,0.0,28.0,25.97,0.0,2.0,1283.0,18.0,2.52,-0.05,-1.11,-0.02,-9.55,-51.63,26.08,228.0,,,0.0,1.0,1.0,100.0
1640,1,walk,walk,2885,,2885.0,20.0,0.0,0.0,1.0,-4.44,0.062,-0.303,0.0,28.0,25.97,0.0,2.0,1283.0,18.0,2.65,-0.05,-1.1,-0.01,-10.28,-52.53,27.25,228.0,,,0.0,1.0,1.0,100.0
1680,1,walk,walk,2886,,2886.0,20.0,0.0,0.0,1.0,-4.18,0.055,-0.578,0.0,28.0,25.97,0.0,2.0,1283.0,18.0,2.73,-0.05,-1.08,0.0,-10.65,-53.06,27.34,228.0,,,0.0,1.0,1.0,100.0
1700,1,walk,walk,2887,,2887.0,20.0,0.0,6.0,2.0,-3.88,0.049,-0.144,0.0,28.0,25.97,0.0,2.0,1283.0,18.0,2.78,-0.05,-1.06,0.01,-10.67,-53.37,26.3,228.0,,,0.0,1.0,1.0,100.0
1700,1,walk,walk,2888,,2888.0,20.0,0.0,6.0,2.0,-3.55,0.049,-0.123,0.008,28.0,25.93,0.0,18.0,1283.0,18.0,2.84,-0.05,-1.04,0.02,-10.37,-53.45,24.19,228.0,,,0.0,1.0,1.0,100.0
1760,1,walk,walk,2889,,2889.0,20.0,0.0,6.0,2.0,-3.2,0.036,-1.001,-0.546,28.0,25.93,0.0,18.0,1283.0,18.0,2.97,-0.05,-1.01,0.03,-9.77,-53.15,21.3,228.0,,,0.0,1.0,1.0,100.0
1760,1,walk,walk,2890,,2890.0,20.0,0.0,6.0,2.0,-2.81,0.023,-0.586,-0.823,28.0,25.93,0.0,18.0,1283.0,18.0,3.22,-0.06,-0.99,0.03,-8.94,-52.38,17.9,228.0,,,0.0,1.0,1.0,100.0
1760,1,walk,walk,2891,,2891.0,20.0,0.0,6.0,2.0,-2.41,0.019,-0.146,-1.128,28.0,25.93,0.0,18.0,1283.0,18.0,3.64,-0.06,-0.97,0.03,-7.94,-51.15,14.24,228.0,,,0.0,1.0,1.0,100.0
1780,1,walk,walk,2892,,2892.0,20.0,1.0,6.0,2.0,-1.99,0.018,0.017,-1.187,28.0,25.93,0.0,19.0,1283.0,18.0,4.27,-0.07,-0.95,0.02,-6.83,-49.57,10.51,228.0,,,0.0,1.0,1.0,100.0
1800,1,walk,walk,2893,,2893.0,20.0,1.0,6.0,2.0,-1.56,0.018,-0.046,-1.143,28.0,25.93,0.0,19.0,1283.0,18.0,5.1,-0.08,-0.93,0.01,-5.69,-47.85,6.91,228.0,,,0.0,1.0,1.0,100.0
1820,1,walk,walk,2894,,2894.0,20.0,0.0,6.0,2.0,-1.13,0.018,-0.022,-1.156,28.0,25.93,0.0,18.0,1283.0,18.0,6.11,-0.1,-0.91,0.0,-4.57,-46.19,3.54,228.0,,,0.0,1.0,1.0,100.0
1840,1,walk,walk,2895,,2895.0,20.0,1.0,6.0,2.0,-0.71,0.019,0.076,-1.18,28.0,25.9,0.0,19.0,1283.0,18.0,7.23,-0.11,-0.9,-0.01,-3.56,-44.7,0.49,228.0,,,0.0,1.0,1.0,100.0
1860,1,walk,walk,2896,,2896.0,20.0,1.0,6.0,2.0,-0.31,0.019,0.066,-1.252,28.0,25.93,0.0,19.0,1283.0,18.0,8.41,-0.13,-0.88,-0.02,-2.68,-43.45,-2.23,228.0,,,0.0,1.0,1.0,100.0
1920,1,walk,walk,2897,,2897.0,20.0,1.0,6.0,2.0,0.08,0.021,0.193,-1.374,28.0,25.9,0.0,19.0,1283.0,18.0,9.57,-0.15,-0.87,-0.04,-1.96,-42.45,-4.64,228.0,,,0.0,1.0,1.0,100.0
1920,1,walk,walk,2898,,2898.0,20.0,1.0,6.0,2.0,0.45,0.025,0.238,-1.693,28.0,25.9,0.0,19.0,1283.0,18.0,10.67,-0.16,-0.85,-0.05,-1.41,-41.69,-6.83,228.0,,,0.0,1.0,1.0,100.0
1940,1,walk,walk,2899,,2899.0,20.0,1.0,6.0,2.0,0.79,0.03,0.336,-2.0,28.0,25.9,0.0,19.0,1283.0,18.0,11.67,-0.17,-0.83,-0.07,-0.98,-41.15,-8.89,228.0,,,0.0,1.0,1.0,100.0
1960,1,walk,walk,2900,,2900.0,20.0,1.0,6.0,2.0,1.1,0.036,0.433,-2.452,28.0,25.83,0.0,19.0,1283.0,18.0,12.55,-0.18,-0.82,-0.08,-0.66,-40.81,-10.97,228.0,,,0.0,1.0,1.0,100.0
1960,1,walk,walk,2901,,2901.0,20.0,1.0,6.0,2.0,1.38,0.043,0.492,-2.939,28.0,25.79,0.0,19.0,1283.0,18.0,13.26,-0.19,-0.8,-0.09,-0.41,-40.63,-13.16,228.0,,,0.0,1.0,1.0,100.0
1980,1,walk,walk,2902,,2902.0,20.0,1.0,6.0,2.0,1.63,0.041,-0.828,-1.666,28.0,25.86,0.0,19.0,1283.0,18.0,13.47,-0.19,-0.8,-0.1,-0.12,-40.41,-15.82,228.0,,,0.0,1.0,1.0,100.0
2000,1,walk,walk,2903,,2903.0,20.0,1.0,6.0,2.0,1.85,0.039,0.703,-2.988,28.0,25.79,0.0,19.0,1283.0,18.0,12.79,-0.19,-0.82,-0.11,0.49,-39.74,-18.99,228.0,,,0.0,1.0,1.0,100.0
2020,1,walk,walk,2904,,2904.0,20.0,1.0,6.0,2.0,2.03,0.051,0.135,-3.156,28.0,25.76,0.0,19.0,1283.0,18.0,11.27,-0.17,-0.86,-0.11,1.62,-38.42,-22.14,228.0,,,0.0,1.0,1.0,100.0
2040,1,walk,walk,2905,,2905.0,20.0,1.0,6.0,2.0,2.18,0.051,-0.011,-3.091,28.0,25.76,0.0,19.0,1283.0,18.0,9.24,-0.15,-0.9,-0.12,3.16,-36.46,-24.78,228.0,,,0.0,1.0,1.0,100.0
2080,1,walk,walk,2906,,2906.0,20.0,1.0,6.0,2.0,2.29,0.051,-0.048,-3.09,28.0,25.76,0.0,19.0,1283.0,18.0,7.04,-0.12,-0.95,-0.11,4.8,-33.99,-26.53,228.0,,,0.0,1.0,1.0,100.0
2080,1,walk,walk,2907,,2907.0,20.0,1.0,6.0,2.0,2.37,0.049,-0.257,-2.854,28.0,25.79,0.0,19.0,1283.0,18.0,4.94,-0.09,-1.0,-0.1,6.17,-31.19,-27.14,228.0,,,0.0,1.0,1.0,100.0
2100,1,walk,walk,2908,,2908.0,20.0,1.0,6.0,2.0,2.4,0.046,-0.293,-2.552,28.0,25.83,0.0,19.0,1283.0,18.0,3.1,-0.06,-1.04,-0.09,7.06,-28.23,-26.57,228.0,,,0.0,1.0,1.0,100.0
2120,1,walk,walk,2909,,2909.0,20.0,1.0,6.0,2.0,2.38,0.041,-0.283,-2.325,28.0,25.83,0.0,19.0,1283.0,18.0,1.59,-0.03,-1.07,-0.07,7.35,-25.25,-24.94,228.0,,,0.0,1.0,1.0,100.0
2160,1,walk,walk,2910,,2910.0,20.0,1.0,6.0,2.0,2.32,0.038,-0.216,-2.217,28.0,25.83,0.0,19.0,1283.0,18.0,0.42,-0.01,-1.09,-0.06,7.09,-22.37,-22.5,228.0,,,0.0,1.0,1.0,100.0
2180,1,walk,walk,2911,,2911.0,20.0,1.0,6.0,2.0,2.22,0.034,-0.226,-2.038,28.0,25.86,0.0,19.0,1283.0,18.0,-0.41,0.01,-1.11,-0.05,6.42,-19.66,-19.53,228.0,,,0.0,1.0,1.0,100.0
2180,1,walk,walk,2912,,2912.0,20.0,1.0,6.0,2.0,2.07,0.032,-0.182,-1.944,28.0,25.86,0.0,19.0,1283.0,18.0,-0.95,0.02,-1.12,-0.04,5.53,-17.16,-16.36,228.0,,,0.0,1.0,1.0,100.0
2220,1,walk,walk,2913,,2913.0,20.0,1.0,6.0,2.0,1.89,0.031,-0.054,-1.878,28.0,25.86,0.0,19.0,1283.0,18.0,-1.23,0.02,-1.12,-0.03,4.55,-14.89,-13.23,228.0,,,0.0,1.0,1.0,100.0
2240,1,walk,walk,2914,,2914.0,20.0,1.0,6.0,2.0,1.68,0.03,-0.085,-1.801,28.0,25.86,0.0,19.0,1283.0,18.0,-1.33,0.03,-1.12,-0.03,3.58,-12.84,-10.32,228.0,,,0.0,1.0,1.0,100.0
2260,1,walk,walk,2915,,2915.0,20.0,1.0,6.0,2.0,1.45,0.028,-0.115,-1.709,28.0,25.86,0.0,19.0,1283.0,18.0,-1.29,0.02,-1.11,-0.03,2.66,-11.0,-7.73,228.0,,,0.0,1.0,1.0,100.0
2260,1,walk,walk,2916,,2916.0,20.0,1.0,6.0,2.0,1.2,0.027,-0.075,-1.644,28.0,25.9,0.0,19.0,1283.0,18.0,-1.15,0.02,-1.11,-0.02,1.79,-9.37,-5.47,228.0,,,0.0,1.0,1.0,100.0
2280,1,walk,walk,2917,,2917.0,20.0,1.0,6.0,2.0,0.94,0.025,-0.169,-1.514,28.0,25.9,0.0,19.0,1283.0,18.0,-0.95,0.02,-1.1,-0.02,0.98,-7.96,-3.54,228.0,,,0.0,1.0,1.0,100.0
2300,1,walk,walk,2918,,2918.0,20.0,1.0,6.0,2.0,0.68,0.022,-0.236,-1.294,28.0,25.9,0.0,19.0,1283.0,18.0,-0.73,0.01,-1.09,-0.02,0.23,-6.75,-1.86,228.0,,,0.0,1.0,1.0,100.0
2320,1,walk,walk,2919,,2919.0,20.0,1.0,6.0,2.0,0.42,0.019,-0.189,-1.209,28.0,25.9,0.0,19.0,1283.0,18.0,-0.49,0.01,-1.08,-0.02,-0.47,-5.74,-0.35,228.0,,,0.0,1.0,1.0,100.0
2340,1,walk,walk,2920,,2920.0,20.0,1.0,6.0,2.0,0.17,0.015,-0.273,-0.868,28.0,25.93,0.0,19.0,1283.0,18.0,-0.26,0.0,-1.07,-0.02,-1.11,-4.94,1.06,228.0,,,0.0,1.0,1.0,100.0
2400,1,walk,walk,2921,,2921.0,20.0,1.0,6.0,2.0,-0.06,0.01,-0.284,-0.471,28.0,25.93,0.0,19.0,1283.0,18.0,-0.03,0.0,-1.07,-0.03,-1.66,-4.31,2.42,228.0,,,0.0,1.0,1.0,100.0
2400,1,walk,walk,2922,,2922.0,20.0,1.0,6.0,2.0,-0.27,0.005,-0.245,-0.07,28.0,25.93,0.0,19.0,1283.0,18.0,0.19,0.0,-1.06,-0.03,-2.13,-3.87,3.79,228.0,,,0.0,1.0,1.0,100.0
2400,1,walk,walk,2923,,2923.0,20.0,1.0,6.0,2.0,-0.46,0.001,-0.26,0.262,28.0,25.93,0.0,19.0,1283.0,18.0,0.4,-0.01,-1.05,-0.03,-2.5,-3.58,5.18,228.0,,,0.0,1.0,1.0,100.0
2420,1,walk,walk,2924,,2924.0,20.0,1.0,6.0,2.0,-0.63,-0.004,-0.254,0.556,28.0,25.93,0.0,19.0,1283.0,18.0,0.62,-0.01,-1.05,-0.03,-2.78,-3.41,6.53,228.0,,,0.0,1.0,1.0,100.0
2440,1,walk,walk,2925,,2925.0,20.0,1.0,6.0,2.0,-0.76,-0.008,-0.19,0.718,28.0,25.93,0.0,19.0,1283.0,18.0,0.87,-0.02,-1.04,-0.03,-2.97,-3.3,7.79,228.0,,,0.0,1.0,1.0,100.0
2460,1,walk,walk,2926,,2926.0,20.0,1.0,6.0,2.0,-0.87,-0.011,-0.064,0.77,28.0,25.93,0.0,19.0,1283.0,18.0,1.16,-0.02,-1.04,-0.04,-3.09,-3.21,8.83,228.0,,,0.0,1.0,1.0,100.0
2480,1,walk,walk,2927,,2927.0,20.0,2.0,6.0,2.0,-0.95,-0.012,-0.032,0.713,28.0,25.93,0.0,20.0,1283.0,18.0,1.5,-0.03,-1.04,-0.04,-3.14,-3.1,9.5,228.0,,,0.0,1.0,1.0,100.0
2500,1,walk,walk,2928,,2928.0,20.0,2.0,6.0,2.0,-0.99,-0.012,-0.009,0.65,28.0,25.93,0.0,20.0,1283.0,18.0,1.89,-0.03,-1.03,-0.04,-3.13,-2.91,9.68,228.0,,,0.0,1.0,1.0,100.0
2520,1,walk,walk,2929,,2929.0,20.0,2.0,6.0,2.0,-1.01,-0.01,0.164,0.44,28.0,25.93,0.0,20.0,1283.0,18.0,2.32,-0.04,-1.03,-0.04,-3.08,-2.64,9.24,228.0,,,0.0,1.0,1.0,100.0
2560,1,walk,walk,2930,,2930.0,20.0,1.0,6.0,2.0,-1.0,-0.006,0.249,0.159,28.0,25.93,0.0,19.0,1283.0,18.0,2.76,-0.05,-1.02,-0.05,-3.0,-2.27,8.12,228.0,,,0.0,1.0,1.0,100.0
2560,1,walk,walk,2931,,2931.0,20.0,1.0,6.0,2.0,-0.96,-0.002,0.408,-0.144,28.0,25.93,0.0,19.0,1283.0,18.0,3.18,-0.06,-1.02,-0.05,-2.94,-1.81,6.32,228.0,,,0.0,1.0,1.0,100.0
2580,1,walk,walk,2932,,2932.0,20.0,1.0,6.0,2.0,-0.9,0.002,0.369,-0.534,28.0,25.93,0.0,19.0,1283.0,18.0,3.54,-0.06,-1.02,-0.05,-2.94,-1.28,3.95,228.0,,,0.0,1.0,1.0,100.0
2600,1,walk,walk,2933,,2933.0,20.0,1.0,6.0,2.0,-0.82,0.008,0.451,-0.883,28.0,25.93,0.0,19.0,1283.0,18.0,3.8,-0.07,-1.01,-0.05,-2.99,-0.71,1.14,228.0,,,0.0,1.0,1.0,100.0
2620,1,walk,walk,2934,,2934.0,20.0,1.0,6.0,2.0,-0.72,0.015,0.522,-1.32,28.0,25.93,0.0,19.0,1283.0,18.0,3.93,-0.07,-1.01,-0.05,-3.08,-0.12,-1.92,228.0,,,0.0,1.0,1.0,100.0
2660,1,walk,walk,2935,,2935.0,20.0,1.0,6.0,2.0,-0.61,0.022,0.417,-1.499,28.0,25.9,0.0,19.0,1283.0,18.0,3.93,-0.07,-1.01,-0.05,-3.18,0.47,-5.04,228.0,,,0.0,1.0,1.0,100.0
2660,1,walk,walk,2936,,2936.0,20.0,1.0,6.0,2.0,-0.5,0.027,0.316,-1.757,28.0,25.9,0.0,19.0,1283.0,18.0,3.79,-0.07,-1.01,-0.05,-3.27,1.07,-8.0,228.0,,,0.0,1.0,1.0,100.0
2700,1,walk,walk,2937,,2937.0,20.0,1.0,0.0,5.0,-0.38,0.032,0.191,-2.069,28.0,25.9,0.0,19.0,1283.0,18.0,3.53,-0.06,-1.01,-0.05,-3.3,1.64,-10.64,228.0,,,0.0,1.0,1.0,100.0
2700,1,walk,walk,2938,,2938.0,20.0,0.0,0.0,6.0,-0.27,0.036,0.214,-2.222,28.0,25.9,0.0,19.0,1283.0,18.0,3.25,-0.06,-1.01,-0.06,-3.24,2.19,-13.29,228.0,,,0.0,1.0,1.0,100.0
2720,1,walk,walk,2939,,2939.0,20.0,0.0,0.0,6.0,-0.18,0.036,0.214,-2.222,28.0,25.9,0.0,39.0,1283.0,18.0,2.94,-0.05,-1.02,-0.06,-3.07,2.84,-15.85,228.0,,,0.0,1.0,1.0,100.0
2740,1,walk,walk,2940,,2940.0,20.0,0.0,0.0,6.0,-0.1,0.036,0.214,-2.222,28.0,25.9,0.0,59.0,1283.0,18.0,2.58,-0.05,-1.02,-0.06,-2.77,3.65,-18.04,228.0,,,0.0,1.0,1.0,100.0
2760,1,walk,walk,2941,,2941.0,20.0,0.0,0.0,6.0,-0.04,0.036,0.214,-2.222,28.0,25.97,0.0,79.0,1283.0,18.0,2.15,-0.04,-1.02,-0.07,-2.38,4.51,-19.57,228.0,,,0.0,1.0,1.0,100.0
2780,1,walk,walk,2942,,2942.0,20.0,0.0,0.0,6.0,-0.01,0.071,-0.679,0.0,28.0,25.97,0.0,0.0,1283.0,18.0,1.63,-0.03,-1.02,-0.07,-1.89,5.36,-20.12,228.0,,,0.0,1.0,1.0,100.0
2800,1,walk,walk,2943,,2943.0,20.0,0.0,0.0,7.0,-0.01,0.071,-0.679,0.0,28.0,25.97,0.0,20.0,1283.0,18.0,1.03,-0.02,-1.03,-0.07,-1.26,6.09,-19.41,228.0,,,0.0,1.0,1.0,100.0
2820,1,walk,walk,2944,,2944.0,20.0,0.0,0.0,7.0,-0.04,0.058,-1.243,0.0,28.0,25.97,0.0,19.0,1283.0,18.0,0.34,-0.01,-1.03,-0.08,-0.45,6.66,-17.18,228.0,,,0.0,1.0,1.0,100.0
2840,1,walk,walk,2945,,2945.0,20.0,0.0,0.0,7.0,-0.1,0.037,-1.51,0.0,28.0,25.97,0.0,19.0,1283.0,18.0,-0.39,0.01,-1.04,-0.08,0.58,7.03,-13.19,228.0,,,0.0,1.0,1.0,100.0
2880,1,walk,walk,2946,,2946.0,20.0,0.0,0.0,7.0,-0.19,0.008,-2.012,0.0,28.0,25.97,0.0,19.0,1283.0,18.0,-1.11,0.02,-1.04,-0.08,1.79,7.09,-7.4,228.0,,,0.0,1.0,1.0,100.0
2880,1,walk,walk,2947,,2947.0,20.0,0.0,0.0,1.0,-0.3,-0.024,-2.048,0.0,28.0,25.97,0.0,19.0,1283.0,18.0,-1.83,0.03,-1.05,-0.08,3.03,6.87,-0.02,228.0,,,0.0,1.0,1.0,100.0
2900,1,walk,walk,2948,,2948.0,20.0,0.0,0.0,1.0,-0.43,-0.038,0.271,0.0,28.0,25.97,0.0,19.0,1283.0,18.0,-2.54,0.05,-1.07,-0.08,4.2,6.35,8.48,228.0,,,0.0,1.0,1.0,100.0
2920,1,walk,walk,2949,,2949.0,20.0,0.0,0.0,1.0,-0.57,-0.032,0.778,0.0,28.0,25.97,0.0,19.0,1283.0,18.0,-3.21,0.06,-1.08,-0.08,5.18,5.64,17.62,228.0,,,0.0,1.0,1.0,100.0
2940,1,walk,walk,2950,,2950.0,20.0,0.0,0.0,1.0,-0.71,-0.02,0.857,0.0,28.0,25.97,0.0,19.0,1283.0,18.0,-3.76,0.07,-1.1,-0.08,5.91,4.79,26.89,228.0,,,0.0,1.0,1.0,100.0
2960,1,walk,walk,2951,,2951.0,20.0,0.0,0.0,1.0,-0.83,0.0,1.531,0.0,28.0,25.97,0.0,19.0,1283.0,18.0,-4.15,0.08,-1.12,-0.07,6.37,3.85,35.81,228.0,,,0.0,1.0,1.0,100.0
2980,1,walk,walk,2952,,2952.0,20.0,0.0,0.0,1.0,-0.92,0.023,1.726,0.0,28.0,25.97,0.0,19.0,1283.0,18.0,-4.35,0.09,-1.14,-0.07,6.62,2.95,43.99,228.0,,,0.0,1.0,1.0,100.0
3000,1,walk,walk,2953,,2953.0,20.0,0.0,0.0,1.0,-0.97,0.039,0.7,0.0,28.0,25.97,0.0,19.0,1283.0,18.0,-4.38,0.09,-1.15,-0.06,6.73,2.34,51.11,228.0,,,0.0,1.0,1.0,100.0
3040,1,walk,walk,2954,,2954.0,20.0,0.0,0.0,1.0,-0.97,0.041,0.003,0.0,28.0,25.97,0.0,19.0,1283.0,18.0,-4.29,0.09,-1.16,-0.06,6.77,2.12,56.81,228.0,,,0.0,1.0,1.0,100.0
3040,1,walk,walk,2955,,2955.0,20.0,0.0,0.0,1.0,-0.9,0.038,-0.236,0.0,28.0,25.97,0.0,19.0,1283.0,18.0,-4.16,0.08,-1.17,-0.05,6.78,2.32,60.82,228.0,,,0.0,1.0,1.0,100.0
3060,1,walk,walk,2956,,2956.0,20.0,0.0,0.0,1.0,-0.76,0.029,-0.906,0.0,28.0,25.97,0.0,19.0,1283.0,18.0,-4.05,0.08,-1.16,-0.05,6.81,2.86,62.87,228.0,,,0.0,1.0,1.0,100.0
3080,1,walk,walk,2957,,2957.0,20.0,0.0,6.0,2.0,-0.53,0.015,-0.695,0.0,28.0,25.97,0.0,19.0,1283.0,18.0,-3.99,0.08,-1.15,-0.04,6.89,3.62,62.77,228.0,,,0.0,1.0,1.0,100.0
3100,1,walk,walk,2958,,2958.0,20.0,0.0,6.0,2.0,-0.23,0.005,-1.225,0.143,28.0,25.97,0.0,18.0,1283.0,18.0,-4.03,0.08,-1.13,-0.04,7.02,4.47,60.38,228.0,,,0.0,1.0,1.0,100.0
3120,1,walk,walk,2959,,2959.0,20.0,0.0,6.0,2.0,0.15,0.001,-0.358,0.351,28.0,25.93,0.0,18.0,1283.0,18.0,-4.16,0.08,-1.1,-0.04,7.19,5.32,55.72,228.0,,,0.0,1.0,1.0,100.0
3140,1,walk,walk,2960,,2960.0,20.0,1.0,6.0,2.0,0.61,-0.004,-0.203,0.462,28.0,25.93,0.0,19.0,1283.0,18.0,-4.35,0.08,-1.08,-0.04,7.36,6.21,48.94,228.0,,,0.0,1.0,1.0,100.0
3160,1,walk,walk,2961,,2961.0,20.0,0.0,6.0,2.0,1.13,-0.006,-0.014,0.454,28.0,25.93,0.0,18.0,1283.0,18.0,-4.54,0.08,-1.05,-0.05,7.51,7.2,40.38,228.0,,,0.0,1.0,1.0,100.0
3220,1,walk,walk,2962,,2962.0,20.0,1.0,6.0,2.0,1.71,-0.007,-0.095,0.456,28.0,25.93,0.0,19.0,1283.0,18.0,-4.66,0.08,-1.02,-0.05,7.61,8.4,30.45,228.0,,,0.0,1.0,1.0,100.0
3220,1,walk,walk,2963,,2963.0,20.0,0.0,6.0,2.0,2.32,-0.007,0.018,0.396,28.0,25.93,0.0,18.0,1283.0,18.0,-4.59,0.08,-0.99,-0.06,7.61,9.82,19.63,228.0,,,0.0,1.0,1.0,100.0
3220,1,walk,walk,2964,,2964.0,20.0,1.0,6.0,2.0,2.95,-0.007,0.005,0.363,28.0,25.93,0.0,19.0,1283.0,18.0,-4.23,0.07,-0.96,-0.07,7.49,11.37,8.36,228.0,,,0.0,1.0,1.0,100.0
3240,1,walk,walk,2965,,2965.0,20.0,1.0,6.0,2.0,3.58,-0.006,0.032,0.292,28.0,25.93,0.0,19.0,1283.0,18.0,-3.49,0.06,-0.94,-0.08,7.22,12.87,-2.95,228.0,,,0.0,1.0,1.0,100.0
3260,1,walk,walk,2966,,2966.0,20.0,1.0,6.0,2.0,4.19,-0.006,0.023,0.323,28.0,25.93,0.0,19.0,1283.0,18.0,-2.31,0.04,-0.92,-0.09,6.75,14.08,-13.92,228.0,,,0.0,1.0,1.0,100.0
3280,1,walk,walk,2967,,2967.0,20.0,1.0,6.0,2.0,4.76,-0.005,-0.015,0.223,28.0,25.93,0.0,19.0,1283.0,18.0,-0.69,0.01,-0.91,-0.1,6.04,14.79,-24.22,228.0,,,0.0,1.0,1.0,100.0
3300,1,walk,walk,2968,,2968.0,20.0,1.0,6.0,2.0,5.26,-0.004,0.105,0.195,28.0,25.93,0.0,19.0,1283.0,18.0,1.32,-0.02,-0.89,-0.12,5.08,14.88,-33.51,228.0,,,0.0,1.0,1.0,100.0
3320,1,walk,walk,2969,,2969.0,20.0,1.0,6.0,2.0,5.69,-0.002,0.177,-0.009,28.0,25.93,0.0,19.0,1283.0,18.0,3.64,-0.06,-0.88,-0.13,3.86,14.31,-41.48,228.0,,,0.0,1.0,1.0,100.0
3360,1,walk,walk,2970,,2970.0,20.0,1.0,6.0,2.0,6.02,0.001,0.308,-0.328,28.0,25.93,0.0,19.0,1283.0,18.0,6.15,-0.09,-0.88,-0.14,2.4,13.17,-47.87,228.0,,,0.0,1.0,1.0,100.0
3380,1,walk,walk,2971,,2971.0,20.0,1.0,6.0,2.0,6.26,0.006,0.292,-0.682,28.0,25.93,0.0,19.0,1283.0,18.0,8.71,-0.13,-0.87,-0.15,0.76,11.58,-52.51,228.0,,,0.0,1.0,1.0,100.0
3380,1,walk,walk,2972,,2972.0,20.0,1.0,6.0,2.0,6.39,0.012,0.401,-1.132,28.0,25.93,0.0,19.0,1283.0,18.0,11.21,-0.17,-0.87,-0.16,-1.0,9.67,-55.37,228.0,,,0.0,1.0,1.0,100.0
3400,1,walk,walk,2973,,2973.0,20.0,1.0,6.0,2.0,6.4,0.018,0.35,-1.322,28.0,25.93,0.0,19.0,1283.0,18.0,13.55,-0.21,-0.87,-0.16,-2.81,7.58,-56.48,228.0,,,0.0,1.0,1.0,100.0
3420,1,walk,walk,2974,,2974.0,20.0,1.0,6.0,2.0,6.32,0.022,0.271,-1.421,28.0,25.9,0.0,19.0,1283.0,18.0,15.67,-0.25,-0.88,-0.16,-4.59,5.36,-55.97,228.0,,,0.0,1.0,1.0,100.0
3440,1,walk,walk,2975,,2975.0,20.0,1.0,6.0,2.0,6.13,0.027,0.357,-1.686,28.0,25.9,0.0,19.0,1283.0,18.0,17.5,-0.28,-0.88,-0.16,-6.28,3.06,-54.02,228.0,,,0.0,1.0,1.0,100.0
3460,1,walk,walk,2976,,2976.0,20.0,1.0,6.0,2.0,5.85,0.03,0.22,-1.968,28.0,25.86,0.0,19.0,1283.0,18.0,18.66,-0.3,-0.89,-0.15,-7.62,0.9,-51.08,228.0,,,0.0,1.0,1.0,100.0
3480,1,walk,walk,2977,,2977.0,20.0,1.0,6.0,2.0,5.5,0.047,1.429,-3.908,28.0,25.76,0.0,19.0,1283.0,18.0,18.84,-0.31,-0.91,-0.14,-8.37,-1.06,-47.29,228.0,,,0.0,1.0,1.0,100.0
3540,1,walk,walk,2978,,2978.0,20.0,1.0,6.0,2.0,5.07,0.066,1.066,-4.563,28.0,25.65,0.0,19.0,1283.0,18.0,18.15,-0.31,-0.94,-0.12,-8.47,-2.64,-42.73,228.0,,,0.0,1.0,1.0,100.0
3540,1,walk,walk,2979,,2979.0,20.0,1.0,6.0,2.0,4.6,0.071,0.002,-4.023,28.0,25.65,0.0,19.0,1283.0,18.0,16.84,-0.29,-0.97,-0.1,-8.02,-3.85,-37.54,228.0,,,0.0,1.0,1.0,100.0
3540,1,walk,walk,2980,,2980.0,20.0,1.0,6.0,2.0,4.09,0.068,-0.416,-3.848,28.0,25.65,0.0,19.0,1283.0,18.0,15.17,-0.27,-1.01,-0.08,-7.23,-4.73,-31.73,228.0,,,0.0,1.0,1.0,100.0
3560,1,walk,walk,2981,,2981.0,20.0,1.0,6.0,2.0,3.55,0.059,-0.804,-3.088,28.0,25.72,0.0,19.0,1283.0,18.0,13.37,-0.25,-1.04,-0.06,-6.32,-5.32,-25.4,228.0,,,0.0,1.0,1.0,100.0
3580,1,walk,walk,2982,,2982.0,20.0,1.0,6.0,2.0,3.01,0.047,-0.69,-2.509,28.0,25.79,0.0,19.0,1283.0,18.0,11.62,-0.22,-1.07,-0.05,-5.44,-5.73,-18.78,228.0,,,0.0,1.0,1.0,100.0
3600,1,walk,walk,2983,,2983.0,20.0,1.0,6.0,2.0,2.48,0.038,-0.539,-1.956,28.0,25.86,0.0,19.0,1283.0,18.0,10.01,-0.19,-1.09,-0.03,-4.64,-5.98,-12.13,228.0,,,0.0,1.0,1.0,100.0
3620,1,walk,walk,2984,,2984.0,20.0,1.0,6.0,2.0,1.96,0.028,-0.573,-1.485,28.0,25.9,0.0,19.0,1283.0,18.0,8.61,-0.17,-1.1,-0.02,-3.91,-6.1,-5.76,228.0,,,0.0,1.0,1.0,100.0
3640,1,walk,walk,2985,,2985.0,20.0,1.0,6.0,2.0,1.47,0.02,-0.438,-1.155,28.0,25.9,0.0,19.0,1283.0,18.0,7.44,-0.15,-1.11,-0.02,-3.21,-6.14,0.03,228.0,,,0.0,1.0,1.0,100.0
3680,1,walk,walk,2986,,2986.0,20.0,1.0,6.0,2.0,1.01,0.015,-0.214,-0.956,28.0,25.93,0.0,19.0,1283.0,18.0,6.49,-0.13,-1.12,-0.02,-2.54,-6.1,5.02,228.0,,,0.0,1.0,1.0,100.0
3700,1,walk,walk,2987,,2987.0,20.0,1.0,6.0,2.0,0.61,0.01,-0.365,-0.674,28.0,25.93,0.0,19.0,1283.0,18.0,5.74,-0.11,-1.12,-0.02,-1.87,-5.99,9.11,228.0,,,0.0,1.0,1.0,100.0
3700,1,walk,walk,2988,,2988.0,20.0,1.0,6.0,2.0,0.25,0.007,-0.246,-0.307,28.0,25.93,0.0,19.0,1283.0,18.0,5.17,-0.1,-1.11,-0.02,-1.21,-5.79,12.22,228.0,,,0.0,1.0,1.0,100.0
3720,1,walk,walk,2989,,2989.0,20.0,1.0,6.0,2.0,-0.04,0.005,-0.211,-0.199,28.0,25.93,0.0,19.0,1283.0,18.0,4.76,-0.09,-1.1,-0.03,-0.58,-5.48,14.34,228.0,,,0.0,1.0,1.0,100.0
3740,1,walk,walk,2990,,2990.0,20.0,1.0,6.0,2.0,-0.27,0.004,-0.06,-0.246,28.0,25.93,0.0,19.0,1283.0,18.0,4.48,-0.09,-1.1,-0.03,-0.03,-5.07,15.47,228.0,,,0.0,1.0,1.0,100.0
3780,1,walk,walk,2991,,2991.0,20.0,1.0,6.0,2.0,-0.44,0.004,0.046,-0.292,28.0,25.93,0.0,19.0,1283.0,18.0,4.31,-0.08,-1.09,-0.03,0.42,-4.58,15.69,228.0,,,0.0,1.0,1.0,100.0
3800,1,walk,walk,2992,,2992.0,20.0,1.0,6.0,2.0,-0.55,0.005,0.077,-0.382,28.0,25.93,0.0,19.0,1283.0,18.0,4.22,-0.08,-1.08,-0.04,0.76,-4.02,15.08,228.0,,,0.0,1.0,1.0,100.0
3800,1,walk,walk,2993,,2993.0,20.0,0.0,6.0,2.0,-0.6,0.006,0.093,-0.505,28.0,25.93,0.0,18.0,1283.0,18.0,4.18,-0.08,-1.07,-0.04,0.97,-3.44,13.8,228.0,,,0.0,1.0,1.0,100.0
3840,1,walk,walk,2994,,2994.0,20.0,1.0,6.0,2.0,-0.6,0.009,0.166,-0.689,28.0,25.93,0.0,19.0,1283.0,18.0,4.14,-0.08,-1.06,-0.05,1.11,-2.84,11.99,228.0,,,0.0,1.0,1.0,100.0
3860,1,walk,walk,2995,,2995.0,20.0,1.0,6.0,2.0,-0.54,0.012,0.179,-0.974,28.0,25.93,0.0,19.0,1283.0,18.0,4.08,-0.07,-1.05,-0.05,1.2,-2.24,9.81,228.0,,,0.0,1.0,1.0,100.0
3860,1,walk,walk,2996,,2996.0,20.0,1.0,6.0,2.0,-0.45,0.016,0.272,-1.14,28.0,25.93,0.0,19.0,1283.0,18.0,3.98,-0.07,-1.04,-0.05,1.29,-1.64,7.42,228.0,,,0.0,1.0,1.0,100.0
3900,1,walk,walk,2997,,2997.0,20.0,1.0,6.0,2.0,-0.31,0.02,0.281,-1.297,28.0,25.93,0.0,19.0,1283.0,18.0,3.84,-0.07,-1.04,-0.06,1.38,-1.05,4.94,228.0,,,0.0,1.0,1.0,100.0
3900,1,walk,walk,2998,,2998.0,20.0,1.0,6.0,2.0,-0.15,0.024,0.271,-1.498,28.0,25.9,0.0,19.0,1283.0,18.0,3.65,-0.07,-1.04,-0.06,1.51,-0.46,2.5,228.0,,,0.0,1.0,1.0,100.0
3940,1,walk,walk,2999,,2999.0,20.0,1.0,6.0,2.0,0.02,0.027,0.127,-1.717,28.0,25.9,0.0,19.0,1283.0,18.0,3.43,-0.06,-1.03,-0.06,1.68,0.11,0.18,228.0,,,0.0,1.0,1.0,100.0
3940,1,walk,walk,3000,,3000.0,20.0,1.0,6.0,2.0,0.21,0.03,0.177,-1.883,28.0,25.86,0.0,19.0,1283.0,18.0,3.17,-0.06,-1.03,-0.07,1.88,0.65,-1.93,228.0,,,0.0,1.0,1.0,100.0
3960,1,walk,walk,3001,,3001.0,20.0,1.0,6.0,2.0,0.4,0.033,0.174,-1.996,28.0,25.86,0.0,19.0,1283.0,18.0,2.87,-0.05,-1.03,-0.07,2.11,1.12,-3.74,228.0,,,0.0,1.0,1.0,100.0
3980,1,walk,walk,3002,,3002.0,20.0,1.0,1.0,5.0,0.59,0.033,-0.025,-1.975,28.0,25.86,0.0,19.0,1283.0,19.0,2.53,-0.05,-1.03,-0.07,2.38,1.49,-5.17,228.0,,,0.0,1.0,1.0,100.0
4000,1,walk,walk,3003,,3003.0,20.0,0.0,1.0,6.0,0.77,0.032,0.002,-1.901,28.0,25.79,0.0,19.0,1283.0,19.0,2.11,-0.04,-1.03,-0.08,2.71,1.73,-6.08,228.0,,,0.0,1.0,1.0,100.0
4060,1,walk,walk,3004,,3004.0,20.0,0.0,1.0,6.0,0.93,0.015,-1.511,-3.091,28.0,25.69,0.0,19.0,1283.0,19.0,1.61,-0.03,-1.03,-0.08,3.11,1.95,-6.13,228.0,,,0.0,1.0,1.0,100.0
4060,1,walk,walk,3005,,3005.0,20.0,0.0,3.0,7.0,1.07,-0.012,-1.918,-3.115,28.0,25.65,0.0,19.0,1283.0,19.0,1.04,-0.02,-1.03,-0.08,3.57,2.22,-4.89,228.0,,,0.0,1.0,1.0,100.0
4060,1,walk,walk,3006,,3006.0,20.0,0.0,0.0,1.0,1.19,-0.041,-2.101,-2.944,28.0,25.69,0.0,19.0,1283.0,19.0,0.43,-0.01,-1.04,-0.08,4.12,2.49,-2.04,228.0,,,0.0,1.0,1.0,100.0
4080,1,walk,walk,3007,,3007.0,20.0,0.0,0.0,1.0,1.29,-0.075,-2.423,-2.458,28.0,25.69,0.0,19.0,1283.0,19.0,-0.1,0.0,-1.04,-0.08,4.81,2.65,2.61,228.0,,,0.0,1.0,1.0,100.0
4100,1,walk,walk,3008,,3008.0,20.0,0.0,0.0,1.0,1.37,-0.075,-2.423,-2.458,28.0,25.69,0.0,39.0,1283.0,19.0,-0.51,0.01,-1.05,-0.09,5.5,2.39,8.67,228.0,,,0.0,1.0,1.0,100.0
4120,1,walk,walk,3009,,3009.0,20.0,0.0,0.0,1.0,1.43,-0.075,-2.423,-2.458,28.0,25.69,0.0,59.0,1283.0,19.0,-0.84,0.02,-1.06,-0.09,6.04,1.56,15.72,228.0,,,0.0,1.0,1.0,100.0
4160,1,walk,walk,3010,,3010.0,20.0,0.0,0.0,1.0,1.49,-0.056,0.181,0.0,28.0,25.97,0.0,4.0,1283.0,19.0,-1.07,0.02,-1.08,-0.09,6.31,0.11,23.37,228.0,,,0.0,1.0,1.0,100.0
4180,1,walk,walk,3011,,3011.0,20.0,0.0,0.0,1.0,1.55,-0.033,1.817,0.0,28.0,25.97,0.0,4.0,1283.0,19.0,-1.21,0.02,-1.09,-0.09,6.22,-1.92,31.15,228.0,,,0.0,1.0,1.0,100.0
4200,1,walk,walk,3012,,3012.0,20.0,0.0,0.0,1.0,1.61,-0.009,1.748,0.0,28.0,25.93,0.0,4.0,1283.0,19.0,-1.2,0.02,-1.11,-0.09,5.71,-4.42,38.64,228.0,,,0.0,1.0,1.0,100.0
4220,1,walk,walk,3013,,3013.0,20.0,0.0,0.0,1.0,1.7,0.013,1.408,0.0,28.0,25.93,0.0,4.0,1283.0,19.0,-1.06,0.02,-1.13,-0.09,4.79,-7.35,45.48,228.0,,,0.0,1.0,1.0,100.0
4220,1,walk,walk,3014,,3014.0,20.0,0.0,0.0,1.0,1.81,0.026,0.22,0.0,28.0,25.97,0.0,4.0,1283.0,19.0,-0.79,0.02,-1.15,-0.09,3.57,-10.74,51.41,228.0,,,0.0,1.0,1.0,100.0
4240,1,walk,walk,3015,,3015.0,20.0,0.0,0.0,1.0,1.97,0.023,-0.334,0.0,28.0,25.97,0.0,4.0,1283.0,19.0,-0.44,0.01,-1.16,-0.09,2.18,-14.55,56.17,228.0,,,0.0,1.0,1.0,100.0
4260,1,walk,walk,3016,,3016.0,20.0,0.0,6.0,2.0,2.18,0.021,-0.16,0.0,28.0,25.97,0.0,4.0,1283.0,19.0,-0.13,0.0,-1.16,-0.09,0.76,-18.66,59.47,228.0,,,0.0,1.0,1.0,100.0
4280,1,walk,walk,3017,,3017.0,20.0,0.0,6.0,2.0,2.45,0.02,-0.41,0.038,28.0,25.93,0.0,18.0,1283.0,19.0,0.08,0.0,-1.16,-0.09,-0.58,-22.8,61.09,228.0,,,0.0,1.0,1.0,100.0
4300,1,walk,walk,3018,,3018.0,20.0,0.0,6.0,2.0,2.79,0.012,-0.573,-0.099,28.0,25.93,0.0,18.0,1283.0,19.0,0.1,0.0,-1.14,-0.09,-1.75,-26.54,60.87,228.0,,,0.0,1.0,1.0,100.0
4320,1,walk,walk,3019,,3019.0,20.0,1.0,6.0,2.0,3.19,0.004,-0.547,0.269,28.0,25.93,0.0,19.0,1283.0,19.0,-0.1,0.0,-1.13,-0.08,-2.68,-29.36,58.72,228.0,,,0.0,1.0,1.0,100.0
4340,1,walk,walk,3020,,3020.0,20.0,1.0,6.0,2.0,3.66,-0.002,-0.367,0.516,28.0,25.93,0.0,19.0,1283.0,19.0,-0.52,0.01,-1.11,-0.08,-3.34,-30.74,54.65,228.0,,,0.0,1.0,1.0,100.0
4380,1,walk,walk,3021,,3021.0,20.0,1.0,6.0,2.0,4.18,-0.007,-0.195,0.627,28.0,25.93,0.0,19.0,1283.0,19.0,-1.11,0.02,-1.08,-0.07,-3.68,-30.29,48.79,228.0,,,0.0,1.0,1.0,100.0
4400,1,walk,walk,3022,,3022.0,20.0,1.0,6.0,2.0,4.77,-0.009,-0.123,0.652,28.0,25.93,0.0,19.0,1283.0,19.0,-1.77,0.03,-1.05,-0.06,-3.69,-27.82,41.34,228.0,,,0.0,1.0,1.0,100.0
4400,1,walk,walk,3023,,3023.0,20.0,1.0,6.0,2.0,5.39,-0.011,-0.096,0.687,28.0,25.93,0.0,19.0,1283.0,19.0,-2.38,0.04,-1.03,-0.06,-3.36,-23.43,32.59,228.0,,,0.0,1.0,1.0,100.0
4420,1,walk,walk,3024,,3024.0,20.0,1.0,6.0,2.0,6.04,-0.011,-0.112,0.659,28.0,25.93,0.0,19.0,1283.0,19.0,-2.81,0.05,-1.0,-0.05,-2.63,-17.47,22.89,228.0,,,0.0,1.0,1.0,100.0
4440,1,walk,walk,3025,,3025.0,20.0,1.0,1.0,5.0,6.7,-0.011,-0.034,0.653,28.0,25.93,0.0,19.0,1283.0,20.0,-2.94,0.05,-0.98,-0.05,-1.51,-10.48,12.58,228.0,,,0.0,1.0,1.0,100.0
4460,1,walk,walk,3026,,3026.0,20.0,0.0,1.0,5.0,7.36,-0.011,-0.01,0.625,28.0,25.93,0.0,19.0,1283.0,20.0,-2.65,0.04,-0.96,-0.05,-0.03,-3.02,2.04,228.0,,,0.0,1.0,1.0,100.0
4480,1,walk,walk,3027,,3027.0,20.0,0.0,1.0,6.0,7.98,-0.039,-2.317,-0.986,28.0,25.86,0.0,19.0,1283.0,20.0,-1.9,0.03,-0.94,-0.05,1.7,4.34,-8.13,228.0,,,0.0,1.0,1.0,100.0
4500,1,walk,walk,3028,,3028.0,20.0,0.0,1.0,6.0,8.57,-0.076,-2.343,-1.641,28.0,25.83,0.0,19.0,1283.0,20.0,-0.69,0.01,-0.93,-0.06,3.6,11.17,-17.46,228.0,,,0.0,1.0,1.0,100.0
4520,1,walk,walk,3029,,3029.0,20.0,0.0,1.0,6.0,9.09,-0.104,-1.717,-2.316,28.0,25.76,0.0,19.0,1283.0,20.0,0.91,-0.01,-0.92,-0.07,5.49,17.07,-25.69,228.0,,,0.0,1.0,1.0,100.0
4560,1,walk,walk,3030,,3030.0,20.0,0.0,1.0,6.0,9.53,-0.124,-1.19,-2.982,28.0,25.72,0.0,19.0,1283.0,20.0,2.81,-0.05,-0.92,-0.08,7.17,21.76,-32.72,228.0,,,0.0,1.0,1.0,100.0
4560,1,walk,walk,3031,,3031.0,20.0,0.0,1.0,6.0,9.88,-0.137,-0.677,-3.379,28.0,25.69,0.0,19.0,1283.0,20.0,4.89,-0.08,-0.91,-0.09,8.45,25.02,-38.51,228.0,,,0.0,1.0,1.0,100.0
4580,1,walk,walk,3032,,3032.0,20.0,0.0,1.0,6.0,10.14,-0.144,-0.373,-3.76,28.0,25.65,0.0,19.0,1283.0,20.0,7.05,-0.11,-0.91,-0.1,9.23,26.75,-43.0,228.0,,,0.0,1.0,1.0,100.0
4600,1,walk,walk,3033,,3033.0,20.0,0.0,1.0,6.0,10.3,-0.147,-0.171,-3.935,28.0,25.62,0.0,19.0,1283.0,20.0,9.18,-0.15,-0.92,-0.11,9.4,27.02,-46.13,228.0,,,0.0,1.0,1.0,100.0
4620,1,walk,walk,3034,,3034.0,20.0,0.0,1.0,6.0,10.34,-0.151,-0.249,-4.003,28.0,25.62,0.0,19.0,1283.0,20.0,11.2,-0.18,-0.92,-0.12,9.02,26.03,-47.92,228.0,,,0.0,1.0,1.0,100.0
4640,1,walk,walk,3035,,3035.0,20.0,0.0,1.0,6.0,10.29,-0.152,0.097,-4.224,28.0,25.58,0.0,19.0,1283.0,20.0,13.04,-0.21,-0.92,-0.13,8.16,23.96,-48.34,228.0,,,0.0,1.0,1.0,100.0
4660,1,walk,walk,3036,,3036.0,20.0,0.0,3.0,7.0,10.14,-0.152,-0.007,-4.287,28.0,25.62,0.0,19.0,1283.0,20.0,14.64,-0.24,-0.93,-0.13,6.81,21.08,-47.5,228.0,,,0.0,1.0,1.0,100.0
4680,1,walk,walk,3037,,3037.0,20.0,0.0,3.0,7.0,9.9,-0.151,0.111,-4.317,28.0,25.58,0.0,19.0,1283.0,20.0,15.99,-0.27,-0.93,-0.13,5.08,17.67,-45.5,228.0,,,0.0,1.0,1.0,100.0
4720,1,walk,walk,3038,,3038.0,20.0,0.0,3.0,7.0,9.57,-0.15,0.019,-4.39,28.0,25.58,0.0,19.0,1283.0,20.0,17.07,-0.29,-0.94,-0.13,3.09,13.95,-42.51,228.0,,,0.0,1.0,1.0,100.0
4720,1,walk,walk,3039,,3039.0,20.0,0.0,3.0,7.0,9.18,-0.147,0.326,-4.46,28.0,25.62,0.0,19.0,1283.0,20.0,17.88,-0.3,-0.94,-0.13,0.97,10.05,-38.82,228.0,,,0.0,1.0,1.0,100.0
4740,1,walk,walk,3040,,3040.0,20.0,0.0,3.0,7.0,8.74,-0.139,0.6,-4.763,28.0,25.62,0.0,19.0,1283.0,20.0,18.44,-0.31,-0.94,-0.13,-1.19,6.1,-34.74,228.0,,,0.0,1.0,1.0,100.0
4780,1,walk,walk,3041,,3041.0,20.0,0.0,3.0,7.0,8.26,-0.128,0.735,-4.719,28.0,25.62,0.0,19.0,1283.0,20.0,18.55,-0.31,-0.94,-0.12,-3.27,2.23,-30.61,228.0,,,0.0,1.0,1.0,100.0
4800,1,walk,walk,3042,,3042.0,20.0,0.0,3.0,7.0,7.75,-0.1,2.681,-5.839,28.0,25.58,0.0,19.0,1283.0,20.0,18.07,-0.31,-0.95,-0.11,-5.0,-1.18,-26.65,228.0,,,0.0,1.0,1.0,100.0
4800,1,walk,walk,3043,,3043.0,20.0,0.0,3.0,7.0,7.23,-0.059,3.105,-5.972,28.0,25.62,0.0,19.0,1283.0,20.0,17.02,-0.29,-0.96,-0.09,-6.19,-3.85,-23.04,228.0,,,0.0,1.0,1.0,100.0
4820,1,walk,walk,3044,,3044.0,20.0,0.0,3.0,7.0,6.71,-0.009,3.319,-5.618,28.0,25.69,0.0,19.0,1283.0,20.0,15.71,-0.28,-0.98,-0.08,-6.83,-5.7,-19.95,228.0,,,0.0,1.0,1.0,100.0
4860,1,walk,walk,3045,,3045.0,20.0,0.0,3.0,7.0,6.2,0.027,1.441,-3.675,28.0,25.79,0.0,19.0,1283.0,20.0,14.39,-0.26,-1.0,-0.06,-6.95,-6.96,-17.43,228.0,,,0.0,1.0,1.0,100.0
4880,1,walk,walk,3046,,3046.0,20.0,0.0,3.0,7.0,5.7,0.037,0.358,-2.609,28.0,25.83,0.0,19.0,1283.0,20.0,13.15,-0.24,-1.02,-0.05,-6.67,-7.84,-15.32,228.0,,,0.0,1.0,1.0,100.0
4880,1,walk,walk,3047,,3047.0,20.0,0.0,3.0,7.0,5.24,0.037,-0.326,-1.996,28.0,25.86,0.0,19.0,1283.0,20.0,12.02,-0.22,-1.05,-0.04,-6.13,-8.45,-13.28,228.0,,,0.0,1.0,1.0,100.0
4900,1,walk,walk,3048,,3048.0,20.0,1.0,3.0,7.0,4.81,0.03,-0.561,-1.592,28.0,25.86,0.0,20.0,1283.0,20.0,11.03,-0.21,-1.06,-0.03,-5.51,-8.81,-11.08,228.0,,,0.0,1.0,1.0,100.0
4940,1,walk,walk,3049,,3049.0,20.0,0.0,3.0,7.0,4.41,0.023,-0.44,-1.468,28.0,25.9,0.0,19.0,1283.0,20.0,10.18,-0.19,-1.08,-0.02,-4.93,-8.94,-8.65,228.0,,,0.0,1.0,1.0,100.0
4940,1,walk,walk,3050,,3050.0,20.0,0.0,3.0,7.0,4.05,0.017,-0.19,-1.427,28.0,25.9,0.0,19.0,1283.0,20.0,9.47,-0.18,-1.09,-0.02,-4.45,-8.9,-6.14,228.0,,,0.0,1.0,1.0,100.0
4980,1,walk,walk,3051,,3051.0,20.0,1.0,3.0,7.0,3.72,0.017,-0.08,-1.161,28.0,25.93,0.0,20.0,1283.0,20.0,8.87,-0.17,-1.09,-0.02,-4.07,-8.74,-3.79,228.0,,,0.0,1.0,1.0,100.0
5000,1,walk,walk,3052,,3052.0,20.0,0.0,0.0,1.0,3.43,0.019,0.244,-0.768,28.0,25.93,0.0,19.0,1283.0,20.0,8.38,-0.16,-1.09,-0.02,-3.77,-8.5,-1.82,228.0,,,0.0,1.0,1.0,100.0
5000,1,walk,walk,3053,,3053.0,20.0,0.0,0.0,1.0,3.18,0.019,0.244,-0.768,28.0,25.93,0.0,39.0,1283.0,20.0,7.97,-0.15,-1.09,-0.02,-3.54,-8.25,-0.49,228.0,,,0.0,1.0,1.0,100.0
5040,1,walk,walk,3054,,3054.0,20.0,0.0,0.0,1.0,2.97,0.019,0.244,-0.768,28.0,25.93,0.0,59.0,1283.0,20.0,7.62,-0.15,-1.09,-0.02,-3.4,-7.97,0.05,228.0,,,0.0,1.0,1.0,100.0
5040,1,walk,walk,3055,,3055.0,20.0,0.0,0.0,1.0,2.79,0.019,0.244,-0.768,28.0,25.93,0.0,79.0,1283.0,20.0,7.31,-0.14,-1.08,-0.03,-3.36,-7.62,-0.27,228.0,,,0.0,1.0,1.0,100.0
5060,1,walk,walk,3056,,3056.0,20.0,0.0,0.0,1.0,2.65,0.019,0.244,-0.768,28.0,25.93,0.0,99.0,1283.0,20.0,6.99,-0.13,-1.07,-0.03,-3.45,-7.19,-1.49,228.0,,,0.0,1.0,1.0,100.0
5080,1,walk,walk,3057,,3057.0,20.0,0.0,0.0,1.0,2.54,0.067,6.144,0.0,28.0,25.97,0.0,19.0,1283.0,20.0,6.65,-0.12,-1.06,-0.04,-3.67,-6.66,-3.61,228.0,,,0.0,1.0,1.0,100.0
5120,1,walk,walk,3058,,3058.0,20.0,0.0,0.0,1.0,2.45,0.088,1.436,0.0,28.0,25.97,0.0,19.0,1283.0,20.0,6.27,-0.12,-1.06,-0.04,-3.98,-6.08,-6.66,228.0,,,0.0,1.0,1.0,100.0
5120,1,walk,walk,3059,,3059.0,20.0,1.0,0.0,1.0,2.39,0.114,1.577,0.0,28.0,25.97,0.0,20.0,1283.0,20.0,5.81,-0.11,-1.05,-0.05,-4.38,-5.51,-10.55,228.0,,,0.0,1.0,1.0,100.0
5140,1,walk,walk,3060,,3060.0,20.0,1.0,0.0,1.0,2.34,0.138,1.137,0.0,28.0,25.97,0.0,20.0,1283.0,20.0,5.22,-0.1,-1.04,-0.06,-4.81,-5.0,-14.89,228.0,,,0.0,1.0,1.0,100.0
5160,1,walk,walk,3061,,3061.0,20.0,1.0,0.0,1.0,2.3,0.149,0.347,0.0,28.0,25.97,0.0,20.0,1283.0,20.0,4.45,-0.08,-1.04,-0.06,-5.22,-4.53,-18.98,228.0,,,0.0,1.0,1.0,100.0
5200,1,walk,walk,3062,,3062.0,20.0,1.0,0.0,1.0,2.26,0.146,-0.493,0.0,28.0,25.97,0.0,20.0,1283.0,20.0,3.51,-0.06,-1.04,-0.07,-5.5,-4.16,-22.12,228.0,,,0.0,1.0,1.0,100.0
5220,1,walk,walk,3063,,3063.0,20.0,1.0,0.0,1.0,2.21,0.132,-1.241,0.0,28.0,25.97,0.0,20.0,1283.0,20.0,2.44,-0.04,-1.03,-0.08,-5.59,-3.86,-23.76,228.0,,,0.0,1.0,1.0,100.0
5220,1,walk,walk,3064,,3064.0,20.0,1.0,0.0,1.0,2.15,0.117,-1.075,0.0,28.0,25.97,0.0,20.0,1283.0,20.0,1.33,-0.02,-1.03,-0.08,-5.46,-3.61,-23.69,228.0,,,0.0,1.0,1.0,100.0
5240,1,walk,walk,3065,,3065.0,20.0,0.0,0.0,1.0,2.07,0.1,-0.653,0.0,28.0,25.97,0.0,19.0,1283.0,20.0,0.27,0.0,-1.03,-0.09,-5.1,-3.33,-22.01,228.0,,,0.0,1.0,1.0,100.0
5260,1,walk,walk,3066,,3066.0,20.0,0.0,0.0,1.0,1.96,0.087,-1.067,0.0,28.0,25.97,0.0,19.0,1283.0,20.0,-0.7,0.01,-1.03,-0.1,-4.53,-3.01,-18.94,228.0,,,0.0,1.0,1.0,100.0
5280,1,walk,walk,3067,,3067.0,20.0,1.0,0.0,1.0,1.82,0.072,-0.955,0.0,28.0,25.97,0.0,20.0,1283.0,20.0,-1.56,0.03,-1.03,-0.1,-3.78,-2.67,-14.73,228.0,,,0.0,1.0,1.0,100.0
5300,1,walk,walk,3068,,3068.0,20.0,1.0,0.0,1.0,1.66,0.053,-1.466,0.0,28.0,25.97,0.0,20.0,1283.0,20.0,-2.3,0.04,-1.03,-0.11,-2.84,-2.3,-9.55,228.0,,,0.0,1.0,1.0,100.0
5340,1,walk,walk,3069,,3069.0,20.0,1.0,0.0,1.0,1.48,0.029,-1.817,0.0,28.0,25.97,0.0,20.0,1283.0,20.0,-2.91,0.05,-1.04,-0.11,-1.7,-1.97,-3.43,228.0,,,0.0,1.0,1.0,100.0
5360,1,walk,walk,3070,,3070.0,20.0,0.0,0.0,1.0,1.27,0.002,-1.949,0.0,28.0,25.97,0.0,19.0,1283.0,20.0,-3.4,0.06,-1.04,-0.12,-0.38,-1.77,3.58,228.0,,,0.0,1.0,1.0,100.0
5360,1,walk,walk,3071,,3071.0,20.0,0.0,0.0,1.0,1.06,-0.031,-2.422,0.0,28.0,25.97,0.0,19.0,1283.0,20.0,-3.75,0.07,-1.04,-0.12,1.06,-1.74,11.46,228.0,,,0.0,1.0,1.0,100.0
5380,1,walk,walk,3072,,3072.0,20.0,0.0,0.0,1.0,0.85,-0.066,-2.197,0.0,28.0,25.97,0.0,19.0,1283.0,20.0,-3.95,0.07,-1.04,-0.12,2.49,-1.8,20.09,228.0,,,0.0,1.0,1.0,100.0
5400,1,walk,walk,3073,,3073.0,20.0,0.0,0.0,1.0,0.65,-0.094,-1.023,0.0,28.0,25.97,0.0,19.0,1283.0,20.0,-4.02,0.07,-1.05,-0.12,3.77,-1.97,29.11,228.0,,,0.0,1.0,1.0,100.0
5420,1,walk,walk,3074,,3074.0,20.0,0.0,0.0,1.0,0.47,-0.099,0.311,0.0,28.0,25.97,0.0,19.0,1283.0,20.0,-3.97,0.07,-1.06,-0.12,4.81,-2.3,38.07,228.0,,,0.0,1.0,1.0,100.0
5440,1,walk,walk,3075,,3075.0,20.0,0.0,0.0,1.0,0.33,-0.091,0.724,0.0,28.0,25.97,0.0,19.0,1283.0,20.0,-3.79,0.07,-1.07,-0.12,5.49,-2.9,46.61,228.0,,,0.0,1.0,1.0,100.0
5460,1,walk,walk,3076,,3076.0,20.0,0.0,0.0,1.0,0.24,-0.078,0.959,0.0,28.0,25.97,0.0,19.0,1283.0,20.0,-3.5,0.07,-1.09,-0.12,5.7,-3.82,54.54,228.0,,,0.0,1.0,1.0,100.0
5520,1,walk,walk,3077,,3077.0,20.0,0.0,0.0,1.0,0.21,-0.065,1.154,0.0,28.0,25.97,0.0,19.0,1283.0,20.0,-3.08,0.06,-1.1,-0.12,5.36,-5.14,61.69,228.0,,,0.0,1.0,1.0,100.0
5520,1,walk,walk,3078,,3078.0,20.0,0.0,0.0,1.0,0.26,-0.044,1.443,0.0,28.0,25.97,0.0,19.0,1283.0,20.0,-2.54,0.05,-1.12,-0.12,4.45,-7.04,67.96,228.0,,,0.0,1.0,1.0,100.0
5520,1,walk,walk,3079,,3079.0,20.0,0.0,0.0,1.0,0.39,-0.016,1.799,0.0,28.0,25.97,0.0,19.0,1283.0,20.0,-1.9,0.04,-1.13,-0.12,3.0,-9.61,73.24,228.0,,,0.0,1.0,1.0,100.0
5540,1,walk,walk,3080,,3080.0,20.0,0.0,0.0,1.0,0.61,0.013,1.879,0.0,28.0,25.97,0.0,19.0,1283.0,20.0,-1.16,0.02,-1.15,-0.12,1.13,-12.82,77.37,228.0,,,0.0,1.0,1.0,100.0
5560,1,walk,walk,3081,,3081.0,20.0,0.0,0.0,1.0,0.94,0.043,1.977,0.0,28.0,25.97,0.0,19.0,1283.0,20.0,-0.39,0.01,-1.15,-0.12,-1.03,-16.64,80.11,228.0,,,0.0,1.0,1.0,100.0
5580,1,walk,walk,3082,,3082.0,20.0,0.0,0.0,1.0,1.36,0.059,-0.119,0.0,28.0,25.97,0.0,19.0,1283.0,20.0,0.3,-0.01,-1.15,-0.12,-3.26,-20.97,81.13,228.0,,,0.0,1.0,1.0,100.0
5600,1,walk,walk,3083,,3083.0,20.0,0.0,0.0,1.0,1.88,0.05,-0.608,0.0,28.0,25.97,0.0,19.0,1283.0,20.0,0.76,-0.02,-1.15,-0.12,-5.34,-25.71,80.05,228.0,,,0.0,1.0,1.0,100.0
5620,1,walk,walk,3084,,3084.0,20.0,0.0,0.0,1.0,2.5,0.044,-0.374,0.0,28.0,25.97,0.0,19.0,1283.0,20.0,0.85,-0.02,-1.13,-0.12,-7.1,-30.59,76.59,228.0,,,0.0,1.0,1.0,100.0
5680,1,walk,walk,3085,,3085.0,20.0,0.0,0.0,1.0,3.22,0.037,-0.649,0.0,28.0,25.97,0.0,19.0,1283.0,20.0,0.49,-0.01,-1.11,-0.12,-8.46,-35.07,70.65,228.0,,,0.0,1.0,1.0,100.0
5680,1,walk,walk,3086,,3086.0,20.0,0.0,0.0,1.0,4.01,0.022,-0.929,0.0,28.0,25.97,0.0,19.0,1283.0,20.0,-0.36,0.01,-1.08,-0.12,-9.42,-38.53,62.29,228.0,,,0.0,1.0,1.0,100.0
5680,1,walk,walk,3087,,3087.0,20.0,0.0,0.0,1.0,4.88,0.017,0.081,0.0,28.0,25.97,0.0,19.0,1283.0,20.0,-1.66,0.03,-1.05,-0.11,-10.03,-40.29,51.69,228.0,,,0.0,1.0,1.0,100.0
5700,1,walk,walk,3088,,3088.0,20.0,0.0,0.0,1.0,5.79,0.018,0.079,0.0,28.0,25.97,0.0,19.0,1283.0,20.0,-3.28,0.06,-1.02,-0.11,-10.33,-39.78,39.18,228.0,,,0.0,1.0,1.0,100.0
5740,1,walk,walk,3089,,3089.0,20.0,0.0,0.0,1.0,6.73,0.018,0.023,0.0,28.0,25.97,0.0,19.0,1283.0,20.0,-5.02,0.09,-0.99,-0.1,-10.32,-36.63,25.21,228.0,,,0.0,1.0,1.0,100.0
5760,1,walk,walk,3090,,3090.0,20.0,0.0,6.0,2.0,7.67,0.02,0.355,0.0,28.0,25.97,0.0,19.0,1283.0,20.0,-6.59,0.11,-0.96,-0.1,-9.96,-30.98,10.25,228.0,,,0.0,1.0,1.0,100.0
5780,1,walk,walk,3091,,3091.0,20.0,0.0,6.0,2.0,8.59,0.027,0.72,-0.095,28.0,25.93,0.0,18.0,1283.0,20.0,-7.69,0.13,-0.94,-0.1,-9.16,-23.41,-5.14,228.0,,,0.0,1.0,1.0,100.0
5800,1,walk,walk,3092,,3092.0,20.0,0.0,6.0,2.0,9.46,0.025,-0.103,-0.938,28.0,25.93,0.0,18.0,1283.0,20.0,-8.09,0.13,-0.93,-0.1,-7.89,-14.78,-20.41,228.0,,,0.0,1.0,1.0,100.0
5820,1,walk,walk,3093,,3093.0,20.0,1.0,6.0,2.0,10.25,0.024,-0.041,-1.279,28.0,25.93,0.0,19.0,1283.0,20.0,-7.64,0.12,-0.93,-0.1,-6.19,-6.03,-35.02,228.0,,,0.0,1.0,1.0,100.0
5820,1,walk,walk,3094,,3094.0,20.0,0.0,6.0,2.0,10.94,0.025,0.033,-1.464,28.0,25.9,0.0,18.0,1283.0,20.0,-6.35,0.1,-0.93,-0.11,-4.22,2.05,-48.46,228.0,,,0.0,1.0,1.0,100.0
5840,1,walk,walk,3095,,3095.0,20.0,0.0,6.0,2.0,11.5,0.026,0.126,-1.658,28.0,25.9,0.0,18.0,1283.0,20.0,-4.31,0.07,-0.94,-0.12,-2.18,8.97,-60.21,228.0,,,0.0,1.0,1.0,100.0
5860,1,walk,walk,3096,,3096.0,20.0,0.0,6.0,2.0,11.91,0.028,0.234,-1.861,28.0,25.9,0.0,18.0,1283.0,20.0,-1.69,0.03,-0.95,-0.14,-0.34,14.52,-69.79,228.0,,,0.0,1.0,1.0,100.0
5880,1,walk,walk,3097,,3097.0,20.0,1.0,6.0,2.0,12.16,0.033,0.398,-2.219,28.0,25.86,0.0,19.0,1283.0,20.0,1.34,-0.02,-0.96,-0.15,1.07,18.76,-76.83,228.0,,,0.0,1.0,1.0,100.0
5900,1,walk,walk,3098,,3098.0,20.0,1.0,6.0,2.0,12.23,0.038,0.319,-2.498,28.0,25.83,0.0,19.0,1283.0,20.0,4.58,-0.08,-0.97,-0.16,1.92,21.83,-81.09,228.0,,,0.0,1.0,1.0,100.0
5940,1,walk,walk,3099,,3099.0,20.0,1.0,6.0,2.0,12.14,0.044,0.425,-2.926,28.0,25.83,0.0,19.0,1283.0,20.0,7.88,-0.14,-0.98,-0.18,2.17,23.89,-82.51,228.0,,,0.0,1.0,1.0,100.0
5960,1,walk,walk,3100,,3100.0,20.0,1.0,6.0,2.0,11.88,0.049,0.273,-3.238,28.0,25.76,0.0,19.0,1283.0,20.0,11.08,-0.19,-0.99,-0.18,1.89,25.03,-81.23,228.0,,,0.0,1.0,1.0,100.0
6000,1,walk,walk,3101,,3101.0,20.0,1.0,6.0,2.0,11.46,0.054,0.354,-3.521,28.0,25.76,0.0,19.0,1283.0,20.0,13.89,-0.25,-1.0,-0.19,1.24,25.58,-77.56,228.0,,,0.0,1.0,1.0,100.0
6000,1,walk,walk,3102,,3102.0,20.0,1.0,6.0,2.0,10.89,0.07,1.831,-5.438,28.0,25.58,0.0,19.0,1283.0,20.0,16.17,-0.29,-1.01,-0.18,0.65,25.87,-71.78,228.0,,,0.0,1.0,1.0,100.0
6020,1,walk,walk,3103,,3103.0,20.0,1.0,6.0,2.0,10.19,0.078,-0.16,-4.286,28.0,25.58,0.0,19.0,1283.0,20.0,17.91,-0.33,-1.02,-0.17,0.41,25.84,-64.43,228.0,,,0.0,1.0,1.0,100.0
6020,1,walk,walk,3104,,3104.0,20.0,1.0,6.0,2.0,9.4,0.072,-0.461,-4.092,28.0,25.62,0.0,19.0,1283.0,20.0,19.06,-0.36,-1.05,-0.16,0.56,25.38,-56.11,228.0,,,0.0,1.0,1.0,100.0
6040,1,walk,walk,3105,,3105.0,20.0,1.0,6.0,2.0,8.52,0.065,-0.801,-3.554,28.0,25.69,0.0,19.0,1283.0,20.0,19.63,-0.38,-1.07,-0.14,0.99,24.51,-47.13,228.0,,,0.0,1.0,1.0,100.0
6080,1,walk,walk,3106,,3106.0,20.0,1.0,6.0,2.0,7.6,0.05,-1.059,-2.478,28.0,25.79,0.0,19.0,1283.0,20.0,19.67,-0.39,-1.09,-0.12,1.49,23.24,-37.83,228.0,,,0.0,1.0,1.0,100.0
6080,1,walk,walk,3107,,3107.0,20.0,1.0,6.0,2.0,6.65,0.037,-0.734,-1.893,28.0,25.83,0.0,19.0,1283.0,20.0,19.3,-0.39,-1.1,-0.1,1.88,21.6,-28.56,228.0,,,0.0,1.0,1.0,100.0
6100,1,walk,walk,3108,,3108.0,20.0,1.0,6.0,2.0,5.7,0.027,-0.622,-1.461,28.0,25.9,0.0,19.0,1283.0,20.0,18.63,-0.38,-1.12,-0.08,2.07,19.68,-19.71,228.0,,,0.0,1.0,1.0,100.0
6120,1,walk,walk,3109,,3109.0,20.0,1.0,6.0,2.0,4.78,0.02,-0.283,-1.264,28.0,25.9,0.0,19.0,1283.0,20.0,17.75,-0.36,-1.12,-0.07,2.08,17.57,-11.69,228.0,,,0.0,1.0,1.0,100.0
6160,1,walk,walk,3110,,3110.0,20.0,1.0,6.0,2.0,3.9,0.017,-0.038,-1.217,28.0,25.9,0.0,19.0,1283.0,20.0,16.75,-0.34,-1.13,-0.06,1.96,15.4,-4.84,228.0,,,0.0,1.0,1.0,100.0
6160,1,walk,walk,3111,,3111.0,20.0,1.0,6.0,2.0,3.09,0.017,0.075,-1.206,28.0,25.93,0.0,19.0,1283.0,20.0,15.69,-0.32,-1.12,-0.05,1.78,13.28,0.64,228.0,,,0.0,1.0,1.0,100.0
6180,1,walk,walk,3112,,3112.0,20.0,1.0,6.0,2.0,2.36,0.018,0.093,-1.194,28.0,25.9,0.0,19.0,1283.0,20.0,14.61,-0.29,-1.12,-0.04,1.59,11.33,4.65,228.0,,,0.0,1.0,1.0,100.0
6200,1,walk,walk,3113,,3113.0,20.0,1.0,6.0,2.0,1.72,0.019,0.164,-1.316,28.0,25.9,0.0,19.0,1283.0,20.0,13.54,-0.27,-1.11,-0.04,1.39,9.61,7.19,228.0,,,0.0,1.0,1.0,100.0
6220,1,walk,walk,3114,,3114.0,20.0,1.0,6.0,2.0,1.17,0.023,0.28,-1.554,28.0,25.9,0.0,19.0,1283.0,20.0,12.5,-0.24,-1.1,-0.04,1.15,8.15,8.3,228.0,,,0.0,1.0,1.0,100.0
6240,1,walk,walk,3115,,3115.0,20.0,1.0,6.0,2.0,0.72,0.028,0.303,-1.854,28.0,25.86,0.0,19.0,1283.0,20.0,11.5,-0.22,-1.09,-0.04,0.86,6.97,8.1,228.0,,,0.0,1.0,1.0,100.0
6260,1,walk,walk,3116,,3116.0,20.0,0.0,6.0,2.0,0.37,0.035,0.506,-2.32,28.0,25.86,0.0,18.0,1283.0,20.0,10.53,-0.2,-1.08,-0.04,0.49,6.06,6.72,228.0,,,0.0,1.0,1.0,100.0
6300,1,walk,walk,3117,,3117.0,20.0,1.0,6.0,2.0,0.11,0.043,0.68,-3.038,28.0,25.79,0.0,19.0,1283.0,20.0,9.58,-0.18,-1.07,-0.04,0.04,5.43,4.34,228.0,,,0.0,1.0,1.0,100.0
6300,1,walk,walk,3118,,3118.0,20.0,1.0,6.0,2.0,-0.06,0.054,0.869,-3.806,28.0,25.72,0.0,19.0,1283.0,20.0,8.63,-0.16,-1.06,-0.05,-0.46,5.04,1.15,228.0,,,0.0,1.0,1.0,100.0
6320,1,walk,walk,3119,,3119.0,20.0,1.0,6.0,2.0,-0.16,0.066,0.761,-4.494,28.0,25.65,0.0,19.0,1283.0,20.0,7.64,-0.14,-1.05,-0.05,-1.02,4.86,-2.51,228.0,,,0.0,1.0,1.0,100.0
6340,1,walk,walk,3120,,3120.0,20.0,1.0,6.0,2.0,-0.2,0.076,0.416,-4.591,28.0,25.58,0.0,19.0,1283.0,20.0,6.57,-0.12,-1.04,-0.05,-1.59,4.77,-6.11,228.0,,,0.0,1.0,1.0,100.0
6360,1,walk,walk,3121,,3121.0,20.0,1.0,6.0,2.0,-0.2,0.076,-0.142,-4.417,28.0,25.54,0.0,19.0,1283.0,20.0,5.39,-0.1,-1.04,-0.05,-2.1,4.66,-9.07,228.0,,,0.0,1.0,1.0,100.0
6400,1,walk,walk,3122,,3122.0,20.0,1.0,6.0,2.0,-0.16,0.072,-0.471,-4.071,28.0,25.58,0.0,19.0,1283.0,20.0,4.15,-0.08,-1.04,-0.06,-2.5,4.46,-10.99,228.0,,,0.0,1.0,1.0,100.0
6400,1,walk,walk,3123,,3123.0,20.0,1.0,6.0,2.0,-0.09,0.064,-0.547,-3.544,28.0,25.69,0.0,19.0,1283.0,20.0,2.91,-0.05,-1.04,-0.07,-2.75,4.17,-11.68,228.0,,,0.0,1.0,1.0,100.0
6420,1,walk,walk,3124,,3124.0,20.0,1.0,6.0,2.0,-0.02,0.054,-0.538,-3.169,28.0,25.72,0.0,19.0,1283.0,20.0,1.74,-0.03,-1.03,-0.07,-2.83,3.8,-11.2,228.0,,,0.0,1.0,1.0,100.0
6480,1,walk,walk,3125,,3125.0,20.0,1.0,6.0,2.0,0.05,0.048,-0.389,-2.83,28.0,25.79,0.0,19.0,1283.0,20.0,0.71,-0.01,-1.03,-0.08,-2.71,3.35,-9.72,228.0,,,0.0,1.0,1.0,100.0
6480,1,walk,walk,3126,,3126.0,20.0,1.0,6.0,2.0,0.12,0.043,-0.438,-2.388,28.0,25.83,0.0,19.0,1283.0,20.0,-0.19,0.0,-1.03,-0.08,-2.39,2.84,-7.45,228.0,,,0.0,1.0,1.0,100.0
6500,1,walk,walk,3127,,3127.0,20.0,1.0,6.0,2.0,0.17,0.035,-0.694,-1.792,28.0,25.86,0.0,19.0,1283.0,20.0,-0.94,0.02,-1.03,-0.09,-1.85,2.29,-4.47,228.0,,,0.0,1.0,1.0,100.0
6520,1,walk,walk,3128,,3128.0,20.0,1.0,6.0,2.0,0.2,0.024,-0.804,-1.101,28.0,25.9,0.0,19.0,1283.0,20.0,-1.58,0.03,-1.03,-0.09,-1.05,1.69,-0.82,228.0,,,0.0,1.0,1.0,100.0
6520,1,walk,walk,3129,,3129.0,20.0,1.0,6.0,2.0,0.22,0.012,-0.898,-0.51,28.0,25.93,0.0,19.0,1283.0,20.0,-2.11,0.04,-1.04,-0.1,0.03,1.02,3.52,228.0,,,0.0,1.0,1.0,100.0
6540,1,walk,walk,3130,,3130.0,20.0,1.0,6.0,2.0,0.23,0.0,-0.726,0.467,28.0,25.93,0.0,19.0,1283.0,20.0,-2.54,0.05,-1.04,-0.1,1.35,0.2,8.54,228.0,,,0.0,1.0,1.0,100.0
6560,1,walk,walk,3131,,3131.0,20.0,1.0,6.0,2.0,0.23,-0.011,-0.781,1.349,28.0,25.93,0.0,19.0,1283.0,20.0,-2.89,0.05,-1.04,-0.11,2.78,-0.83,14.21,228.0,,,0.0,1.0,1.0,100.0
6580,1,walk,walk,3132,,3132.0,20.0,1.0,6.0,2.0,0.22,-0.023,-0.825,1.76,28.0,25.9,0.0,19.0,1283.0,20.0,-3.18,0.06,-1.05,-0.11,4.2,-2.0,20.39,228.0,,,0.0,1.0,1.0,100.0
6600,1,walk,walk,3133,,3133.0,20.0,1.0,6.0,2.0,0.22,-0.027,0.079,1.314,28.0,25.9,0.0,19.0,1283.0,20.0,-3.42,0.06,-1.06,-0.11,5.5,-3.15,26.93,228.0,,,0.0,1.0,1.0,100.0
6640,1,walk,walk,3134,,3134.0,20.0,1.0,6.0,2.0,0.23,-0.023,0.311,1.125,28.0,25.9,0.0,19.0,1283.0,20.0,-3.59,0.07,-1.07,-0.11,6.58,-4.19,33.66,228.0,,,0.0,1.0,1.0,100.0
6640,1,walk,walk,3135,,3135.0,20.0,1.0,6.0,2.0,0.26,-0.017,0.522,0.844,28.0,25.93,0.0,19.0,1283.0,20.0,-3.66,0.07,-1.08,-0.1,7.33,-5.09,40.42,228.0,,,0.0,1.0,1.0,100.0
6660,1,walk,walk,3136,,3136.0,20.0,1.0,6.0,2.0,0.32,-0.009,0.434,0.415,28.0,25.93,0.0,19.0,1283.0,20.0,-3.6,0.07,-1.1,-0.1,7.7,-5.9,47.15,228.0,,,0.0,1.0,1.0,100.0
6680,1,walk,walk,3137,,3137.0,20.0,1.0,6.0,2.0,0.43,-0.005,0.25,0.146,28.0,25.93,0.0,19.0,1283.0,20.0,-3.39,0.07,-1.11,-0.09,7.63,-6.71,53.79,228.0,,,0.0,1.0,1.0,100.0
6720,1,walk,walk,3138,,3138.0,20.0,1.0,6.0,2.0,0.58,-0.001,0.378,-0.327,28.0,25.93,0.0,19.0,1283.0,20.0,-3.02,0.06,-1.13,-0.09,7.17,-7.6,60.28,228.0,,,0.0,1.0,1.0,100.0
6720,1,walk,walk,3139,,3139.0,20.0,1.0,6.0,2.0,0.8,0.006,0.336,-0.78,28.0,25.93,0.0,19.0,1283.0,20.0,-2.52,0.05,-1.14,-0.09,6.39,-8.65,66.42,228.0,,,0.0,1.0,1.0,100.0
6760,1,walk,walk,3140,,3140.0,20.0,1.0,6.0,2.0,1.08,0.013,0.449,-1.235,28.0,25.93,0.0,19.0,1283.0,20.0,-1.92,0.04,-1.15,-0.09,5.38,-10.06,71.83,228.0,,,0.0,1.0,1.0,100.0
6780,1,walk,walk,3141,,3141.0,20.0,1.0,6.0,2.0,1.43,0.018,0.092,-1.089,28.0,25.93,0.0,19.0,1283.0,20.0,-1.3,0.03,-1.15,-0.09,4.3,-11.98,75.9,228.0,,,0.0,1.0,1.0,100.0
6800,1,walk,walk,3142,,3142.0,20.0,1.0,6.0,2.0,1.87,0.017,0.015,-1.036,28.0,25.93,0.0,19.0,1283.0,20.0,-0.78,0.02,-1.15,-0.09,3.3,-14.48,78.04,228.0,,,0.0,1.0,1.0,100.0
6800,1,walk,walk,3143,,3143.0,20.0,1.0,6.0,2.0,2.38,0.016,-0.105,-0.939,28.0,25.93,0.0,19.0,1283.0,20.0,-0.46,0.01,-1.14,-0.09,2.47,-17.41,77.8,228.0,,,0.0,1.0,1.0,100.0
6820,1,walk,walk,3144,,3144.0,20.0,0.0,6.0,2.0,2.98,0.013,-0.189,-0.702,28.0,25.93,0.0,18.0,1283.0,20.0,-0.42,0.01,-1.13,-0.09,1.89,-20.38,74.91,228.0,,,0.0,1.0,1.0,100.0
6840,1,walk,walk,3145,,3145.0,20.0,1.0,6.0,2.0,3.65,0.01,-0.173,-0.455,28.0,25.93,0.0,19.0,1283.0,20.0,-0.72,0.01,-1.11,-0.09,1.53,-22.84,69.3,228.0,,,0.0,1.0,1.0,100.0
6860,1,walk,walk,3146,,3146.0,20.0,1.0,6.0,2.0,4.4,0.006,-0.245,-0.234,28.0,25.93,0.0,19.0,1283.0,20.0,-1.35,0.03,-1.08,-0.09,1.34,-24.28,61.12,228.0,,,0.0,1.0,1.0,100.0
6880,1,walk,walk,3147,,3147.0,20.0,1.0,0.0,5.0,5.2,0.003,-0.189,-0.066,28.0,25.93,0.0,19.0,1283.0,20.0,-2.24,0.04,-1.05,-0.09,1.23,-24.22,50.71,228.0,,,0.0,1.0,1.0,100.0
6900,1,walk,walk,3148,,3148.0,20.0,0.0,0.0,5.0,6.05,0.002,-0.077,-0.054,28.0,25.93,0.0,19.0,1283.0,20.0,-3.29,0.06,-1.02,-0.09,1.15,-22.38,38.47,228.0,,,0.0,1.0,1.0,100.0
6960,1,walk,walk,3149,,3149.0,20.0,0.0,0.0,5.0,6.93,0.002,-0.077,-0.054,28.0,25.93,0.0,39.0,1283.0,20.0,-4.36,0.08,-0.99,-0.09,1.09,-18.7,24.89,228.0,,,0.0,1.0,1.0,100.0
6960,1,walk,walk,3150,,3150.0,20.0,0.0,0.0,5.0,7.81,0.002,-0.077,-0.054,28.0,25.93,0.0,59.0,1283.0,20.0,-5.26,0.09,-0.96,-0.09,1.09,-13.4,10.47,228.0,,,0.0,1.0,1.0,100.0
6960,1,walk,walk,3151,,3151.0,20.0,0.0,0.0,6.0,8.67,0.004,0.316,0.0,28.0,26.0,0.0,2.0,1283.0,20.0,-5.83,0.1,-0.94,-0.1,1.19,-6.91,-4.28,228.0,,,0.0,1.0,1.0,100.0
6980,1,walk,walk,3152,,3152.0,20.0,0.0,0.0,6.0,9.49,0.007,0.379,0.0,28.0,25.97,0.0,2.0,1283.0,20.0,-5.9,0.1,-0.92,-0.1,1.41,0.13,-18.93,228.0,,,0.0,1.0,1.0,100.0
7000,1,walk,walk,3153,,3153.0,20.0,0.0,0.0,6.0,10.23,0.019,1.103,0.0,28.0,25.97,0.0,2.0,1283.0,20.0,-5.38,0.09,-0.91,-0.1,1.72,7.07,-33.12,228.0,,,0.0,1.0,1.0,100.0
7040,1,walk,walk,3154,,3154.0,20.0,0.0,0.0,6.0,10.88,0.035,1.129,0.0,28.0,25.97,0.0,2.0,1283.0,20.0,-4.25,0.07,-0.91,-0.11,2.06,13.28,-46.49,228.0,,,0.0,1.0,1.0,100.0
7040,1,walk,walk,3155,,3155.0,20.0,0.0,0.0,6.0,11.41,0.056,1.531,0.0,28.0,25.97,0.0,2.0,1283.0,20.0,-2.56,0.04,-0.91,-0.12,2.33,18.32,-58.63,228.0,,,0.0,1.0,1.0,100.0
7060,1,walk,walk,3156,,3156.0,20.0,0.0,0.0,6.0,11.8,0.083,1.953,0.0,28.0,25.97,0.0,2.0,1283.0,20.0,-0.41,0.01,-0.91,-0.13,2.43,21.96,-69.14,228.0,,,0.0,1.0,1.0,100.0
7080,1,walk,walk,3157,,3157.0,20.0,0.0,0.0,6.0,12.04,0.109,1.494,0.0,28.0,25.97,0.0,2.0,1283.0,20.0,2.06,-0.03,-0.92,-0.15,2.21,24.24,-77.65,228.0,,,0.0,1.0,1.0,100.0
7120,1,walk,walk,3158,,3158.0,20.0,0.0,0.0,6.0,12.12,0.128,1.306,0.0,28.0,25.97,0.0,2.0,1283.0,20.0,4.72,-0.08,-0.93,-0.16,1.59,25.37,-83.82,228.0,,,0.0,1.0,1.0,100.0
7120,1,walk,walk,3159,,3159.0,20.0,0.0,0.0,6.0,12.03,0.142,0.974,0.0,28.0,25.97,0.0,2.0,1283.0,20.0,7.43,-0.12,-0.95,-0.17,0.52,25.58,-87.4,228.0,,,0.0,1.0,1.0,100.0
7140,1,walk,walk,3160,,3160.0,20.0,0.0,0.0,6.0,11.77,0.159,1.031,0.0,28.0,25.97,0.0,2.0,1283.0,20.0,10.08,-0.17,-0.96,-0.17,-0.93,25.07,-88.24,228.0,,,0.0,1.0,1.0,100.0
7160,1,walk,walk,3161,,3161.0,20.0,0.0,0.0,7.0,11.35,0.178,1.3,0.0,28.0,25.97,0.0,2.0,1283.0,20.0,12.56,-0.22,-0.97,-0.18,-2.68,24.06,-86.42,228.0,,,0.0,1.0,1.0,100.0
7180,1,walk,walk,3162,,3162.0,20.0,0.0,0.0,7.0,10.78,0.2,1.736,0.0,28.0,25.93,0.0,2.0,1283.0,20.0,14.77,-0.26,-0.98,-0.18,-4.59,22.63,-82.22,228.0,,,0.0,1.0,1.0,100.0
7220,1,walk,walk,3163,,3163.0,20.0,0.0,0.0,7.0,10.08,0.219,-0.017,0.0,28.0,25.97,0.0,2.0,1283.0,20.0,16.47,-0.29,-1.0,-0.17,-6.53,20.85,-76.05,228.0,,,0.0,1.0,1.0,100.0
7240,1,walk,walk,3164,,3164.0,20.0,0.0,0.0,7.0,9.26,0.217,-0.519,0.0,28.0,25.97,0.0,2.0,1283.0,20.0,17.48,-0.32,-1.02,-0.16,-8.1,19.08,-68.67,228.0,,,0.0,1.0,1.0,100.0
7260,1,walk,walk,3165,,3165.0,20.0,0.0,0.0,7.0,8.35,0.192,-2.322,0.0,28.0,25.97,0.0,2.0,1283.0,20.0,17.75,-0.33,-1.04,-0.14,-8.97,17.47,-60.62,228.0,,,0.0,1.0,1.0,100.0
7280,1,walk,walk,3166,,3166.0,20.0,0.0,0.0,7.0,7.37,0.159,-2.145,0.0,28.0,25.97,0.0,2.0,1283.0,20.0,17.33,-0.33,-1.07,-0.12,-9.06,16.16,-51.93,228.0,,,0.0,1.0,1.0,100.0
7280,1,walk,walk,3167,,3167.0,20.0,0.0,0.0,7.0,6.34,0.133,-1.239,0.0,28.0,25.97,0.0,2.0,1283.0,20.0,16.41,-0.32,-1.1,-0.09,-8.48,15.27,-42.56,228.0,,,0.0,1.0,1.0,100.0
7300,1,walk,walk,3168,,3168.0,20.0,0.0,0.0,7.0,5.3,0.118,-0.708,0.0,28.0,25.97,0.0,2.0,1283.0,20.0,15.16,-0.3,-1.12,-0.06,-7.52,14.71,-32.77,228.0,,,0.0,1.0,1.0,100.0
7320,1,walk,walk,3169,,3169.0,20.0,0.0,0.0,7.0,4.26,0.104,-1.095,0.0,28.0,25.97,0.0,2.0,1283.0,20.0,13.73,-0.28,-1.14,-0.04,-6.45,14.29,-22.97,228.0,,,0.0,1.0,1.0,100.0
7340,1,walk,walk,3170,,3170.0,20.0,0.0,0.0,7.0,3.25,0.096,-0.434,0.0,28.0,25.97,0.0,2.0,1283.0,20.0,12.27,-0.25,-1.15,-0.02,-5.42,13.85,-13.6,228.0,,,0.0,1.0,1.0,100.0
7360,1,walk,walk,3171,,3171.0,20.0,0.0,0.0,7.0,2.29,0.091,-0.073,0.0,28.0,25.97,0.0,2.0,1283.0,20.0,10.85,-0.22,-1.16,-0.01,-4.5,13.26,-5.08,228.0,,,0.0,1.0,1.0,100.0
7380,1,walk,walk,3172,,3172.0,20.0,0.0,0.0,1.0,1.39,0.089,-0.152,0.0,28.0,25.97,0.0,2.0,1283.0,20.0,9.54,-0.19,-1.16,0.0,-3.69,12.51,2.2,228.0,,,0.0,1.0,1.0,100.0
7400,1,walk,walk,3173,,3173.0,20.0,0.0,0.0,1.0,0.57,0.089,-0.032,0.0,28.0,25.97,0.0,2.0,1283.0,20.0,8.36,-0.17,-1.15,0.0,-2.99,11.62,7.96,228.0,,,0.0,1.0,1.0,100.0
7440,1,walk,walk,3174,,3174.0,20.0,0.0,0.0,1.0,-0.15,0.09,0.097,0.0,28.0,25.97,0.0,2.0,1283.0,20.0,7.32,-0.15,-1.14,0.0,-2.41,10.63,12.07,228.0,,,0.0,1.0,1.0,100.0
7440,1,walk,walk,3175,,3175.0,20.0,0.0,0.0,1.0,-0.78,0.096,0.512,0.0,28.0,25.97,0.0,2.0,1283.0,20.0,6.42,-0.13,-1.13,0.0,-1.96,9.61,14.52,228.0,,,0.0,1.0,1.0,100.0
7460,1,walk,walk,3176,,3176.0,20.0,0.0,0.0,1.0,-1.3,0.106,0.687,0.0,28.0,25.97,0.0,2.0,1283.0,20.0,5.63,-0.11,-1.12,0.0,-1.68,8.57,15.32,228.0,,,0.0,1.0,1.0,100.0
7480,1,walk,walk,3177,,3177.0,20.0,0.0,0.0,1.0,-1.72,0.122,1.501,0.0,28.0,25.97,0.0,2.0,1283.0,20.0,4.93,-0.1,-1.1,-0.01,-1.57,7.57,14.58,228.0,,,0.0,1.0,1.0,100.0
7500,1,walk,walk,3178,,3178.0,20.0,0.0,0.0,1.0,-2.04,0.145,1.875,0.0,28.0,25.97,0.0,2.0,1283.0,20.0,4.27,-0.08,-1.09,-0.02,-1.63,6.65,12.33,228.0,,,0.0,1.0,1.0,100.0
7520,1,walk,walk,3179,,3179.0,20.0,0.0,0.0,1.0,-2.27,0.17,1.513,0.0,28.0,25.97,0.0,2.0,1283.0,20.0,3.6,-0.07,-1.08,-0.02,-1.87,5.83,8.68,228.0,,,0.0,1.0,1.0,100.0
7540,1,walk,walk,3180,,3180.0,20.0,0.0,0.0,1.0,-2.41,0.181,0.013,0.0,28.0,25.97,0.0,2.0,1283.0,20.0,2.85,-0.05,-1.07,-0.03,-2.25,5.12,3.96,228.0,,,0.0,1.0,1.0,100.0
7560,1,walk,walk,3181,,3181.0,20.0,1.0,0.0,1.0,-2.47,0.179,-0.288,0.0,28.0,25.97,0.0,3.0,1283.0,20.0,1.95,-0.04,-1.06,-0.04,-2.71,4.45,-1.08,228.0,,,0.0,1.0,1.0,100.0
7600,1,walk,walk,3182,,3182.0,20.0,1.0,0.0,1.0,-2.48,0.166,-0.989,0.0,28.0,25.97,0.0,3.0,1283.0,20.0,0.92,-0.02,-1.05,-0.05,-3.16,3.83,-5.54,228.0,,,0.0,1.0,1.0,100.0
7600,1,walk,walk,3183,,3183.0,20.0,1.0,0.0,1.0,-2.44,0.149,-0.852,0.0,28.0,25.97,0.0,3.0,1283.0,20.0,-0.2,0.0,-1.05,-0.05,-3.49,3.29,-8.72,228.0,,,0.0,1.0,1.0,100.0
7620,1,walk,walk,3184,,3184.0,20.0,1.0,0.0,1.0,-2.37,0.135,-1.114,0.0,28.0,25.97,0.0,3.0,1283.0,20.0,-1.3,0.02,-1.04,-0.06,-3.65,2.82,-10.31,228.0,,,0.0,1.0,1.0,100.0
7640,1,walk,walk,3185,,3185.0,20.0,1.0,0.0,1.0,-2.29,0.125,-0.453,0.0,28.0,25.97,0.0,3.0,1283.0,20.0,-2.32,0.04,-1.04,-0.07,-3.63,2.44,-10.31,228.0,,,0.0,1.0,1.0,100.0
7680,1,walk,walk,3186,,3186.0,20.0,1.0,0.0,1.0,-2.2,0.115,-0.793,0.0,28.0,25.97,0.0,3.0,1283.0,20.0,-3.2,0.06,-1.04,-0.08,-3.41,2.15,-8.97,228.0,,,0.0,1.0,1.0,100.0
7680,1,walk,walk,3187,,3187.0,20.0,1.0,0.0,1.0,-2.12,0.099,-0.892,0.0,28.0,25.97,0.0,3.0,1283.0,20.0,-3.92,0.07,-1.03,-0.09,-2.97,1.95,-6.56,228.0,,,0.0,1.0,1.0,100.0
7700,1,walk,walk,3188,,3188.0,20.0,1.0,0.0,1.0,-2.06,0.081,-1.737,0.0,28.0,25.97,0.0,3.0,1283.0,20.0,-4.51,0.08,-1.03,-0.09,-2.33,1.84,-3.3,228.0,,,0.0,1.0,1.0,100.0
7720,1,walk,walk,3189,,3189.0,20.0,1.0,0.0,1.0,-2.0,0.059,-1.514,0.0,28.0,25.97,0.0,3.0,1283.0,20.0,-4.95,0.09,-1.03,-0.1,-1.48,1.78,0.74,228.0,,,0.0,1.0,1.0,100.0
7740,1,walk,walk,3190,,3190.0,20.0,0.0,0.0,1.0,-1.97,0.031,-1.823,0.0,28.0,25.97,0.0,2.0,1283.0,20.0,-5.28,0.1,-1.03,-0.1,-0.41,1.73,5.57,228.0,,,0.0,1.0,1.0,100.0
7780,1,walk,walk,3191,,3191.0,20.0,0.0,0.0,1.0,-1.95,0.001,-2.146,0.0,28.0,25.97,0.0,2.0,1283.0,20.0,-5.49,0.1,-1.03,-0.11,0.88,1.66,11.2,228.0,,,0.0,1.0,1.0,100.0
7780,1,walk,walk,3192,,3192.0,20.0,0.0,0.0,1.0,-1.94,-0.03,-2.132,0.0,28.0,25.97,0.0,2.0,1283.0,20.0,-5.59,0.1,-1.04,-0.11,2.36,1.52,17.65,228.0,,,0.0,1.0,1.0,100.0
7800,1,walk,walk,3193,,3193.0,20.0,0.0,0.0,1.0,-1.93,-0.056,-1.45,0.0,28.0,25.97,0.0,2.0,1283.0,20.0,-5.56,0.1,-1.04,-0.11,3.94,1.22,24.81,228.0,,,0.0,1.0,1.0,100.0
7820,1,walk,walk,3194,,3194.0,20.0,0.0,0.0,1.0,-1.92,-0.063,-0.005,0.0,28.0,25.97,0.0,2.0,1283.0,20.0,-5.38,0.1,-1.04,-0.11,5.48,0.73,32.38,228.0,,,0.0,1.0,1.0,100.0
7840,1,walk,walk,3195,,3195.0,20.0,0.0,0.0,1.0,-1.89,-0.061,0.197,0.0,28.0,25.97,0.0,2.0,1283.0,20.0,-5.09,0.09,-1.05,-0.11,6.87,0.06,39.94,228.0,,,0.0,1.0,1.0,100.0
7860,1,walk,walk,3196,,3196.0,20.0,0.0,0.0,1.0,-1.84,-0.057,0.43,0.0,28.0,25.97,0.0,2.0,1283.0,20.0,-4.72,0.09,-1.06,-0.11,7.99,-0.82,47.22,228.0,,,0.0,1.0,1.0,100.0
7880,1,walk,walk,3197,,3197.0,20.0,0.0,0.0,1.0,-1.75,-0.049,0.656,0.0,28.0,25.97,0.0,2.0,1283.0,20.0,-4.28,0.08,-1.08,-0.11,8.75,-2.0,54.09,228.0,,,0.0,1.0,1.0,100.0
7920,1,walk,walk,3198,,3198.0,20.0,0.0,0.0,1.0,-1.6,-0.036,1.341,0.0,28.0,25.97,0.0,2.0,1283.0,20.0,-3.78,0.07,-1.09,-0.11,9.05,-3.56,60.53,228.0,,,0.0,1.0,1.0,100.0
7940,1,walk,walk,3199,,3199.0,20.0,0.0,0.0,1.0,-1.41,-0.017,1.252,0.0,28.0,25.97,0.0,2.0,1283.0,20.0,-3.21,0.06,-1.11,-0.11,8.84,-5.61,66.47,228.0,,,0.0,1.0,1.0,100.0
7940,1,walk,walk,3200,,3200.0,20.0,0.0,0.0,1.0,-1.14,0.005,1.161,0.0,28.0,25.97,0.0,2.0,1283.0,20.0,-2.6,0.05,-1.13,-0.11,8.13,-8.27,71.81,228.0,,,0.0,1.0,1.0,100.0
7960,1,walk,walk,3201,,3201.0,20.0,0.0,0.0,1.0,-0.79,0.009,-0.469,0.0,28.0,25.97,0.0,2.0,1283.0,20.0,-1.96,0.04,-1.15,-0.11,7.02,-11.53,76.33,228.0,,,0.0,1.0,1.0,100.0
8000,1,walk,walk,3202,,3202.0,20.0,0.0,0.0,1.0,-0.37,-0.002,-0.754,0.0,28.0,25.97,0.0,2.0,1283.0,20.0,-1.36,0.03,-1.16,-0.11,5.64,-15.11,79.74,228.0,,,0.0,1.0,1.0,100.0
8020,1,walk,walk,3203,,3203.0,20.0,0.0,0.0,1.0,0.14,-0.015,-0.945,0.0,28.0,25.97,0.0,2.0,1283.0,20.0,-0.87,0.02,-1.17,-0.11,4.14,-18.72,81.75,228.0,,,0.0,1.0,1.0,100.0
8020,1,walk,walk,3204,,3204.0,20.0,0.0,0.0,1.0,0.74,-0.034,-1.35,0.0,28.0,25.97,0.0,2.0,1283.0,20.0,-0.55,0.01,-1.17,-0.11,2.66,-21.98,82.14,228.0,,,0.0,1.0,1.0,100.0
8040,1,walk,walk,3205,,3205.0,20.0,0.0,0.0,1.0,1.43,-0.051,-1.051,0.0,28.0,25.97,0.0,2.0,1283.0,20.0,-0.45,0.01,-1.16,-0.11,1.28,-24.58,80.72,228.0,,,0.0,1.0,1.0,100.0
8080,1,walk,walk,3206,,3206.0,20.0,0.0,0.0,1.0,2.2,-0.062,-0.62,0.0,28.0,25.97,0.0,2.0,1283.0,20.0,-0.57,0.01,-1.14,-0.11,0.08,-26.32,77.34,228.0,,,0.0,1.0,1.0,100.0
8080,1,walk,walk,3207,,3207.0,20.0,0.0,0.0,1.0,3.04,-0.07,-0.561,0.0,28.0,25.97,0.0,2.0,1283.0,20.0,-0.89,0.02,-1.12,-0.1,-0.92,-27.0,71.9,228.0,,,0.0,1.0,1.0,100.0
8120,1,walk,walk,3208,,3208.0,20.0,0.0,0.0,1.0,3.95,-0.079,-0.461,0.0,28.0,25.97,0.0,2.0,1283.0,20.0,-1.38,0.03,-1.09,-0.09,-1.7,-26.51,64.47,228.0,,,0.0,1.0,1.0,100.0
8120,1,walk,walk,3209,,3209.0,20.0,0.0,6.0,2.0,4.91,-0.081,0.032,0.0,28.0,25.97,0.0,2.0,1283.0,20.0,-1.96,0.04,-1.05,-0.09,-2.25,-24.83,55.21,228.0,,,0.0,1.0,1.0,100.0
8140,1,walk,walk,3210,,3210.0,20.0,0.0,6.0,2.0,5.91,-0.081,-0.023,-0.027,28.0,25.93,0.0,18.0,1283.0,20.0,-2.55,0.05,-1.02,-0.08,-2.57,-22.13,44.32,228.0,,,0.0,1.0,1.0,100.0
8180,1,walk,walk,3211,,3211.0,20.0,0.0,6.0,2.0,6.93,-0.063,1.76,0.963,28.0,25.9,0.0,18.0,1283.0,20.0,-3.04,0.05,-0.98,-0.08,-2.63,-18.58,31.95,228.0,,,0.0,1.0,1.0,100.0
8200,1,walk,walk,3212,,3212.0,20.0,0.0,6.0,2.0,7.95,-0.041,1.292,1.099,28.0,25.9,0.0,18.0,1283.0,20.0,-3.34,0.06,-0.95,-0.07,-2.42,-14.36,18.42,228.0,,,0.0,1.0,1.0,100.0
8220,1,walk,walk,3213,,3213.0,20.0,0.0,6.0,2.0,8.93,-0.027,0.692,1.091,28.0,25.9,0.0,18.0,1283.0,20.0,-3.33,0.05,-0.92,-0.07,-1.97,-9.68,4.16,228.0,,,0.0,1.0,1.0,100.0
8240,1,walk,walk,3214,,3214.0,20.0,1.0,6.0,2.0,9.87,-0.018,0.581,0.908,28.0,25.93,0.0,19.0,1283.0,20.0,-2.94,0.05,-0.9,-0.07,-1.3,-4.75,-10.31,228.0,,,0.0,1.0,1.0,100.0
8240,1,walk,walk,3215,,3215.0,20.0,0.0,6.0,2.0,10.74,-0.009,0.563,0.413,28.0,25.93,0.0,18.0,1283.0,20.0,-2.13,0.03,-0.88,-0.07,-0.46,0.23,-24.51,228.0,,,0.0,1.0,1.0,100.0
8260,1,walk,walk,3216,,3216.0,20.0,1.0,6.0,2.0,11.51,-0.004,0.122,0.151,28.0,25.93,0.0,19.0,1283.0,20.0,-0.88,0.01,-0.87,-0.07,0.47,5.02,-38.03,228.0,,,0.0,1.0,1.0,100.0
8300,1,walk,walk,3217,,3217.0,20.0,1.0,6.0,2.0,12.17,-0.002,0.12,-0.013,28.0,25.97,0.0,19.0,1283.0,20.0,0.75,-0.01,-0.87,-0.08,1.43,9.47,-50.48,228.0,,,0.0,1.0,1.0,100.0
8300,1,walk,walk,3218,,3218.0,20.0,1.0,6.0,2.0,12.69,0.001,0.214,-0.186,28.0,25.93,0.0,19.0,1283.0,20.0,2.71,-0.04,-0.88,-0.08,2.33,13.43,-61.42,228.0,,,0.0,1.0,1.0,100.0
8320,1,walk,walk,3219,,3219.0,20.0,1.0,6.0,2.0,13.07,0.004,0.275,-0.498,28.0,25.93,0.0,19.0,1283.0,20.0,4.88,-0.08,-0.89,-0.09,3.06,16.8,-70.43,228.0,,,0.0,1.0,1.0,100.0
8340,1,walk,walk,3220,,3220.0,20.0,1.0,6.0,2.0,13.29,0.008,0.336,-0.787,28.0,25.93,0.0,19.0,1283.0,20.0,7.16,-0.11,-0.9,-0.1,3.49,19.48,-77.13,228.0,,,0.0,1.0,1.0,100.0
8360,1,walk,walk,3221,,3221.0,20.0,1.0,6.0,2.0,13.34,0.013,0.424,-1.235,28.0,25.93,0.0,19.0,1283.0,20.0,9.48,-0.15,-0.92,-0.12,3.5,21.37,-81.25,228.0,,,0.0,1.0,1.0,100.0
8400,1,walk,walk,3222,,3222.0,20.0,1.0,6.0,2.0,13.23,0.02,0.284,-1.333,28.0,25.93,0.0,19.0,1283.0,20.0,11.75,-0.2,-0.94,-0.13,3.02,22.42,-82.6,228.0,,,0.0,1.0,1.0,100.0
8400,1,walk,walk,3223,,3223.0,20.0,1.0,6.0,2.0,12.96,0.023,0.291,-1.466,28.0,25.93,0.0,19.0,1283.0,20.0,13.89,-0.24,-0.96,-0.14,2.03,22.57,-81.18,228.0,,,0.0,1.0,1.0,100.0
8420,1,walk,walk,3224,,3224.0,20.0,1.0,6.0,2.0,12.53,0.027,0.17,-1.601,28.0,25.9,0.0,19.0,1283.0,20.0,15.83,-0.28,-0.98,-0.15,0.59,21.86,-77.13,228.0,,,0.0,1.0,1.0,100.0
8440,1,walk,walk,3225,,3225.0,20.0,1.0,6.0,2.0,11.97,0.028,0.213,-1.827,28.0,25.9,0.0,19.0,1283.0,20.0,17.49,-0.31,-0.99,-0.16,-1.19,20.33,-70.8,228.0,,,0.0,1.0,1.0,100.0
8460,1,walk,walk,3226,,3226.0,20.0,1.0,6.0,2.0,11.29,0.034,0.743,-2.567,28.0,25.86,0.0,19.0,1283.0,20.0,18.55,-0.34,-1.01,-0.15,-3.05,18.34,-62.8,228.0,,,0.0,1.0,1.0,100.0
8480,1,walk,walk,3227,,3227.0,20.0,1.0,6.0,2.0,10.51,0.049,0.957,-3.508,28.0,25.76,0.0,19.0,1283.0,20.0,18.95,-0.35,-1.03,-0.15,-4.61,16.14,-53.69,228.0,,,0.0,1.0,1.0,100.0
8500,1,walk,walk,3228,,3228.0,20.0,1.0,6.0,2.0,9.66,0.05,-0.467,-2.565,28.0,25.83,0.0,19.0,1283.0,20.0,18.83,-0.36,-1.05,-0.14,-5.6,13.79,-44.09,228.0,,,0.0,1.0,1.0,100.0
8520,1,walk,walk,3229,,3229.0,20.0,1.0,6.0,2.0,8.76,0.044,-0.221,-2.523,28.0,25.83,0.0,19.0,1283.0,20.0,18.28,-0.35,-1.07,-0.12,-5.99,11.37,-34.6,228.0,,,0.0,1.0,1.0,100.0
8560,1,walk,walk,3230,,3230.0,20.0,1.0,6.0,2.0,7.83,0.038,-0.742,-1.852,28.0,25.86,0.0,19.0,1283.0,20.0,17.44,-0.34,-1.09,-0.1,-5.85,9.05,-25.49,228.0,,,0.0,1.0,1.0,100.0
8560,1,walk,walk,3231,,3231.0,20.0,1.0,6.0,2.0,6.91,0.026,-0.69,-1.228,28.0,25.9,0.0,19.0,1283.0,20.0,16.44,-0.33,-1.1,-0.08,-5.4,6.93,-17.05,228.0,,,0.0,1.0,1.0,100.0
8580,1,walk,walk,3232,,3232.0,20.0,1.0,6.0,2.0,6.01,0.019,-0.311,-1.236,28.0,25.93,0.0,19.0,1283.0,20.0,15.37,-0.31,-1.11,-0.06,-4.85,5.1,-9.57,228.0,,,0.0,1.0,1.0,100.0
8600,1,walk,walk,3233,,3233.0,20.0,1.0,6.0,2.0,5.16,0.018,-0.048,-1.199,28.0,25.9,0.0,19.0,1283.0,20.0,14.31,-0.29,-1.12,-0.05,-4.34,3.58,-3.3,228.0,,,0.0,1.0,1.0,100.0
8640,1,walk,walk,3234,,3234.0,20.0,1.0,6.0,2.0,4.37,0.018,0.111,-1.201,28.0,25.9,0.0,19.0,1283.0,20.0,13.29,-0.27,-1.12,-0.03,-3.9,2.38,1.59,228.0,,,0.0,1.0,1.0,100.0
8640,1,walk,walk,3235,,3235.0,20.0,1.0,6.0,2.0,3.65,0.019,0.177,-1.305,28.0,25.93,0.0,19.0,1283.0,20.0,12.34,-0.24,-1.12,-0.03,-3.55,1.5,5.01,228.0,,,0.0,1.0,1.0,100.0
8660,1,walk,walk,3236,,3236.0,20.0,1.0,6.0,2.0,3.02,0.022,0.229,-1.514,28.0,25.9,0.0,19.0,1283.0,20.0,11.46,-0.23,-1.11,-0.02,-3.28,0.91,6.92,228.0,,,0.0,1.0,1.0,100.0
8700,1,walk,walk,3237,,3237.0,20.0,1.0,6.0,2.0,2.48,0.028,0.382,-1.854,28.0,25.9,0.0,19.0,1283.0,20.0,10.63,-0.21,-1.11,-0.02,-3.1,0.59,7.42,228.0,,,0.0,1.0,1.0,100.0
8720,1,walk,walk,3238,,3238.0,20.0,1.0,6.0,2.0,2.03,0.035,0.532,-2.394,28.0,25.86,0.0,19.0,1283.0,20.0,9.83,-0.19,-1.1,-0.02,-3.02,0.52,6.62,228.0,,,0.0,1.0,1.0,100.0
8720,1,walk,walk,3239,,3239.0,20.0,0.0,6.0,2.0,1.67,0.043,0.661,-3.102,28.0,25.79,0.0,18.0,1283.0,20.0,9.02,-0.17,-1.09,-0.02,-3.05,0.65,4.72,228.0,,,0.0,1.0,1.0,100.0
8740,1,walk,walk,3240,,3240.0,20.0,0.0,6.0,2.0,1.39,0.055,0.895,-3.843,28.0,25.72,0.0,18.0,1283.0,20.0,8.18,-0.16,-1.08,-0.03,-3.18,0.97,1.95,228.0,,,0.0,1.0,1.0,100.0
8760,1,walk,walk,3241,,3241.0,20.0,1.0,6.0,2.0,1.19,0.066,0.696,-4.361,28.0,25.65,0.0,19.0,1283.0,20.0,7.27,-0.14,-1.07,-0.03,-3.37,1.4,-1.33,228.0,,,0.0,1.0,1.0,100.0
8780,1,walk,walk,3242,,3242.0,20.0,1.0,6.0,2.0,1.06,0.073,0.061,-4.287,28.0,25.58,0.0,19.0,1283.0,20.0,6.25,-0.12,-1.06,-0.04,-3.6,1.8,-4.58,228.0,,,0.0,1.0,1.0,100.0
8800,1,walk,walk,3243,,3243.0,20.0,1.0,6.0,2.0,0.98,0.071,-0.253,-4.077,28.0,25.62,0.0,19.0,1283.0,20.0,5.12,-0.09,-1.06,-0.05,-3.8,2.06,-7.24,228.0,,,0.0,1.0,1.0,100.0
8820,1,walk,walk,3244,,3244.0,20.0,1.0,6.0,2.0,0.94,0.064,-0.648,-3.55,28.0,25.69,0.0,19.0,1283.0,20.0,3.93,-0.07,-1.05,-0.06,-3.89,2.13,-8.85,228.0,,,0.0,1.0,1.0,100.0
8880,1,walk,walk,3245,,3245.0,20.0,1.0,6.0,2.0,0.94,0.053,-0.656,-2.866,28.0,25.76,0.0,19.0,1283.0,20.0,2.76,-0.05,-1.05,-0.06,-3.83,2.02,-9.24,228.0,,,0.0,1.0,1.0,100.0
8880,1,walk,walk,3246,,3246.0,20.0,1.0,6.0,2.0,0.95,0.043,-0.628,-2.349,28.0,25.83,0.0,19.0,1283.0,20.0,1.68,-0.03,-1.05,-0.07,-3.62,1.75,-8.44,228.0,,,0.0,1.0,1.0,100.0
8880,1,walk,walk,3247,,3247.0,20.0,1.0,6.0,2.0,0.97,0.035,-0.508,-1.861,28.0,25.86,0.0,19.0,1283.0,20.0,0.73,-0.01,-1.04,-0.08,-3.24,1.36,-6.65,228.0,,,0.0,1.0,1.0,100.0
8920,1,walk,walk,3248,,3248.0,20.0,1.0,6.0,2.0,0.99,0.027,-0.618,-1.377,28.0,25.9,0.0,19.0,1283.0,20.0,-0.08,0.0,-1.04,-0.09,-2.68,0.9,-4.05,228.0,,,0.0,1.0,1.0,100.0
8920,1,walk,walk,3249,,3249.0,20.0,1.0,6.0,2.0,1.01,0.018,-0.66,-0.945,28.0,25.9,0.0,19.0,1283.0,20.0,-0.75,0.01,-1.04,-0.09,-1.93,0.42,-0.78,228.0,,,0.0,1.0,1.0,100.0
8960,1,walk,walk,3250,,3250.0,20.0,1.0,6.0,2.0,1.03,0.008,-0.718,-0.267,28.0,25.93,0.0,19.0,1283.0,20.0,-1.3,0.02,-1.04,-0.1,-0.94,-0.07,3.11,228.0,,,0.0,1.0,1.0,100.0
8980,1,walk,walk,3251,,3251.0,20.0,1.0,6.0,2.0,1.03,-0.001,-0.684,0.62,28.0,25.93,0.0,19.0,1283.0,20.0,-1.72,0.03,-1.04,-0.11,0.29,-0.65,7.55,228.0,,,0.0,1.0,1.0,100.0
9000,1,walk,walk,3252,,3252.0,20.0,1.0,6.0,2.0,1.03,-0.01,-0.567,1.156,28.0,25.93,0.0,19.0,1283.0,20.0,-2.04,0.04,-1.05,-0.11,1.71,-1.35,12.46,228.0,,,0.0,1.0,1.0,100.0
9020,1,walk,walk,3253,,3253.0,20.0,1.0,6.0,2.0,1.03,-0.021,-0.753,1.728,28.0,25.9,0.0,19.0,1283.0,20.0,-2.28,0.04,-1.05,-0.11,3.2,-2.18,17.82,228.0,,,0.0,1.0,1.0,100.0
9020,1,walk,walk,3254,,3254.0,20.0,1.0,6.0,2.0,1.04,-0.027,-0.117,1.516,28.0,25.9,0.0,19.0,1283.0,20.0,-2.48,0.05,-1.06,-0.11,4.66,-3.08,23.56,228.0,,,0.0,1.0,1.0,100.0
9060,1,walk,walk,3255,,3255.0,20.0,1.0,6.0,2.0,1.05,-0.026,0.245,1.324,28.0,25.9,0.0,19.0,1283.0,20.0,-2.64,0.05,-1.07,-0.11,5.99,-3.99,29.63,228.0,,,0.0,1.0,1.0,100.0
9060,1,walk,walk,3256,,3256.0,20.0,1.0,6.0,2.0,1.09,-0.022,0.39,1.064,28.0,25.9,0.0,19.0,1283.0,20.0,-2.76,0.05,-1.08,-0.11,7.08,-4.88,35.97,228.0,,,0.0,1.0,1.0,100.0
9100,1,walk,walk,3257,,3257.0,20.0,1.0,6.0,2.0,1.15,-0.015,0.471,0.767,28.0,25.93,0.0,19.0,1283.0,20.0,-2.8,0.05,-1.1,-0.11,7.81,-5.77,42.55,228.0,,,0.0,1.0,1.0,100.0
9100,1,walk,walk,3258,,3258.0,20.0,1.0,6.0,2.0,1.25,-0.009,0.385,0.347,28.0,25.93,0.0,19.0,1283.0,20.0,-2.76,0.05,-1.11,-0.11,8.13,-6.7,49.37,228.0,,,0.0,1.0,1.0,100.0
9120,1,walk,walk,3259,,3259.0,20.0,1.0,6.0,2.0,1.39,-0.004,0.414,-0.138,28.0,25.93,0.0,19.0,1283.0,20.0,-2.63,0.05,-1.13,-0.1,8.02,-7.7,56.41,228.0,,,0.0,1.0,1.0,100.0
9160,1,walk,walk,3260,,3260.0,20.0,1.0,6.0,2.0,1.58,0.004,0.489,-0.753,28.0,25.93,0.0,19.0,1283.0,20.0,-2.38,0.05,-1.15,-0.1,7.54,-8.77,63.51,228.0,,,0.0,1.0,1.0,100.0
9200,1,walk,walk,3261,,3261.0,20.0,1.0,6.0,2.0,1.83,0.012,0.63,-1.287,28.0,25.93,0.0,19.0,1283.0,20.0,-2.04,0.04,-1.16,-0.1,6.77,-9.96,70.29,228.0,,,0.0,1.0,1.0,100.0
9200,1,walk,walk,3262,,3262.0,20.0,1.0,6.0,2.0,2.15,0.019,0.127,-1.199,28.0,25.93,0.0,19.0,1283.0,20.0,-1.64,0.03,-1.17,-0.1,5.83,-11.35,76.09,228.0,,,0.0,1.0,1.0,100.0
9220,1,walk,walk,3263,,3263.0,20.0,1.0,6.0,2.0,2.55,0.018,-0.01,-1.102,28.0,25.93,0.0,19.0,1283.0,20.0,-1.3,0.03,-1.18,-0.1,4.87,-13.02,80.16,228.0,,,0.0,1.0,1.0,100.0
9220,1,walk,walk,3264,,3264.0,20.0,1.0,6.0,2.0,3.03,0.017,-0.052,-1.006,28.0,25.93,0.0,19.0,1283.0,20.0,-1.12,0.02,-1.17,-0.09,4.04,-14.96,81.92,228.0,,,0.0,1.0,1.0,100.0
9240,1,walk,walk,3265,,3265.0,20.0,0.0,6.0,2.0,3.59,0.014,-0.201,-0.804,28.0,25.93,0.0,18.0,1283.0,20.0,-1.17,0.02,-1.16,-0.09,3.4,-16.99,80.94,228.0,,,0.0,1.0,1.0,100.0
9260,1,walk,walk,3266,,3266.0,20.0,1.0,6.0,2.0,4.23,0.011,-0.179,-0.596,28.0,25.93,0.0,19.0,1283.0,20.0,-1.5,0.03,-1.14,-0.09,2.97,-18.79,77.0,228.0,,,0.0,1.0,1.0,100.0
9280,1,walk,walk,3267,,3267.0,20.0,1.0,6.0,2.0,4.94,0.009,-0.194,-0.425,28.0,25.93,0.0,19.0,1283.0,20.0,-2.11,0.04,-1.11,-0.09,2.73,-19.95,70.11,228.0,,,0.0,1.0,1.0,100.0
9300,1,walk,walk,3268,,3268.0,20.0,1.0,0.0,5.0,5.73,0.006,-0.087,-0.305,28.0,25.93,0.0,19.0,1851.0,20.0,-2.98,0.06,-1.07,-0.09,2.6,-20.06,60.54,228.0,,,0.0,1.0,1.0,100.0
9320,1,walk,walk,3269,,3269.0,20.0,0.0,0.0,5.0,6.57,0.005,-0.085,-0.291,28.0,25.93,0.0,19.0,1851.0,20.0,-3.99,0.07,-1.04,-0.08,2.53,-18.81,48.65,228.0,,,0.0,1.0,1.0,100.0
9380,1,walk,walk,3270,,3270.0,20.0,0.0,0.0,5.0,7.45,0.005,-0.085,-0.291,28.0,25.93,0.0,39.0,1851.0,20.0,-5.02,0.09,-1.0,-0.08,2.49,-16.07,34.92,228.0,,,0.0,1.0,1.0,100.0
9380,1,walk,walk,3271,,3271.0,20.0,0.0,0.0,5.0,8.35,0.005,-0.085,-0.291,28.0,25.93,0.0,59.0,1851.0,20.0,-5.9,0.1,-0.97,-0.08,2.49,-12.04,19.77,228.0,,,0.0,1.0,1.0,100.0
9380,1,walk,walk,3272,,3272.0,20.0,0.0,0.0,5.0,9.24,0.034,3.752,0.0,28.0,26.0,0.0,1.0,1851.0,20.0,-6.44,0.11,-0.94,-0.08,2.54,-7.11,3.64,228.0,,,0.0,1.0,1.0,100.0
9400,1,walk,walk,3273,,3273.0,20.0,0.0,0.0,6.0,10.1,0.047,1.121,0.0,28.0,25.97,0.0,1.0,1851.0,20.0,-6.47,0.1,-0.91,-0.09,2.62,-1.88,-13.05,228.0,,,0.0,1.0,1.0,100.0
9420,1,walk,walk,3274,,3274.0,20.0,0.0,0.0,6.0,10.9,0.067,1.527,0.0,28.0,25.97,0.0,1.0,1851.0,20.0,-5.89,0.09,-0.9,-0.1,2.72,3.06,-29.85,228.0,,,0.0,1.0,1.0,100.0
9440,1,walk,walk,3275,,3275.0,20.0,0.0,0.0,6.0,11.61,0.092,1.721,0.0,28.0,25.97,0.0,1.0,1851.0,20.0,-4.64,0.07,-0.89,-0.11,2.79,7.22,-46.26,228.0,,,0.0,1.0,1.0,100.0
9460,1,walk,walk,3276,,3276.0,20.0,0.0,0.0,6.0,12.21,0.121,2.07,0.0,28.0,25.97,0.0,1.0,1851.0,20.0,-2.78,0.04,-0.88,-0.12,2.77,10.37,-61.69,228.0,,,0.0,1.0,1.0,100.0
9480,1,walk,walk,3277,,3277.0,20.0,0.0,0.0,6.0,12.67,0.154,2.259,0.0,28.0,25.97,0.0,1.0,1851.0,20.0,-0.39,0.01,-0.89,-0.13,2.57,12.41,-75.52,228.0,,,0.0,1.0,1.0,100.0
9540,1,walk,walk,3278,,3278.0,20.0,0.0,0.0,6.0,12.98,0.182,1.529,0.0,28.0,25.97,0.0,1.0,1851.0,20.0,2.4,-0.04,-0.9,-0.14,2.09,13.41,-87.14,228.0,,,0.0,1.0,1.0,100.0
9540,1,walk,walk,3279,,3279.0,20.0,0.0,0.0,6.0,13.11,0.201,1.061,0.0,28.0,25.97,0.0,1.0,1851.0,20.0,5.45,-0.09,-0.92,-0.16,1.25,13.66,-95.91,228.0,,,0.0,1.0,1.0,100.0
9540,1,walk,walk,3280,,3280.0,20.0,0.0,0.0,6.0,13.07,0.213,0.671,0.0,28.0,25.97,0.0,1.0,1851.0,20.0,8.62,-0.14,-0.94,-0.17,0.02,13.47,-101.3,228.0,,,0.0,1.0,1.0,100.0
9560,1,walk,walk,3281,,3281.0,20.0,0.0,0.0,6.0,12.83,0.222,0.762,0.0,28.0,25.97,0.0,1.0,1851.0,20.0,11.74,-0.2,-0.96,-0.17,-1.6,13.07,-102.99,228.0,,,0.0,1.0,1.0,100.0
9600,1,walk,walk,3282,,3282.0,20.0,0.0,0.0,7.0,12.42,0.236,0.934,0.0,28.0,25.97,0.0,1.0,1851.0,20.0,14.68,-0.26,-0.98,-0.18,-3.54,12.53,-101.04,228.0,,,0.0,1.0,1.0,100.0
9600,1,walk,walk,3283,,3283.0,20.0,0.0,0.0,7.0,11.83,0.231,-1.521,0.0,28.0,25.97,0.0,1.0,1851.0,20.0,17.06,-0.31,-1.0,-0.18,-5.43,12.0,-96.05,228.0,,,0.0,1.0,1.0,100.0
9620,1,walk,walk,3284,,3284.0,20.0,0.0,0.0,7.0,11.08,0.235,0.238,0.0,28.0,25.97,0.0,1.0,1851.0,20.0,18.55,-0.35,-1.03,-0.17,-6.81,11.25,-88.95,228.0,,,0.0,1.0,1.0,100.0
9640,1,walk,walk,3285,,3285.0,20.0,0.0,0.0,7.0,10.2,0.21,-3.225,0.0,28.0,25.97,0.0,1.0,1851.0,20.0,19.11,-0.37,-1.07,-0.15,-7.44,10.22,-80.14,228.0,,,0.0,1.0,1.0,100.0
9660,1,walk,walk,3286,,3286.0,20.0,0.0,0.0,7.0,9.2,0.173,-1.468,0.0,28.0,25.97,0.0,1.0,1851.0,20.0,18.82,-0.37,-1.1,-0.13,-7.38,9.09,-69.89,228.0,,,0.0,1.0,1.0,100.0
9700,1,walk,walk,3287,,3287.0,20.0,0.0,0.0,7.0,8.12,0.152,-1.425,0.0,28.0,25.97,0.0,1.0,1851.0,20.0,17.9,-0.36,-1.13,-0.1,-6.87,7.96,-58.67,228.0,,,0.0,1.0,1.0,100.0
9700,1,walk,walk,3288,,3288.0,20.0,0.0,0.0,7.0,6.98,0.142,-0.399,0.0,28.0,25.97,0.0,1.0,1851.0,20.0,16.58,-0.34,-1.15,-0.07,-6.19,6.87,-47.13,228.0,,,0.0,1.0,1.0,100.0
9720,1,walk,walk,3289,,3289.0,20.0,0.0,0.0,7.0,5.8,0.128,-1.01,0.0,28.0,25.97,0.0,1.0,1851.0,20.0,15.02,-0.31,-1.17,-0.05,-5.5,5.86,-35.82,228.0,,,0.0,1.0,1.0,100.0
9740,1,walk,walk,3290,,3290.0,20.0,0.0,0.0,7.0,4.63,0.12,-0.532,0.0,28.0,25.97,0.0,1.0,1851.0,20.0,13.36,-0.28,-1.18,-0.03,-4.88,4.94,-25.21,228.0,,,0.0,1.0,1.0,100.0
9760,1,walk,walk,3291,,3291.0,20.0,0.0,0.0,7.0,3.47,0.113,-0.346,0.0,28.0,25.97,0.0,1.0,1851.0,20.0,11.71,-0.25,-1.18,-0.01,-4.35,4.11,-15.74,228.0,,,0.0,1.0,1.0,100.0
9780,1,walk,walk,3292,,3292.0,20.0,0.0,0.0,7.0,2.35,0.109,-0.16,0.0,28.0,25.97,0.0,1.0,1851.0,20.0,10.14,-0.21,-1.18,-0.01,-3.9,3.37,-7.71,228.0,,,0.0,1.0,1.0,100.0
9800,1,walk,walk,3293,,3293.0,20.0,0.0,0.0,1.0,1.29,0.109,0.034,0.0,28.0,25.97,0.0,1.0,1851.0,20.0,8.69,-0.18,-1.18,0.0,-3.53,2.72,-1.32,228.0,,,0.0,1.0,1.0,100.0
9840,1,walk,walk,3294,,3294.0,20.0,0.0,0.0,1.0,0.31,0.109,-0.037,0.0,28.0,25.97,0.0,1.0,1851.0,20.0,7.36,-0.15,-1.16,0.0,-3.25,2.14,3.36,228.0,,,0.0,1.0,1.0,100.0
9840,1,walk,walk,3295,,3295.0,20.0,0.0,0.0,1.0,-0.59,0.11,0.209,0.0,28.0,25.97,0.0,1.0,1851.0,20.0,6.17,-0.12,-1.15,-0.01,-3.06,1.67,6.39,228.0,,,0.0,1.0,1.0,100.0
9860,1,walk,walk,3296,,3296.0,20.0,0.0,0.0,1.0,-1.4,0.116,0.601,0.0,28.0,25.97,0.0,1.0,1851.0,20.0,5.1,-0.1,-1.14,-0.01,-3.0,1.28,7.86,228.0,,,0.0,1.0,1.0,100.0
9880,1,walk,walk,3297,,3297.0,20.0,0.0,0.0,1.0,-2.11,0.126,0.54,0.0,28.0,25.97,0.0,1.0,1851.0,20.0,4.15,-0.08,-1.12,-0.02,-3.05,0.94,7.87,228.0,,,0.0,1.0,1.0,100.0
9920,1,walk,walk,3298,,3298.0,20.0,0.0,0.0,1.0,-2.71,0.138,0.994,0.0,28.0,25.97,0.0,1.0,1851.0,20.0,3.29,-0.06,-1.1,-0.03,-3.21,0.69,6.58,228.0,,,0.0,1.0,1.0,100.0
9940,1,walk,walk,3299,,3299.0,20.0,0.0,0.0,1.0,-3.23,0.157,1.274,0.0,28.0,25.97,0.0,1.0,1851.0,20.0,2.5,-0.05,-1.09,-0.04,-3.47,0.53,4.1,228.0,,,0.0,1.0,1.0,100.0
9940,1,walk,walk,3300,,3300.0,20.0,0.0,0.0,1.0,-3.65,0.181,1.342,0.0,28.0,25.97,0.0,1.0,1851.0,20.0,1.77,-0.03,-1.08,-0.04,-3.8,0.48,0.55,228.0,,,0.0,1.0,1.0,100.0
9960,1,walk,walk,3301,,3301.0,20.0,1.0,0.0,1.0,-3.98,0.198,1.024,0.0,28.0,25.97,0.0,2.0,1851.0,20.0,1.02,-0.02,-1.06,-0.05,-4.19,0.5,-3.72,228.0,,,0.0,1.0,1.0,100.0
10000,1,walk,walk,3302,,3302.0,20.0,1.0,0.0,1.0,-4.25,0.2,-0.085,0.0,28.0,25.97,0.0,2.0,1851.0,20.0,0.18,0.0,-1.06,-0.06,-4.57,0.54,-8.02,228.0,,,0.0,1.0,1.0,100.0
10000,1,walk,walk,3303,,3303.0,20.0,1.0,0.0,1.0,-4.45,0.197,-0.628,0.0,28.0,25.97,0.0,2.0,1851.0,20.0,-0.76,0.01,-1.05,-0.07,-4.83,0.56,-11.64,228.0,,,0.0,1.0,1.0,100.0
10040,1,walk,walk,3304,,3304.0,20.0,1.0,0.0,1.0,-4.6,0.185,-0.966,0.0,28.0,25.97,0.0,2.0,1851.0,20.0,-1.79,0.03,-1.04,-0.08,-4.91,0.52,-14.07,228.0,,,0.0,1.0,1.0,100.0
10060,1,walk,walk,3305,,3305.0,20.0,1.0,0.0,1.0,-4.72,0.173,-0.687,0.0,28.0,25.97,0.0,2.0,1851.0,20.0,-2.83,0.05,-1.04,-0.09,-4.77,0.47,-15.08,228.0,,,0.0,1.0,1.0,100.0
10060,1,walk,walk,3306,,3306.0,20.0,1.0,0.0,1.0,-4.82,0.165,-0.669,0.0,28.0,25.97,0.0,2.0,1851.0,20.0,-3.83,0.07,-1.03,-0.1,-4.41,0.4,-14.75,228.0,,,0.0,1.0,1.0,100.0
10080,1,walk,walk,3307,,3307.0,20.0,1.0,0.0,1.0,-4.91,0.154,-0.691,0.0,28.0,25.97,0.0,2.0,1851.0,20.0,-4.73,0.09,-1.03,-0.1,-3.83,0.34,-13.26,228.0,,,0.0,1.0,1.0,100.0
10100,1,walk,walk,3308,,3308.0,20.0,1.0,0.0,1.0,-4.99,0.146,-0.643,0.0,28.0,25.97,0.0,2.0,1851.0,20.0,-5.52,0.1,-1.03,-0.11,-3.04,0.32,-10.83,228.0,,,0.0,1.0,1.0,100.0
10120,1,walk,walk,3309,,3309.0,20.0,1.0,0.0,1.0,-5.08,0.134,-0.986,0.0,28.0,25.97,0.0,2.0,1851.0,20.0,-6.2,0.11,-1.03,-0.12,-2.03,0.37,-7.61,228.0,,,0.0,1.0,1.0,100.0
10140,1,walk,walk,3310,,3310.0,20.0,1.0,0.0,1.0,-5.17,0.122,-0.704,0.0,27.0,25.97,0.0,2.0,1851.0,20.0,-6.77,0.12,-1.03,-0.12,-0.8,0.47,-3.73,228.0,,,0.0,1.0,1.0,100.0
10180,1,walk,walk,3311,,3311.0,20.0,1.0,0.0,1.0,-5.27,0.105,-1.597,0.0,28.0,25.97,0.0,2.0,1851.0,20.0,-7.23,0.13,-1.03,-0.13,0.64,0.62,0.79,228.0,,,0.0,1.0,1.0,100.0
10180,1,walk,walk,3312,,3312.0,20.0,0.0,0.0,1.0,-5.37,0.083,-1.775,0.0,27.0,25.97,0.0,1.0,1851.0,20.0,-7.59,0.14,-1.03,-0.13,2.23,0.84,5.98,228.0,,,0.0,1.0,1.0,100.0
10220,1,walk,walk,3313,,3313.0,20.0,0.0,0.0,1.0,-5.47,0.056,-1.899,0.0,28.0,25.97,0.0,1.0,1851.0,20.0,-7.84,0.14,-1.03,-0.13,3.87,1.14,11.86,228.0,,,0.0,1.0,1.0,100.0
10220,1,walk,walk,3314,,3314.0,20.0,0.0,0.0,1.0,-5.57,0.028,-1.905,0.0,28.0,25.97,0.0,1.0,1851.0,20.0,-7.99,0.15,-1.03,-0.13,5.48,1.54,18.43,228.0,,,0.0,1.0,1.0,100.0
10240,1,walk,walk,3315,,3315.0,20.0,0.0,0.0,1.0,-5.65,0.004,-1.392,0.0,27.0,25.97,0.0,1.0,1851.0,20.0,-8.03,0.15,-1.04,-0.13,6.94,1.99,25.56,228.0,,,0.0,1.0,1.0,100.0
10260,1,walk,walk,3316,,3316.0,20.0,0.0,0.0,1.0,-5.71,-0.007,0.169,0.0,27.0,25.97,0.0,1.0,1851.0,20.0,-7.99,0.15,-1.04,-0.13,8.13,2.29,33.03,228.0,,,0.0,1.0,1.0,100.0
10280,1,walk,walk,3317,,3317.0,20.0,0.0,0.0,1.0,-5.74,-0.006,0.018,0.0,28.0,25.97,0.0,1.0,1851.0,20.0,-7.87,0.15,-1.05,-0.13,8.98,2.26,40.61,228.0,,,0.0,1.0,1.0,100.0
10320,1,walk,walk,3318,,3318.0,20.0,0.0,0.0,1.0,-5.73,-0.004,0.229,0.0,27.0,25.97,0.0,1.0,1851.0,20.0,-7.69,0.14,-1.07,-0.13,9.39,1.73,48.1,228.0,,,0.0,1.0,1.0,100.0
10340,1,walk,walk,3319,,3319.0,20.0,0.0,0.0,1.0,-5.67,0.001,0.495,0.0,27.0,25.97,0.0,1.0,1851.0,20.0,-7.41,0.14,-1.08,-0.12,9.32,0.58,55.29,228.0,,,0.0,1.0,1.0,100.0
10340,1,walk,walk,3320,,3320.0,20.0,0.0,0.0,1.0,-5.55,0.014,1.048,0.0,28.0,25.97,0.0,1.0,1851.0,20.0,-7.01,0.14,-1.1,-0.12,8.79,-1.35,61.87,228.0,,,0.0,1.0,1.0,100.0
10360,1,walk,walk,3321,,3321.0,20.0,0.0,0.0,1.0,-5.36,0.023,-0.146,0.0,27.0,25.97,0.0,1.0,1851.0,20.0,-6.51,0.13,-1.11,-0.13,7.92,-4.1,67.48,228.0,,,0.0,1.0,1.0,100.0
10380,1,walk,walk,3322,,3322.0,20.0,0.0,0.0,1.0,-5.09,0.021,-0.206,0.0,27.0,25.97,0.0,1.0,1851.0,20.0,-5.95,0.12,-1.13,-0.13,6.84,-7.67,71.71,228.0,,,0.0,1.0,1.0,100.0
10400,1,walk,walk,3323,,3323.0,20.0,0.0,0.0,1.0,-4.74,0.019,-0.062,0.0,27.0,25.97,0.0,1.0,1851.0,20.0,-5.44,0.11,-1.13,-0.13,5.71,-11.88,74.24,228.0,,,0.0,1.0,1.0,100.0
10420,1,walk,walk,3324,,3324.0,20.0,0.0,0.0,1.0,-4.31,0.016,-0.308,0.0,28.0,25.97,0.0,1.0,1851.0,20.0,-5.06,0.1,-1.14,-0.13,4.61,-16.44,74.76,228.0,,,0.0,1.0,1.0,100.0
10440,1,walk,walk,3325,,3325.0,20.0,0.0,0.0,1.0,-3.78,0.011,-0.433,0.0,27.0,25.97,0.0,1.0,1851.0,20.0,-4.91,0.1,-1.13,-0.13,3.58,-20.85,73.13,228.0,,,0.0,1.0,1.0,100.0
10460,1,walk,walk,3326,,3326.0,20.0,0.0,0.0,1.0,-3.17,0.001,-0.767,0.0,27.0,25.97,0.0,1.0,1851.0,20.0,-5.01,0.1,-1.12,-0.12,2.59,-24.62,69.36,228.0,,,0.0,1.0,1.0,100.0
10500,1,walk,walk,3327,,3327.0,20.0,0.0,0.0,1.0,-2.49,-0.007,-0.199,0.0,27.0,25.97,0.0,1.0,1851.0,20.0,-5.37,0.1,-1.1,-0.12,1.62,-27.26,63.52,228.0,,,0.0,1.0,1.0,100.0
10500,1,walk,walk,3328,,3328.0,20.0,0.0,0.0,1.0,-1.73,-0.007,-0.013,0.0,27.0,25.97,0.0,1.0,1851.0,20.0,-5.97,0.11,-1.08,-0.12,0.64,-28.38,55.75,228.0,,,0.0,1.0,1.0,100.0
10520,1,walk,walk,3329,,3329.0,20.0,0.0,0.0,1.0,-0.91,-0.007,0.062,0.0,27.0,25.97,0.0,1.0,1851.0,20.0,-6.72,0.12,-1.05,-0.11,-0.33,-27.76,46.29,228.0,,,0.0,1.0,1.0,100.0
10560,1,walk,walk,3330,,3330.0,20.0,0.0,0.0,1.0,-0.05,-0.007,0.095,0.0,27.0,25.97,0.0,1.0,1851.0,20.0,-7.51,0.13,-1.02,-0.11,-1.24,-25.4,35.45,228.0,,,0.0,1.0,1.0,100.0
10560,1,walk,walk,3331,,3331.0,20.0,0.0,6.0,2.0,0.83,-0.007,-0.005,0.0,27.0,25.97,0.0,1.0,1851.0,20.0,-8.2,0.14,-0.99,-0.1,-2.03,-21.48,23.6,228.0,,,0.0,1.0,1.0,100.0
10580,1,walk,walk,3332,,3332.0,20.0,0.0,6.0,2.0,1.71,-0.007,-0.017,0.057,27.0,25.97,0.0,18.0,1851.0,20.0,-8.65,0.15,-0.97,-0.1,-2.65,-16.36,11.11,228.0,,,0.0,1.0,1.0,100.0
10600,1,walk,walk,3333,,3333.0,20.0,0.0,6.0,2.0,2.57,-0.006,0.112,0.229,27.0,25.93,0.0,18.0,1851.0,20.0,-8.71,0.15,-0.95,-0.1,-3.05,-10.53,-1.68,228.0,,,0.0,1.0,1.0,100.0
10620,1,walk,walk,3334,,3334.0,20.0,0.0,6.0,2.0,3.38,-0.005,0.003,0.154,27.0,25.93,0.0,18.0,1851.0,20.0,-8.29,0.14,-0.93,-0.1,-3.21,-4.53,-14.46,228.0,,,0.0,1.0,1.0,100.0
10660,1,walk,walk,3335,,3335.0,20.0,1.0,6.0,2.0,4.13,-0.003,0.181,0.036,27.0,25.97,0.0,19.0,1851.0,20.0,-7.33,0.12,-0.92,-0.11,-3.17,1.17,-26.94,228.0,,,0.0,1.0,1.0,100.0
10660,1,walk,walk,3336,,3336.0,20.0,0.0,6.0,2.0,4.79,-0.001,0.225,-0.16,27.0,25.93,0.0,18.0,1851.0,20.0,-5.83,0.09,-0.91,-0.12,-2.99,6.16,-38.8,228.0,,,0.0,1.0,1.0,100.0
10680,1,walk,walk,3337,,3337.0,20.0,1.0,6.0,2.0,5.34,0.003,0.237,-0.532,27.0,25.93,0.0,19.0,1851.0,20.0,-3.82,0.06,-0.9,-0.12,-2.78,10.21,-49.67,228.0,,,0.0,1.0,1.0,100.0
10700,1,walk,walk,3338,,3338.0,20.0,1.0,6.0,2.0,5.77,0.009,0.449,-0.973,27.0,25.97,0.0,19.0,1851.0,20.0,-1.36,0.02,-0.9,-0.13,-2.63,13.17,-59.17,228.0,,,0.0,1.0,1.0,100.0
10720,1,walk,walk,3339,,3339.0,20.0,1.0,6.0,2.0,6.06,0.017,0.626,-1.412,27.0,25.93,0.0,19.0,1851.0,20.0,1.43,-0.02,-0.91,-0.14,-2.63,15.03,-66.93,228.0,,,0.0,1.0,1.0,100.0
10740,1,walk,walk,3340,,3340.0,20.0,1.0,6.0,2.0,6.21,0.023,0.339,-1.514,27.0,25.9,0.0,19.0,1851.0,20.0,4.45,-0.07,-0.91,-0.15,-2.84,15.86,-72.61,228.0,,,0.0,1.0,1.0,100.0
10760,1,walk,walk,3341,,3341.0,20.0,1.0,6.0,2.0,6.21,0.028,0.283,-1.708,27.0,25.9,0.0,19.0,1851.0,20.0,7.54,-0.12,-0.92,-0.16,-3.3,15.8,-75.96,228.0,,,0.0,1.0,1.0,100.0
10800,1,walk,walk,3342,,3342.0,20.0,1.0,6.0,2.0,6.06,0.031,0.248,-1.961,27.0,25.86,0.0,19.0,1851.0,20.0,10.4,-0.17,-0.93,-0.16,-3.99,15.02,-76.83,228.0,,,0.0,1.0,1.0,100.0
10800,1,walk,walk,3343,,3343.0,20.0,1.0,6.0,2.0,5.78,0.041,1.149,-3.427,27.0,25.79,0.0,19.0,1851.0,20.0,12.55,-0.21,-0.95,-0.16,-4.7,14.08,-75.27,228.0,,,0.0,1.0,1.0,100.0
10820,1,walk,walk,3344,,3344.0,20.0,1.0,6.0,2.0,5.36,0.058,1.048,-4.111,27.0,25.72,0.0,19.0,1851.0,20.0,13.75,-0.24,-0.97,-0.15,-5.15,13.5,-71.51,228.0,,,0.0,1.0,1.0,100.0
10840,1,walk,walk,3345,,3345.0,20.0,1.0,6.0,2.0,4.83,0.075,1.249,-5.196,27.0,25.54,0.0,19.0,1851.0,20.0,14.08,-0.25,-0.99,-0.14,-5.23,13.47,-65.8,228.0,,,0.0,1.0,1.0,100.0
10880,1,walk,walk,3346,,3346.0,20.0,1.0,6.0,2.0,4.19,0.091,0.719,-5.901,27.0,25.4,0.0,19.0,1851.0,20.0,13.8,-0.25,-1.02,-0.12,-4.98,13.85,-58.53,228.0,,,0.0,1.0,1.0,100.0
10900,1,walk,walk,3347,,3347.0,20.0,1.0,6.0,2.0,3.48,0.094,-0.08,-5.522,27.0,25.4,0.0,19.0,1851.0,20.0,13.16,-0.24,-1.04,-0.1,-4.47,14.26,-50.19,228.0,,,0.0,1.0,1.0,100.0
10900,1,walk,walk,3348,,3348.0,20.0,1.0,6.0,2.0,2.7,0.091,-0.48,-5.117,27.0,25.44,0.0,19.0,1851.0,20.0,12.3,-0.23,-1.07,-0.08,-3.81,14.37,-41.23,228.0,,,0.0,1.0,1.0,100.0
10960,1,walk,walk,3349,,3349.0,20.0,1.0,6.0,2.0,1.89,0.078,-1.049,-3.942,27.0,25.58,0.0,19.0,1851.0,20.0,11.33,-0.22,-1.09,-0.07,-3.06,14.06,-31.94,228.0,,,0.0,1.0,1.0,100.0
10960,1,walk,walk,3350,,3350.0,20.0,1.0,6.0,2.0,1.06,0.062,-1.192,-3.274,27.0,25.72,0.0,19.0,1851.0,20.0,10.34,-0.2,-1.1,-0.06,-2.3,13.32,-22.57,228.0,,,0.0,1.0,1.0,100.0
10960,1,walk,walk,3351,,3351.0,20.0,1.0,6.0,2.0,0.23,0.048,-0.675,-2.618,27.0,25.76,0.0,19.0,1851.0,20.0,9.38,-0.18,-1.11,-0.05,-1.6,12.2,-13.42,228.0,,,0.0,1.0,1.0,100.0
10980,1,walk,walk,3352,,3352.0,20.0,1.0,6.0,2.0,-0.57,0.037,-0.812,-1.937,27.0,25.83,0.0,19.0,1851.0,20.0,8.48,-0.17,-1.12,-0.05,-0.96,10.79,-4.82,228.0,,,0.0,1.0,1.0,100.0
11000,1,walk,walk,3353,,3353.0,20.0,1.0,6.0,2.0,-1.32,0.027,-0.7,-1.358,27.0,25.86,0.0,19.0,1851.0,20.0,7.67,-0.15,-1.12,-0.05,-0.4,9.16,2.96,228.0,,,0.0,1.0,1.0,100.0
11020,1,walk,walk,3354,,3354.0,20.0,1.0,6.0,2.0,-2.02,0.019,-0.445,-1.087,27.0,25.9,0.0,19.0,1851.0,20.0,6.97,-0.14,-1.12,-0.05,0.11,7.42,9.71,228.0,,,0.0,1.0,1.0,100.0
11040,1,walk,walk,3355,,3355.0,20.0,1.0,6.0,2.0,-2.64,0.014,-0.297,-0.895,27.0,25.93,0.0,19.0,1851.0,20.0,6.37,-0.12,-1.11,-0.05,0.56,5.71,15.25,228.0,,,0.0,1.0,1.0,100.0
11060,1,walk,walk,3356,,3356.0,20.0,1.0,6.0,2.0,-3.18,0.01,-0.277,-0.657,27.0,25.93,0.0,19.0,1851.0,20.0,5.89,-0.11,-1.11,-0.05,0.95,4.14,19.47,228.0,,,0.0,1.0,1.0,100.0
11080,1,walk,walk,3357,,3357.0,20.0,1.0,6.0,2.0,-3.62,0.008,-0.156,-0.477,27.0,25.93,0.0,19.0,1851.0,20.0,5.5,-0.11,-1.1,-0.05,1.27,2.78,22.37,228.0,,,0.0,1.0,1.0,100.0
11100,1,walk,walk,3358,,3358.0,20.0,1.0,6.0,2.0,-3.97,0.007,-0.048,-0.438,27.0,25.93,0.0,19.0,1851.0,20.0,5.19,-0.1,-1.09,-0.06,1.51,1.66,24.0,228.0,,,0.0,1.0,1.0,100.0
11140,1,walk,walk,3359,,3359.0,20.0,1.0,6.0,2.0,-4.21,0.007,0.028,-0.408,27.0,25.93,0.0,19.0,1851.0,20.0,4.93,-0.09,-1.08,-0.06,1.67,0.79,24.51,228.0,,,0.0,1.0,1.0,100.0
11140,1,walk,walk,3360,,3360.0,20.0,1.0,6.0,2.0,-4.36,0.007,0.01,-0.47,27.0,25.93,0.0,19.0,1851.0,20.0,4.71,-0.09,-1.07,-0.07,1.75,0.18,24.09,228.0,,,0.0,1.0,1.0,100.0
11160,1,walk,walk,3361,,3361.0,20.0,0.0,6.0,2.0,-4.42,0.007,0.019,-0.535,27.0,25.93,0.0,18.0,1851.0,20.0,4.51,-0.08,-1.06,-0.07,1.79,-0.2,22.91,228.0,,,0.0,1.0,1.0,100.0
11180,1,walk,walk,3362,,3362.0,20.0,1.0,6.0,2.0,-4.38,0.01,0.279,-0.837,27.0,25.93,0.0,19.0,1851.0,20.0,4.34,-0.08,-1.05,-0.07,1.82,-0.36,21.13,228.0,,,0.0,1.0,1.0,100.0
11200,1,walk,walk,3363,,3363.0,20.0,1.0,6.0,2.0,-4.27,0.014,0.31,-1.098,27.0,25.93,0.0,19.0,1851.0,20.0,4.17,-0.08,-1.05,-0.08,1.86,-0.35,18.88,228.0,,,0.0,1.0,1.0,100.0
11220,1,walk,walk,3364,,3364.0,20.0,1.0,6.0,2.0,-4.09,0.018,0.261,-1.267,27.0,25.93,0.0,19.0,1851.0,20.0,4.0,-0.07,-1.04,-0.08,1.94,-0.2,16.3,228.0,,,0.0,1.0,1.0,100.0
11240,1,walk,walk,3365,,3365.0,20.0,1.0,6.0,2.0,-3.85,0.022,0.211,-1.398,27.0,25.9,0.0,19.0,1851.0,20.0,3.83,-0.07,-1.04,-0.08,2.05,0.05,13.51,228.0,,,0.0,1.0,1.0,100.0
11280,1,walk,walk,3366,,3366.0,20.0,1.0,6.0,2.0,-3.56,0.025,0.193,-1.6,27.0,25.9,0.0,19.0,1851.0,20.0,3.65,-0.07,-1.03,-0.08,2.2,0.36,10.67,228.0,,,0.0,1.0,1.0,100.0
11280,1,walk,walk,3367,,3367.0,20.0,1.0,6.0,2.0,-3.24,0.027,0.017,-1.639,27.0,25.9,0.0,19.0,1851.0,20.0,3.43,-0.06,-1.03,-0.09,2.39,0.7,7.91,228.0,,,0.0,1.0,1.0,100.0
11300,1,walk,walk,3368,,3368.0,20.0,1.0,6.0,2.0,-2.89,0.027,-0.061,-1.656,27.0,25.9,0.0,19.0,1851.0,20.0,3.19,-0.06,-1.03,-0.09,2.61,1.01,5.39,228.0,,,0.0,1.0,1.0,100.0
11320,1,walk,walk,3369,,3369.0,20.0,1.0,1.0,5.0,-2.54,0.028,-0.05,-1.688,27.0,25.9,0.0,19.0,1851.0,21.0,2.91,-0.05,-1.03,-0.09,2.89,1.27,3.24,228.0,,,0.0,1.0,1.0,100.0
11340,1,walk,walk,3370,,3370.0,20.0,0.0,1.0,5.0,-2.18,0.027,0.014,-1.647,27.0,25.83,0.0,19.0,1851.0,21.0,2.57,-0.05,-1.02,-0.09,3.23,1.56,1.56,228.0,,,0.0,1.0,1.0,100.0
11360,1,walk,walk,3371,,3371.0,20.0,0.0,1.0,5.0,-1.82,0.015,-1.188,-3.389,27.0,25.65,0.0,19.0,1851.0,21.0,2.17,-0.04,-1.03,-0.09,3.67,1.98,0.69,228.0,,,0.0,1.0,1.0,100.0
11380,1,walk,walk,3372,,3372.0,20.0,0.0,1.0,5.0,-1.48,-0.006,-1.483,-3.772,27.0,25.58,0.0,19.0,1851.0,21.0,1.71,-0.03,-1.03,-0.1,4.29,2.52,0.98,228.0,,,0.0,1.0,1.0,100.0
11400,1,walk,walk,3373,,3373.0,20.0,0.0,1.0,5.0,-1.15,-0.027,-1.478,-3.865,27.0,25.58,0.0,19.0,1851.0,21.0,1.24,-0.02,-1.03,-0.1,5.14,3.03,2.63,228.0,,,0.0,1.0,1.0,100.0
11420,1,walk,walk,3374,,3374.0,20.0,0.0,1.0,5.0,-0.85,-0.051,-1.754,-3.307,27.0,25.65,0.0,19.0,1851.0,21.0,0.79,-0.01,-1.03,-0.1,6.12,3.38,5.73,228.0,,,0.0,1.0,1.0,100.0
11460,1,walk,walk,3375,,3375.0,20.0,0.0,1.0,5.0,-0.57,-0.077,-1.885,-3.033,27.0,25.69,0.0,19.0,1851.0,21.0,0.43,-0.01,-1.04,-0.1,7.1,3.45,10.21,228.0,,,0.0,1.0,1.0,100.0
11460,1,walk,walk,3376,,3376.0,20.0,0.0,1.0,5.0,-0.31,-0.104,-1.8,-2.691,28.0,25.72,0.0,19.0,1851.0,21.0,0.2,0.0,-1.04,-0.1,7.87,3.16,15.86,228.0,,,0.0,1.0,1.0,100.0
11480,1,walk,walk,3377,,3377.0,20.0,0.0,1.0,5.0,-0.07,-0.125,-1.177,-3.142,28.0,25.69,0.0,19.0,1851.0,21.0,0.08,0.0,-1.05,-0.1,8.27,2.44,22.38,228.0,,,0.0,1.0,1.0,100.0
11520,1,walk,walk,3378,,3378.0,20.0,0.0,1.0,5.0,0.17,-0.137,-0.551,-3.583,28.0,25.65,0.0,19.0,1851.0,21.0,0.08,0.0,-1.06,-0.1,8.21,1.24,29.4,228.0,,,0.0,1.0,1.0,100.0
11520,1,walk,walk,3379,,3379.0,20.0,0.0,1.0,5.0,0.39,-0.142,-0.285,-3.878,28.0,25.62,0.0,19.0,1851.0,21.0,0.23,0.0,-1.07,-0.1,7.67,-0.52,36.54,228.0,,,0.0,1.0,1.0,100.0
11600,1,walk,walk,3380,,3380.0,20.0,0.0,1.0,5.0,0.63,-0.147,-0.21,-3.834,28.0,25.65,0.0,19.0,1851.0,21.0,0.53,-0.01,-1.09,-0.1,6.67,-2.98,43.31,228.0,,,0.0,1.0,1.0,100.0
11620,1,walk,walk,3381,,3381.0,20.0,0.0,1.0,5.0,0.88,-0.155,-0.659,-3.47,28.0,25.65,0.0,19.0,1851.0,21.0,0.97,-0.02,-1.1,-0.1,5.32,-6.36,49.32,228.0,,,0.0,1.0,1.0,100.0
11620,1,walk,walk,3382,,3382.0,20.0,0.0,1.0,5.0,1.16,-0.166,-0.663,-3.375,28.0,25.72,0.0,19.0,1851.0,21.0,1.45,-0.03,-1.11,-0.1,3.78,-10.86,54.16,228.0,,,0.0,1.0,1.0,100.0
11680,1,walk,walk,3383,,3383.0,20.0,0.0,1.0,5.0,1.48,-0.176,-0.778,-3.026,28.0,25.72,0.0,19.0,1851.0,21.0,1.89,-0.04,-1.11,-0.11,2.23,-16.46,57.51,228.0,,,0.0,1.0,1.0,100.0
11680,1,walk,walk,3384,,3384.0,20.0,0.0,1.0,5.0,1.84,-0.188,-0.754,-2.884,28.0,25.76,0.0,19.0,1851.0,21.0,2.19,-0.04,-1.12,-0.11,0.78,-22.86,59.17,228.0,,,0.0,1.0,1.0,100.0
11680,1,walk,walk,3385,,3385.0,20.0,0.0,1.0,5.0,2.25,-0.198,-0.694,-2.922,28.0,25.76,0.0,19.0,1851.0,21.0,2.26,-0.04,-1.11,-0.11,-0.53,-29.43,59.07,228.0,,,0.0,1.0,1.0,100.0
11680,1,walk,walk,3386,,3386.0,20.0,0.0,1.0,5.0,2.72,-0.208,-0.722,-2.828,28.0,25.76,0.0,19.0,1851.0,21.0,2.06,-0.04,-1.11,-0.11,-1.68,-35.34,57.28,228.0,,,0.0,1.0,1.0,100.0
11680,1,walk,walk,3387,,3387.0,20.0,0.0,1.0,5.0,3.25,-0.216,-0.305,-2.949,28.0,25.76,0.0,19.0,1851.0,21.0,1.61,-0.03,-1.1,-0.1,-2.67,-39.72,53.93,228.0,,,0.0,1.0,1.0,100.0
11720,1,walk,walk,3388,,3388.0,20.0,0.0,1.0,5.0,3.83,-0.221,-0.221,-3.023,28.0,25.79,0.0,19.0,1851.0,21.0,0.93,-0.02,-1.08,-0.1,-3.5,-41.87,49.18,228.0,,,0.0,1.0,1.0,100.0
11740,1,walk,walk,3389,,3389.0,20.0,0.0,1.0,5.0,4.46,-0.225,-0.408,-2.895,28.0,25.76,0.0,19.0,1851.0,21.0,0.13,0.0,-1.06,-0.1,-4.12,-41.4,43.22,228.0,,,0.0,1.0,1.0,100.0
11740,1,walk,walk,3390,,3390.0,20.0,0.0,1.0,5.0,5.12,-0.229,-0.131,-3.039,28.0,25.76,0.0,19.0,1851.0,21.0,-0.69,0.01,-1.05,-0.09,-4.48,-38.29,36.25,228.0,,,0.0,1.0,1.0,100.0
11760,1,walk,walk,3391,,3391.0,20.0,0.0,1.0,5.0,5.81,-0.231,-0.175,-3.135,28.0,25.76,0.0,19.0,1851.0,21.0,-1.38,0.02,-1.03,-0.09,-4.53,-32.94,28.43,228.0,,,0.0,1.0,1.0,100.0
11780,1,walk,walk,3392,,3392.0,20.0,0.0,1.0,5.0,6.51,-0.231,0.037,-3.24,28.0,25.72,0.0,19.0,1851.0,21.0,-1.82,0.03,-1.01,-0.08,-4.24,-26.0,19.95,228.0,,,0.0,1.0,1.0,100.0
11800,1,walk,walk,3393,,3393.0,20.0,0.0,1.0,5.0,7.21,-0.231,-0.002,-3.287,28.0,25.72,0.0,19.0,1851.0,21.0,-1.92,0.03,-0.99,-0.08,-3.62,-18.27,10.96,228.0,,,0.0,1.0,1.0,100.0
11840,1,walk,walk,3394,,3394.0,20.0,0.0,0.0,0.0,7.89,-0.231,0.073,-3.325,28.0,25.72,0.0,19.0,1851.0,21.0,-1.62,0.03,-0.98,-0.08,-2.72,-10.55,1.63,228.0,,,0.0,1.0,1.0,100.0
11860,1,walk,walk,3395,,3395.0,20.0,2.0,0.0,0.0,8.52,-0.23,0.202,-3.369,28.0,25.72,0.0,21.0,1851.0,21.0,-1.0,0.02,-0.96,-0.08,-1.73,-4.21,-8.37,228.0,,,0.0,1.0,1.0,100.0
11860,1,walk,walk,3396,,3396.0,20.0,2.0,0.0,0.0,9.11,-0.23,0.202,-3.369,28.0,25.72,0.0,41.0,1851.0,21.0,-0.15,0.0,-0.95,-0.09,-0.81,0.3,-19.56,228.0,,,0.0,1.0,1.0,100.0
11880,1,walk,walk,3397,,3397.0,20.0,2.0,0.0,0.0,9.62,-0.23,0.202,-3.369,28.0,25.72,0.0,61.0,1851.0,21.0,0.91,-0.01,-0.94,-0.09,-0.1,3.25,-31.66,228.0,,,0.0,1.0,1.0,100.0
11920,1,walk,walk,3398,,3398.0,20.0,2.0,0.0,0.0,10.05,0.051,32.767,0.0,28.0,25.97,0.0,7.0,1851.0,21.0,2.18,-0.04,-0.93,-0.1,0.3,5.11,-43.79,228.0,,,0.0,1.0,1.0,100.0
11940,1,walk,walk,3399,,3399.0,20.0,2.0,0.0,0.0,10.39,0.069,1.321,0.0,28.0,25.97,0.0,7.0,1851.0,21.0,3.66,-0.06,-0.92,-0.11,0.31,6.41,-55.2,228.0,,,0.0,1.0,1.0,100.0
11960,1,walk,walk,3400,,3400.0,20.0,2.0,0.0,0.0,10.61,0.086,1.066,0.0,28.0,25.97,0.0,7.0,1851.0,21.0,5.34,-0.09,-0.92,-0.12,-0.08,7.57,-65.35,228.0,,,0.0,1.0,1.0,100.0
11960,1,walk,walk,3401,,3401.0,20.0,2.0,0.0,0.0,10.71,0.105,1.125,0.0,28.0,25.97,0.0,7.0,1851.0,21.0,7.16,-0.11,-0.91,-0.12,-0.8,8.77,-73.76,228.0,,,0.0,1.0,1.0,100.0
11980,1,walk,walk,3402,,3402.0,20.0,2.0,0.0,0.0,10.68,0.122,1.223,0.0,28.0,25.97,0.0,7.0,1851.0,21.0,9.1,-0.15,-0.92,-0.13,-1.74,9.92,-80.02,228.0,,,0.0,1.0,1.0,100.0
12000,1,walk,walk,3403,,3403.0,20.0,2.0,0.0,0.0,10.51,0.137,0.899,0.0,28.0,25.97,0.0,7.0,1851.0,21.0,11.06,-0.18,-0.92,-0.14,-2.82,10.85,-83.87,228.0,,,0.0,1.0,1.0,100.0
12040,1,walk,walk,3404,,3404.0,20.0,2.0,0.0,0.0,10.21,0.165,2.933,0.0,28.0,25.97,0.0,7.0,1851.0,21.0,12.75,-0.21,-0.94,-0.14,-3.91,11.52,-85.25,228.0,,,0.0,1.0,1.0,100.0
12040,1,walk,walk,3405,,3405.0,20.0,0.0,0.0,0.0,9.78,0.213,2.905,0.0,28.0,25.97,0.0,5.0,1851.0,21.0,13.81,-0.23,-0.95,-0.14,-4.86,12.19,-84.47,228.0,,,0.0,1.0,1.0,100.0
12080,1,walk,walk,3406,,3406.0,20.0,0.0,0.0,0.0,9.23,0.258,3.019,0.0,28.0,25.97,0.0,5.0,1851.0,21.0,14.06,-0.24,-0.97,-0.13,-5.49,13.1,-81.88,228.0,,,0.0,1.0,1.0,100.0
12100,1,walk,walk,3407,,3407.0,20.0,0.0,0.0,0.0,8.56,0.258,-2.026,0.0,28.0,25.97,0.0,5.0,1851.0,21.0,13.74,-0.24,-1.0,-0.12,-5.76,14.36,-77.58,228.0,,,0.0,1.0,1.0,100.0
12120,1,walk,walk,3408,,3408.0,20.0,1.0,0.0,0.0,7.78,0.245,-0.451,0.0,28.0,25.97,0.0,6.0,1851.0,21.0,13.02,-0.24,-1.02,-0.11,-5.72,15.72,-71.83,228.0,,,0.0,1.0,1.0,100.0
12140,1,walk,walk,3409,,3409.0,20.0,1.0,0.0,0.0,6.93,0.234,-1.286,0.0,28.0,25.97,0.0,6.0,1851.0,21.0,12.03,-0.22,-1.05,-0.09,-5.5,16.95,-64.87,228.0,,,0.0,1.0,1.0,100.0
12160,1,walk,walk,3410,,3410.0,20.0,1.0,0.0,0.0,6.0,0.216,-1.111,0.0,28.0,25.97,0.0,6.0,1851.0,21.0,10.86,-0.21,-1.07,-0.07,-5.19,17.85,-56.94,228.0,,,0.0,1.0,1.0,100.0
12160,1,walk,walk,3411,,3411.0,20.0,1.0,0.0,0.0,5.02,0.2,-0.813,0.0,28.0,25.97,0.0,6.0,1851.0,21.0,9.58,-0.18,-1.09,-0.05,-4.87,18.28,-48.38,228.0,,,0.0,1.0,1.0,100.0
12180,1,walk,walk,3412,,3412.0,20.0,1.0,0.0,0.0,4.01,0.188,-1.032,0.0,28.0,25.97,0.0,6.0,1851.0,21.0,8.25,-0.16,-1.1,-0.04,-4.56,18.28,-39.57,228.0,,,0.0,1.0,1.0,100.0
12200,1,walk,walk,3413,,3413.0,20.0,1.0,0.0,0.0,2.99,0.174,-0.668,0.0,28.0,25.97,0.0,6.0,1851.0,21.0,6.92,-0.13,-1.11,-0.03,-4.27,17.86,-30.84,228.0,,,0.0,1.0,1.0,100.0
12220,1,walk,walk,3414,,3414.0,20.0,1.0,0.0,1.0,1.98,0.168,-0.688,0.0,28.0,25.97,0.0,6.0,1851.0,21.0,5.63,-0.11,-1.11,-0.03,-3.99,17.05,-22.58,228.0,,,0.0,1.0,1.0,100.0
12240,1,walk,walk,3415,,3415.0,20.0,0.0,0.0,1.0,0.99,0.158,-0.515,0.0,28.0,25.97,0.0,5.0,1851.0,21.0,4.41,-0.09,-1.11,-0.02,-3.71,15.94,-15.05,228.0,,,0.0,1.0,1.0,100.0
12260,1,walk,walk,3416,,3416.0,20.0,0.0,0.0,1.0,0.05,0.151,-0.378,0.0,28.0,25.97,0.0,5.0,1851.0,21.0,3.26,-0.06,-1.11,-0.02,-3.46,14.65,-8.44,228.0,,,0.0,1.0,1.0,100.0
12300,1,walk,walk,3417,,3417.0,20.0,0.0,0.0,1.0,-0.84,0.148,-0.285,0.0,28.0,25.97,0.0,5.0,1851.0,21.0,2.21,-0.04,-1.1,-0.03,-3.25,13.25,-2.86,228.0,,,0.0,1.0,1.0,100.0
12320,1,walk,walk,3418,,3418.0,20.0,0.0,0.0,1.0,-1.66,0.146,-0.268,0.0,28.0,25.97,0.0,5.0,1851.0,21.0,1.26,-0.02,-1.09,-0.03,-3.09,11.82,1.64,228.0,,,0.0,1.0,1.0,100.0
12320,1,walk,walk,3419,,3419.0,20.0,0.0,0.0,1.0,-2.4,0.144,0.048,0.0,28.0,25.97,0.0,5.0,1851.0,21.0,0.41,-0.01,-1.08,-0.04,-2.98,10.4,5.05,228.0,,,0.0,1.0,1.0,100.0
12340,1,walk,walk,3420,,3420.0,20.0,0.0,0.0,1.0,-3.06,0.144,-0.069,0.0,28.0,25.97,0.0,5.0,1851.0,21.0,-0.33,0.01,-1.08,-0.04,-2.92,9.04,7.41,228.0,,,0.0,1.0,1.0,100.0
12360,1,walk,walk,3421,,3421.0,20.0,0.0,0.0,1.0,-3.63,0.145,-0.009,0.0,28.0,25.97,0.0,5.0,1851.0,21.0,-0.96,0.02,-1.07,-0.05,-2.91,7.8,8.79,228.0,,,0.0,1.0,1.0,100.0
12380,1,walk,walk,3422,,3422.0,20.0,0.0,0.0,1.0,-4.12,0.147,0.127,0.0,28.0,25.97,0.0,5.0,1851.0,21.0,-1.48,0.03,-1.06,-0.05,-2.97,6.69,9.24,228.0,,,0.0,1.0,1.0,100.0
12400,1,walk,walk,3423,,3423.0,20.0,0.0,0.0,1.0,-4.52,0.149,0.523,0.0,28.0,25.93,0.0,5.0,1851.0,21.0,-1.91,0.04,-1.05,-0.06,-3.13,5.75,8.8,228.0,,,0.0,1.0,1.0,100.0
12420,1,walk,walk,3424,,3424.0,20.0,0.0,0.0,1.0,-4.83,0.158,0.691,0.0,28.0,25.97,0.0,5.0,1851.0,21.0,-2.26,0.04,-1.04,-0.06,-3.4,4.96,7.5,228.0,,,0.0,1.0,1.0,100.0
12460,1,walk,walk,3425,,3425.0,20.0,0.0,0.0,1.0,-5.08,0.173,1.256,0.0,28.0,25.97,0.0,5.0,1851.0,21.0,-2.55,0.05,-1.03,-0.06,-3.78,4.29,5.32,228.0,,,0.0,1.0,1.0,100.0
12480,1,walk,walk,3426,,3426.0,20.0,0.0,0.0,1.0,-5.25,0.188,0.922,0.0,28.0,25.97,0.0,5.0,1851.0,21.0,-2.84,0.05,-1.03,-0.07,-4.29,3.7,2.35,228.0,,,0.0,1.0,1.0,100.0
12480,1,walk,walk,3427,,3427.0,20.0,1.0,0.0,1.0,-5.37,0.198,0.334,0.0,28.0,25.97,0.0,6.0,1851.0,21.0,-3.2,0.06,-1.02,-0.07,-4.87,3.19,-1.06,228.0,,,0.0,1.0,1.0,100.0
12500,1,walk,walk,3428,,3428.0,20.0,1.0,0.0,1.0,-5.44,0.198,-0.12,0.0,28.0,25.97,0.0,6.0,1851.0,21.0,-3.68,0.07,-1.02,-0.07,-5.44,2.72,-4.37,228.0,,,0.0,1.0,1.0,100.0
12520,1,walk,walk,3429,,3429.0,20.0,1.0,0.0,1.0,-5.48,0.193,-0.483,0.0,28.0,25.97,0.0,6.0,1851.0,21.0,-4.29,0.08,-1.01,-0.08,-5.9,2.28,-7.07,228.0,,,0.0,1.0,1.0,100.0
12540,1,walk,walk,3430,,3430.0,20.0,1.0,0.0,1.0,-5.49,0.184,-0.629,0.0,28.0,25.97,0.0,6.0,1851.0,21.0,-4.97,0.09,-1.01,-0.09,-6.16,1.9,-8.8,228.0,,,0.0,1.0,1.0,100.0
12560,1,walk,walk,3431,,3431.0,20.0,1.0,0.0,1.0,-5.48,0.176,-0.498,0.0,28.0,25.97,0.0,6.0,1851.0,21.0,-5.67,0.1,-1.01,-0.09,-6.18,1.6,-9.47,228.0,,,0.0,1.0,1.0,100.0
12600,1,walk,walk,3432,,3432.0,20.0,1.0,0.0,1.0,-5.47,0.171,-0.295,0.0,28.0,25.97,0.0,6.0,1851.0,21.0,-6.33,0.11,-1.01,-0.1,-5.93,1.38,-9.16,228.0,,,0.0,1.0,1.0,100.0
12600,1,walk,walk,3433,,3433.0,20.0,0.0,0.0,1.0,-5.45,0.166,-0.488,0.0,28.0,25.97,0.0,5.0,1851.0,21.0,-6.91,0.12,-1.01,-0.11,-5.41,1.25,-8.05,228.0,,,0.0,1.0,1.0,100.0
12640,1,walk,walk,3434,,3434.0,20.0,1.0,0.0,1.0,-5.45,0.158,-0.416,0.0,28.0,25.97,0.0,6.0,1851.0,21.0,-7.38,0.13,-1.01,-0.11,-4.65,1.21,-6.31,228.0,,,0.0,1.0,1.0,100.0
12640,1,walk,walk,3435,,3435.0,20.0,1.0,0.0,1.0,-5.45,0.151,-0.422,0.0,28.0,25.97,0.0,6.0,1851.0,21.0,-7.77,0.14,-1.01,-0.12,-3.65,1.24,-4.1,228.0,,,0.0,1.0,1.0,100.0
12660,1,walk,walk,3436,,3436.0,20.0,1.0,0.0,1.0,-5.47,0.143,-0.751,0.0,28.0,25.97,0.0,6.0,1851.0,21.0,-8.07,0.14,-1.02,-0.12,-2.44,1.35,-1.49,228.0,,,0.0,1.0,1.0,100.0
12680,1,walk,walk,3437,,3437.0,20.0,0.0,0.0,1.0,-5.5,0.128,-0.767,0.0,28.0,25.97,0.0,5.0,1851.0,21.0,-8.32,0.15,-1.02,-0.13,-1.02,1.52,1.55,228.0,,,0.0,1.0,1.0,100.0
12700,1,walk,walk,3438,,3438.0,20.0,0.0,0.0,1.0,-5.54,0.118,-0.892,0.0,28.0,25.97,0.0,5.0,1851.0,21.0,-8.51,0.15,-1.02,-0.13,0.59,1.66,5.0,228.0,,,0.0,1.0,1.0,100.0
12720,1,walk,walk,3439,,3439.0,20.0,0.0,0.0,1.0,-5.59,0.098,-1.364,0.0,28.0,25.97,0.0,5.0,1851.0,21.0,-8.65,0.16,-1.02,-0.13,2.34,1.74,8.96,228.0,,,0.0,1.0,1.0,100.0
12740,1,walk,walk,3440,,3440.0,20.0,0.0,0.0,1.0,-5.64,0.075,-1.879,0.0,28.0,25.97,0.0,5.0,1851.0,21.0,-8.74,0.16,-1.02,-0.13,4.19,1.76,13.57,228.0,,,0.0,1.0,1.0,100.0
12780,1,walk,walk,3441,,3441.0,20.0,0.0,0.0,1.0,-5.68,0.047,-1.954,0.0,28.0,25.97,0.0,5.0,1851.0,21.0,-8.76,0.16,-1.03,-0.13,6.06,1.74,18.93,228.0,,,0.0,1.0,1.0,100.0
12800,1,walk,walk,3442,,3442.0,20.0,0.0,0.0,1.0,-5.72,0.02,-1.658,0.0,28.0,25.97,0.0,5.0,1851.0,21.0,-8.71,0.16,-1.03,-0.13,7.81,1.65,25.04,228.0,,,0.0,1.0,1.0,100.0
12800,1,walk,walk,3443,,3443.0,20.0,0.0,0.0,1.0,-5.74,0.008,-0.391,0.0,28.0,25.97,0.0,5.0,1851.0,21.0,-8.6,0.16,-1.04,-0.13,9.32,1.36,31.71,228.0,,,0.0,1.0,1.0,100.0
12820,1,walk,walk,3444,,3444.0,20.0,0.0,0.0,1.0,-5.73,0.008,-0.036,0.0,28.0,25.97,0.0,5.0,1851.0,21.0,-8.42,0.16,-1.05,-0.13,10.45,0.68,38.65,228.0,,,0.0,1.0,1.0,100.0
12840,1,walk,walk,3445,,3445.0,20.0,0.0,0.0,1.0,-5.68,0.009,0.216,0.0,28.0,25.97,0.0,5.0,1851.0,21.0,-8.17,0.15,-1.06,-0.13,11.12,-0.51,45.63,228.0,,,0.0,1.0,1.0,100.0
12860,1,walk,walk,3446,,3446.0,20.0,0.0,0.0,1.0,-5.59,0.014,0.487,0.0,28.0,25.97,0.0,5.0,1851.0,21.0,-7.83,0.15,-1.08,-0.12,11.26,-2.34,52.37,228.0,,,0.0,1.0,1.0,100.0
12900,1,walk,walk,3447,,3447.0,20.0,0.0,0.0,1.0,-5.45,0.019,-0.097,0.0,28.0,25.97,0.0,5.0,1851.0,21.0,-7.35,0.14,-1.09,-0.12,10.9,-4.86,58.57,228.0,,,0.0,1.0,1.0,100.0
12920,1,walk,walk,3448,,3448.0,20.0,0.0,0.0,1.0,-5.25,0.015,-0.297,0.0,28.0,25.97,0.0,5.0,1851.0,21.0,-6.77,0.13,-1.11,-0.12,10.17,-7.97,63.85,228.0,,,0.0,1.0,1.0,100.0
12960,1,walk,walk,3449,,3449.0,20.0,0.0,0.0,1.0,-4.98,0.008,-0.692,0.0,28.0,25.97,0.0,5.0,1851.0,21.0,-6.11,0.12,-1.12,-0.12,9.19,-11.43,67.96,228.0,,,0.0,1.0,1.0,100.0
12960,1,walk,walk,3450,,3450.0,20.0,0.0,0.0,1.0,-4.63,-0.007,-1.119,0.0,28.0,25.97,0.0,5.0,1851.0,21.0,-5.45,0.11,-1.12,-0.12,8.12,-14.98,70.71,228.0,,,0.0,1.0,1.0,100.0
12960,1,walk,walk,3451,,3451.0,20.0,0.0,0.0,1.0,-4.21,-0.02,-0.831,0.0,28.0,25.97,0.0,5.0,1851.0,21.0,-4.85,0.1,-1.13,-0.11,7.05,-18.27,71.96,228.0,,,0.0,1.0,1.0,100.0
12980,1,walk,walk,3452,,3452.0,20.0,0.0,0.0,1.0,-3.71,-0.031,-0.585,0.0,28.0,25.97,0.0,5.0,1851.0,21.0,-4.37,0.09,-1.12,-0.11,6.04,-20.98,71.58,228.0,,,0.0,1.0,1.0,100.0
13000,1,walk,walk,3453,,3453.0,20.0,0.0,0.0,1.0,-3.13,-0.035,-0.117,0.0,28.0,25.97,0.0,5.0,1851.0,21.0,-4.02,0.08,-1.11,-0.1,5.15,-22.8,69.47,228.0,,,0.0,1.0,1.0,100.0
13020,1,walk,walk,3454,,3454.0,20.0,0.0,0.0,1.0,-2.47,-0.037,-0.017,0.0,28.0,25.97,0.0,5.0,1851.0,21.0,-3.82,0.07,-1.09,-0.09,4.39,-23.52,65.61,228.0,,,0.0,1.0,1.0,100.0
13040,1,walk,walk,3455,,3455.0,20.0,0.0,0.0,1.0,-1.74,-0.041,-0.31,0.0,28.0,25.97,0.0,5.0,1851.0,21.0,-3.75,0.07,-1.07,-0.08,3.79,-23.04,60.12,228.0,,,0.0,1.0,1.0,100.0
13060,1,walk,walk,3456,,3456.0,20.0,0.0,6.0,2.0,-0.96,-0.047,-0.506,0.0,28.0,25.97,0.0,5.0,1851.0,21.0,-3.74,0.07,-1.04,-0.08,3.35,-21.41,53.18,228.0,,,0.0,1.0,1.0,100.0
13080,1,walk,walk,3457,,3457.0,20.0,0.0,6.0,2.0,-0.12,-0.049,-0.481,0.065,28.0,25.93,0.0,18.0,1851.0,21.0,-3.76,0.07,-1.02,-0.07,3.09,-18.8,44.91,228.0,,,0.0,1.0,1.0,100.0
13120,1,walk,walk,3458,,3458.0,20.0,0.0,6.0,2.0,0.74,-0.04,0.963,0.687,28.0,25.93,0.0,18.0,1851.0,21.0,-3.73,0.06,-0.99,-0.06,2.98,-15.42,35.48,228.0,,,0.0,1.0,1.0,100.0
13120,1,walk,walk,3459,,3459.0,20.0,0.0,6.0,2.0,1.63,-0.027,0.634,0.814,28.0,25.93,0.0,18.0,1851.0,21.0,-3.59,0.06,-0.97,-0.06,3.01,-11.54,25.15,228.0,,,0.0,1.0,1.0,100.0
13140,1,walk,walk,3460,,3460.0,20.0,0.0,6.0,2.0,2.51,-0.02,0.35,0.98,28.0,25.9,0.0,18.0,1851.0,21.0,-3.28,0.05,-0.94,-0.06,3.12,-7.46,14.22,228.0,,,0.0,1.0,1.0,100.0
13160,1,walk,walk,3461,,3461.0,20.0,0.0,6.0,2.0,3.36,-0.015,0.322,0.779,28.0,25.93,0.0,18.0,1851.0,21.0,-2.75,0.04,-0.92,-0.06,3.24,-3.44,3.01,228.0,,,0.0,1.0,1.0,100.0
13180,1,walk,walk,3462,,3462.0,20.0,1.0,6.0,2.0,4.18,-0.01,0.335,0.411,28.0,25.93,0.0,19.0,1851.0,21.0,-1.98,0.03,-0.91,-0.06,3.32,0.26,-8.13,228.0,,,0.0,1.0,1.0,100.0
13200,1,walk,walk,3463,,3463.0,20.0,1.0,6.0,2.0,4.94,-0.006,0.211,0.129,28.0,25.93,0.0,19.0,1851.0,21.0,-0.98,0.02,-0.9,-0.07,3.33,3.38,-18.89,228.0,,,0.0,1.0,1.0,100.0
13220,1,walk,walk,3464,,3464.0,20.0,1.0,6.0,2.0,5.63,0.001,0.432,-0.482,28.0,25.93,0.0,19.0,1851.0,21.0,0.27,0.0,-0.89,-0.07,3.23,5.68,-29.04,228.0,,,0.0,1.0,1.0,100.0
13260,1,walk,walk,3465,,3465.0,20.0,1.0,6.0,2.0,6.22,0.007,0.516,-0.97,28.0,25.93,0.0,19.0,1851.0,21.0,1.73,-0.03,-0.88,-0.08,3.01,7.0,-38.45,228.0,,,0.0,1.0,1.0,100.0
13260,1,walk,walk,3466,,3466.0,20.0,1.0,6.0,2.0,6.7,0.016,0.557,-1.375,28.0,25.93,0.0,19.0,1851.0,21.0,3.38,-0.05,-0.88,-0.09,2.61,7.29,-47.0,228.0,,,0.0,1.0,1.0,100.0
13280,1,walk,walk,3467,,3467.0,20.0,1.0,6.0,2.0,7.07,0.022,0.344,-1.435,28.0,25.9,0.0,19.0,1851.0,21.0,5.16,-0.08,-0.88,-0.1,2.02,6.57,-54.5,228.0,,,0.0,1.0,1.0,100.0
13300,1,walk,walk,3468,,3468.0,20.0,1.0,6.0,2.0,7.31,0.027,0.25,-1.684,28.0,25.9,0.0,19.0,1851.0,21.0,7.03,-0.11,-0.89,-0.11,1.18,4.97,-60.69,228.0,,,0.0,1.0,1.0,100.0
13320,1,walk,walk,3469,,3469.0,20.0,1.0,6.0,2.0,7.43,0.03,0.258,-1.937,28.0,25.86,0.0,19.0,1851.0,21.0,8.92,-0.14,-0.9,-0.12,0.11,2.65,-65.29,228.0,,,0.0,1.0,1.0,100.0
13360,1,walk,walk,3470,,3470.0,20.0,1.0,6.0,2.0,7.42,0.035,0.22,-2.253,28.0,25.86,0.0,19.0,1851.0,21.0,10.72,-0.17,-0.91,-0.13,-1.13,-0.05,-68.06,228.0,,,0.0,1.0,1.0,100.0
13360,1,walk,walk,3471,,3471.0,20.0,1.0,6.0,2.0,7.28,0.042,0.814,-3.204,28.0,25.79,0.0,19.0,1851.0,21.0,12.11,-0.2,-0.93,-0.13,-2.26,-2.31,-68.82,228.0,,,0.0,1.0,1.0,100.0
13380,1,walk,walk,3472,,3472.0,20.0,1.0,6.0,2.0,7.01,0.056,0.711,-3.856,28.0,25.72,0.0,19.0,1851.0,21.0,12.79,-0.22,-0.95,-0.13,-3.06,-3.42,-67.62,228.0,,,0.0,1.0,1.0,100.0
13400,1,walk,walk,3473,,3473.0,20.0,1.0,6.0,2.0,6.64,0.064,0.669,-4.32,28.0,25.65,0.0,19.0,1851.0,21.0,12.68,-0.22,-0.98,-0.12,-3.49,-3.1,-64.57,228.0,,,0.0,1.0,1.0,100.0
13440,1,walk,walk,3474,,3474.0,20.0,1.0,6.0,2.0,6.16,0.075,0.695,-4.751,28.0,25.58,0.0,19.0,1851.0,21.0,11.94,-0.21,-1.0,-0.11,-3.67,-1.43,-59.88,228.0,,,0.0,1.0,1.0,100.0
13460,1,walk,walk,3475,,3475.0,20.0,1.0,6.0,2.0,5.59,0.081,0.258,-4.964,28.0,25.51,0.0,19.0,1851.0,21.0,10.82,-0.2,-1.03,-0.09,-3.71,0.99,-53.84,228.0,,,0.0,1.0,1.0,100.0
13480,1,walk,walk,3476,,3476.0,20.0,1.0,6.0,2.0,4.95,0.082,-0.057,-4.94,28.0,25.47,0.0,19.0,1851.0,21.0,9.53,-0.18,-1.05,-0.07,-3.7,3.4,-46.81,228.0,,,0.0,1.0,1.0,100.0
13480,1,walk,walk,3477,,3477.0,20.0,1.0,6.0,2.0,4.25,0.082,-0.112,-4.928,28.0,25.51,0.0,19.0,1851.0,21.0,8.18,-0.15,-1.07,-0.05,-3.72,5.22,-39.15,228.0,,,0.0,1.0,1.0,100.0
13500,1,walk,walk,3478,,3478.0,20.0,1.0,6.0,2.0,3.52,0.081,-0.073,-4.923,28.0,25.47,0.0,19.0,1851.0,21.0,6.83,-0.13,-1.08,-0.03,-3.8,6.32,-31.12,228.0,,,0.0,1.0,1.0,100.0
13520,1,walk,walk,3479,,3479.0,20.0,1.0,6.0,2.0,2.76,0.078,-0.363,-4.546,28.0,25.51,0.0,19.0,1851.0,21.0,5.51,-0.11,-1.09,-0.02,-3.89,6.76,-22.93,228.0,,,0.0,1.0,1.0,100.0
13540,1,walk,walk,3480,,3480.0,20.0,1.0,6.0,2.0,2.0,0.072,-0.534,-4.139,28.0,25.58,0.0,19.0,1851.0,21.0,4.28,-0.08,-1.1,-0.01,-3.96,6.69,-14.79,228.0,,,0.0,1.0,1.0,100.0
13560,1,walk,walk,3481,,3481.0,20.0,1.0,6.0,2.0,1.24,0.064,-0.698,-3.66,28.0,25.65,0.0,19.0,1851.0,21.0,3.18,-0.06,-1.1,-0.01,-3.96,6.21,-6.92,228.0,,,0.0,1.0,1.0,100.0
13600,1,walk,walk,3482,,3482.0,20.0,1.0,6.0,2.0,0.52,0.054,-0.665,-3.075,28.0,25.72,0.0,19.0,1851.0,21.0,2.26,-0.04,-1.1,-0.01,-3.86,5.4,0.48,228.0,,,0.0,1.0,1.0,100.0
13600,1,walk,walk,3483,,3483.0,20.0,1.0,6.0,2.0,-0.16,0.045,-0.535,-2.454,28.0,25.79,0.0,19.0,1851.0,21.0,1.52,-0.03,-1.1,-0.02,-3.65,4.35,7.26,228.0,,,0.0,1.0,1.0,100.0
13620,1,walk,walk,3484,,3484.0,20.0,1.0,6.0,2.0,-0.78,0.035,-0.694,-1.765,28.0,25.86,0.0,19.0,1851.0,21.0,0.97,-0.02,-1.1,-0.02,-3.36,3.18,13.34,228.0,,,0.0,1.0,1.0,100.0
13660,1,walk,walk,3485,,3485.0,20.0,1.0,6.0,2.0,-1.34,0.024,-0.7,-1.239,28.0,25.9,0.0,19.0,1851.0,21.0,0.59,-0.01,-1.09,-0.03,-3.01,1.97,18.66,228.0,,,0.0,1.0,1.0,100.0
13660,1,walk,walk,3486,,3486.0,20.0,1.0,6.0,2.0,-1.82,0.015,-0.585,-0.87,28.0,25.93,0.0,19.0,1851.0,21.0,0.37,-0.01,-1.09,-0.04,-2.64,0.79,23.13,228.0,,,0.0,1.0,1.0,100.0
13680,1,walk,walk,3487,,3487.0,20.0,1.0,6.0,2.0,-2.22,0.007,-0.504,-0.296,28.0,25.93,0.0,19.0,1851.0,21.0,0.3,-0.01,-1.08,-0.04,-2.26,-0.28,26.75,228.0,,,0.0,1.0,1.0,100.0
13720,1,walk,walk,3488,,3488.0,20.0,1.0,6.0,2.0,-2.53,0.002,-0.238,0.055,28.0,25.93,0.0,19.0,1851.0,21.0,0.38,-0.01,-1.07,-0.05,-1.9,-1.21,29.48,228.0,,,0.0,1.0,1.0,100.0
13780,1,walk,walk,3489,,3489.0,20.0,1.0,6.0,2.0,-2.75,-0.002,-0.275,0.407,28.0,25.93,0.0,19.0,1851.0,21.0,0.58,-0.01,-1.06,-0.06,-1.59,-1.97,31.3,228.0,,,0.0,1.0,1.0,100.0
13780,1,walk,walk,3490,,3490.0,20.0,1.0,6.0,2.0,-2.89,-0.006,-0.225,0.555,28.0,25.93,0.0,19.0,1851.0,21.0,0.88,-0.02,-1.06,-0.06,-1.31,-2.56,32.22,228.0,,,0.0,1.0,1.0,100.0
13800,1,walk,walk,3491,,3491.0,20.0,1.0,6.0,2.0,-2.93,-0.008,-0.079,0.545,28.0,25.93,0.0,19.0,1851.0,21.0,1.26,-0.02,-1.05,-0.07,-1.07,-2.96,32.3,228.0,,,0.0,1.0,1.0,100.0
13800,1,walk,walk,3492,,3492.0,20.0,1.0,6.0,2.0,-2.89,-0.009,-0.122,0.613,28.0,25.93,0.0,19.0,1851.0,21.0,1.68,-0.03,-1.04,-0.07,-0.86,-3.18,31.59,228.0,,,0.0,1.0,1.0,100.0
13820,1,walk,walk,3493,,3493.0,20.0,1.0,6.0,2.0,-2.78,-0.009,-0.034,0.567,28.0,25.93,0.0,19.0,1851.0,21.0,2.14,-0.04,-1.04,-0.07,-0.67,-3.23,30.19,228.0,,,0.0,1.0,1.0,100.0
13820,1,walk,walk,3494,,3494.0,20.0,1.0,6.0,2.0,-2.59,-0.009,-0.038,0.557,28.0,25.93,0.0,19.0,1851.0,21.0,2.6,-0.05,-1.03,-0.08,-0.49,-3.11,28.19,228.0,,,0.0,1.0,1.0,100.0
13840,1,walk,walk,3495,,3495.0,20.0,1.0,6.0,2.0,-2.33,-0.009,0.037,0.502,28.0,25.93,0.0,19.0,1851.0,21.0,3.06,-0.05,-1.02,-0.08,-0.36,-2.84,25.66,228.0,,,0.0,1.0,1.0,100.0
13860,1,walk,walk,3496,,3496.0,20.0,1.0,6.0,2.0,-2.02,-0.009,0.007,0.477,28.0,25.93,0.0,19.0,1851.0,21.0,3.49,-0.06,-1.02,-0.08,-0.27,-2.47,22.74,228.0,,,0.0,1.0,1.0,100.0
13880,1,walk,walk,3497,,3497.0,20.0,1.0,6.0,2.0,-1.66,-0.008,0.084,0.404,28.0,25.93,0.0,19.0,1851.0,21.0,3.86,-0.07,-1.02,-0.08,-0.23,-2.05,19.58,228.0,,,0.0,1.0,1.0,100.0
13920,1,walk,walk,3498,,3498.0,20.0,1.0,6.0,2.0,-1.27,-0.007,0.085,0.38,28.0,25.93,0.0,19.0,1851.0,21.0,4.15,-0.07,-1.01,-0.08,-0.22,-1.59,16.33,228.0,,,0.0,1.0,1.0,100.0
13920,1,walk,walk,3499,,3499.0,20.0,1.0,6.0,2.0,-0.85,-0.007,0.093,0.295,28.0,25.93,0.0,19.0,1851.0,21.0,4.35,-0.08,-1.01,-0.08,-0.22,-1.13,13.16,228.0,,,0.0,1.0,1.0,100.0
13940,1,walk,walk,3500,,3500.0,20.0,1.0,0.0,5.0,-0.42,-0.006,0.15,0.215,28.0,25.93,0.0,19.0,1851.0,21.0,4.44,-0.08,-1.01,-0.09,-0.2,-0.68,10.16,228.0,,,0.0,1.0,1.0,100.0
13960,1,walk,walk,3501,,3501.0,20.0,0.0,0.0,5.0,0.02,-0.006,0.15,0.215,28.0,25.93,0.0,38.0,1851.0,21.0,4.46,-0.08,-1.01,-0.09,-0.11,-0.26,7.41,228.0,,,0.0,1.0,1.0,100.0
13980,1,walk,walk,3502,,3502.0,20.0,0.0,0.0,5.0,0.46,-0.006,0.15,0.215,28.0,25.93,0.0,58.0,1851.0,21.0,4.41,-0.08,-1.01,-0.09,0.07,0.15,4.93,228.0,,,0.0,1.0,1.0,100.0
14000,1,walk,walk,3503,,3503.0,20.0,0.0,0.0,5.0,0.89,-0.006,0.15,0.215,28.0,25.93,0.0,78.0,1851.0,21.0,4.32,-0.08,-1.01,-0.09,0.36,0.54,2.71,228.0,,,0.0,1.0,1.0,100.0
14020,1,walk,walk,3504,,3504.0,20.0,0.0,0.0,5.0,1.3,0.015,2.568,0.0,28.0,25.93,0.0,2.0,1851.0,21.0,4.21,-0.07,-1.01,-0.09,0.78,0.9,0.67,228.0,,,0.0,1.0,1.0,100.0
14040,1,walk,walk,3505,,3505.0,20.0,0.0,0.0,6.0,1.69,0.022,0.374,0.0,28.0,25.97,0.0,2.0,1851.0,21.0,4.07,-0.07,-1.02,-0.1,1.3,1.22,-1.27,228.0,,,0.0,1.0,1.0,100.0
14100,1,walk,walk,3506,,3506.0,20.0,0.0,0.0,6.0,2.04,0.027,0.318,0.0,28.0,25.97,0.0,2.0,1851.0,21.0,3.91,-0.07,-1.02,-0.1,1.89,1.47,-3.15,228.0,,,0.0,1.0,1.0,100.0
14100,1,walk,walk,3507,,3507.0,20.0,0.0,0.0,6.0,2.37,0.031,0.402,0.0,28.0,25.97,0.0,2.0,1851.0,21.0,3.72,-0.07,-1.02,-0.1,2.54,1.66,-4.91,228.0,,,0.0,1.0,1.0,100.0
14120,1,walk,walk,3508,,3508.0,20.0,0.0,0.0,6.0,2.66,0.037,0.357,0.0,28.0,25.97,0.0,2.0,1851.0,21.0,3.5,-0.06,-1.02,-0.1,3.21,1.8,-6.51,228.0,,,0.0,1.0,1.0,100.0
