cycle_index,gait_percent,segment_id,walk_dt_ms,walk_exec_ms,walk_out,walk_state,walk_tilt_forward_deg,walk_pos_rad,walk_vel_rad_s,walk_tq_nm,walk_temp_c,walk_vbus_v,walk_err_code,walk_fb_age_ms,walk_typical_stride_ms,walk_effective_step_count,walk_tilt_accel_deg,walk_acc_x,walk_acc_y,walk_acc_z,walk_gyr_x,walk_gyr_y,walk_gyr_z,cfg_gait_model,cfg_gait_mode,cfg_side_is_left,cfg_assist_pct
3,0.0,1,20.0,0.0,0,1,8.01,-0.171,-0.395,-6.585,42.0,25.16,0,39.0,3880.0,15.0,8.78,-0.16,-1.0,-0.02,-12.37,14.06,-4.39,0,1,1,100.0
3,1.0,1,20.0,0.0,0,1,8.421199999999999,-0.11931999999999998,6.497440000000001,-1.5803999999999991,42.0,25.7224,0,32.63999999999999,3880.0,15.0,7.9079999999999995,-0.1424,-1.0176,-0.04,-10.3772,16.9568,-9.382,0,1,1,100.0
3,2.0,1,20.0,1.0,0,1,8.5952,-0.1512,-1.0092800000000002,0.0,42.0,25.93,0,19.0,3880.0,15.0,6.7538,-0.12,-1.03,-0.0526,-7.0396,16.466,-4.132,0,1,1,100.0
3,3.0,1,20.0,0.0,0,1,8.6016,-0.21036000000000002,-1.0253199999999991,0.0,42.0,25.93,0,18.0,3880.0,15.0,6.3104000000000005,-0.11280000000000001,-1.03,-0.06280000000000001,-2.014399999999998,13.080399999999997,11.656000000000008,0,1,1,100.0
3,4.0,1,20.0,0.0,0,1,8.54,-0.2392,-0.3537599999999999,0.0,42.0,25.93,0,18.0,3880.0,15.0,7.397200000000001,-0.13080000000000003,-1.03,-0.07,2.729200000000001,9.388799999999998,25.746000000000002,0,1,1,100.0
3,5.0,1,20.0,0.0,0,1,8.58,-0.2464,-0.038400000000000004,0.0,42.0,25.93,0,18.0,3880.0,15.0,9.176,-0.164,-1.02,-0.07,5.726,6.428,32.519999999999996,0,1,1,100.0
3,6.0,1,20.0,0.0,0,1,8.788400000000001,-0.24544,0.07339999999999992,0.0,42.0,25.93,0,18.0,3880.0,15.0,11.026000000000002,-0.19560000000000002,-1.01,-0.06,6.8740000000000006,3.7387999999999972,33.9912,0,1,1,100.0
3,7.0,1,20.0,0.0,0,1,9.6524,-0.22408,0.42292000000000035,0.0,42.0,25.93,0,18.0,3880.0,15.0,13.983600000000001,-0.24640000000000004,-1.0,-0.05,5.310799999999999,-0.8792000000000019,28.333599999999997,0,1,1,100.0
3,8.0,1,20.0,0.0,0,1,10.6368,-0.213,-0.015759999999999955,0.0,42.0,25.93,0,18.0,3880.0,15.0,15.9588,-0.28040000000000004,-0.9796,-0.04,3.154,-3.0536000000000003,20.6636,0,1,1,100.0
3,9.0,1,20.0,0.0,0,1,11.669,-0.213,0.046759999999999996,0.0,42.0,25.93,0,18.0,3880.0,15.0,17.623,-0.30419999999999997,-0.9658,-0.03,1.8687999999999998,-3.4506,12.994,0,1,1,100.0
3,10.0,1,20.0,0.0,6,2,12.75,-0.2148,-0.08320000000000001,-0.0304,42.0,25.849999999999998,0,18.0,3880.0,15.0,18.872,-0.32,-0.942,-0.03,1.326,-2.8000000000000003,4.586,0,1,1,100.0
3,11.0,1,20.0,0.0,6,2,13.8768,-0.07766666666666665,1.9656533333333321,4.856106666666667,42.0,25.316399999999998,0,18.0,3880.0,15.0,19.221066666666665,-0.33,-0.9445333333333333,-0.03,0.9757333333333332,-1.3769333333333331,-10.454000000000006,0,1,1,100.0
3,12.0,1,20.0,1.0,6,2,15.075200000000002,-0.03939999999999998,0.37411999999999945,4.259079999999997,42.0,25.523200000000003,0,19.0,3880.0,15.0,17.621199999999998,-0.30879999999999996,-0.9612,-0.02,-1.0792000000000042,0.262800000000002,-30.720000000000017,0,1,1,100.0
3,13.0,1,20.0,1.0,6,2,15.401,-0.031239999999999997,0.20953999999999995,3.48446,42.0,25.6482,0,19.0,3880.0,15.0,16.1616,-0.2812,-0.9793999999999999,-0.02,-2.7448000000000006,1.0448000000000004,-35.9902,0,1,1,100.0
3,14.0,1,20.0,1.0,6,2,15.4508,-0.02718,0.013359999999999995,3.21494,42.0,25.69,0,19.0,3880.0,15.0,13.298999999999998,-0.23359999999999997,-0.9982,-0.028200000000000017,-4.7982000000000005,1.9868000000000003,-36.5182,0,1,1,100.0
3,15.0,1,20.0,1.0,6,2,15.016,-0.028,-0.034,3.3544,42.0,25.69,0,19.0,3880.0,15.0,10.702,-0.192,-1.014,-0.04,-4.994000000000001,2.226,-30.566,0,1,1,100.0
3,16.0,1,20.0,1.0,6,2,13.711199999999998,-0.029160000000000002,0.03551999999999988,3.6272,42.0,25.65,0,19.0,3880.0,15.0,8.0908,-0.14839999999999998,-1.03,-0.05160000000000003,-2.7931999999999984,1.8543999999999996,-17.546799999999994,0,1,1,100.0
3,17.0,1,20.0,1.0,6,2,12.918,-0.03,-0.0483600000000001,3.6029600000000004,42.0,25.65,0,19.0,3880.0,15.0,7.54,-0.14,-1.03,-0.06,-1.5175999999999985,1.5567999999999997,-11.987199999999993,0,1,1,100.0
3,18.0,1,20.0,1.0,6,2,11.6772,-0.03,0.015240000000000021,3.6252400000000002,42.0,25.65,0,19.0,3880.0,15.0,7.2728,-0.13,-1.02,-0.06,-0.08439999999999954,1.1483999999999999,-6.013199999999998,0,1,1,100.0
3,19.0,1,20.0,1.0,6,2,10.3992,-0.03,-0.03852000000000009,3.64148,42.0,25.65,0,19.0,3880.0,15.0,7.2472,-0.13,-1.02,-0.06,0.9243999999999997,0.9312,-2.293600000000001,0,1,1,100.0
3,20.0,1,20.0,1.0,6,2,9.404,-0.03,0.015200000000000003,3.6358,42.0,25.65,0,19.0,3880.0,15.0,7.318,-0.13,-1.014,-0.06,1.5879999999999999,0.836,-0.814,0,1,1,100.0
3,21.0,1,20.0,1.0,6,2,8.779599999999999,-0.03,-0.02972000000000013,3.55856,42.0,25.65,0,19.0,3880.0,15.0,7.3888,-0.13,-1.01,-0.06,1.8376000000000001,0.7904,-0.6388,0,1,1,100.0
3,22.0,1,20.0,1.0,6,2,8.0892,-0.027279999999999995,0.03923999999999951,3.2436399999999996,42.0,25.69,0,19.0,3880.0,15.0,7.3168,-0.13,-1.01,-0.05,1.8188000000000002,0.9088000000000002,-1.3468000000000009,0,1,1,100.0
3,23.0,1,20.0,1.0,6,2,7.804,-0.027160000000000004,-0.02376000000000014,3.29664,42.0,25.69,0,19.0,3880.0,15.0,7.102399999999999,-0.13,-1.02,-0.06,2.1880000000000006,0.8871999999999999,-1.4775999999999998,0,1,1,100.0
3,24.0,1,20.0,1.0,6,2,7.5628,-0.029120000000000007,-0.04872000000000003,3.5202400000000007,42.0,25.65,0,18.0,3880.0,15.0,6.8016,-0.12,-1.02,-0.06,3.317600000000002,0.5383999999999992,-0.6659999999999979,0,1,1,100.0
3,25.0,1,20.0,1.0,6,2,7.4,-0.03,0.022,3.71,42.0,25.65,0,18.0,3880.0,15.0,6.65,-0.12,-1.02,-0.06,4.68,0.04,0.72,0,1,1,100.0
3,26.0,1,20.0,2.0,6,2,7.3086,-0.031,-0.03847999999999999,3.7644,42.0,25.62,0,19.0,3880.0,15.0,6.6852,-0.12,-1.02,-0.05,5.5074000000000005,-0.2266000000000001,1.7216000000000005,0,1,1,100.0
3,27.0,1,20.0,2.0,6,2,7.2496,-0.031,-0.03184000000000008,3.78144,42.0,25.62,0,19.0,3880.0,15.0,6.7912,-0.12,-1.02,-0.04479999999999996,5.7444,-0.29479999999999995,2.2280000000000006,0,1,1,100.0
3,28.0,1,20.0,2.0,6,2,7.21,-0.031,-0.059493333333333204,3.80384,42.0,25.62,0,19.0,3880.0,15.0,6.973733333333334,-0.12,-1.02,-0.039066666666666645,4.900799999999999,-0.12253333333333316,2.3753333333333333,0,1,1,100.0
3,29.0,1,20.0,2.0,6,2,7.21,-0.03104000000000001,-0.009000000000000683,3.8128,42.0,25.62,0,19.0,3880.0,15.0,7.0112,-0.12040000000000009,-1.02,-0.03,4.501599999999995,-0.046399999999999185,2.3275999999999994,0,1,1,100.0
3,30.0,1,20.0,2.0,6,2,7.246,-0.031,-0.036,3.8015999999999996,42.0,25.62,0,19.0,3880.0,15.0,7.106,-0.13,-1.02,-0.03,2.7680000000000002,0.41200000000000003,2.066,0,1,1,100.0
3,31.0,1,20.0,2.0,6,2,7.3056,-0.031,0.03523999999999995,3.79714,42.0,25.62,0,19.0,3880.0,15.0,7.1478,-0.13,-1.02,-0.03,1.7015999999999996,0.8236000000000001,1.9065999999999999,0,1,1,100.0
3,32.0,1,20.0,2.0,6,2,7.3788,-0.031,0.05711999999999992,3.83032,42.0,25.62,0,19.0,3880.0,15.0,7.1888,-0.13,-1.02,-0.03,1.298,1.0276,1.962,0,1,1,100.0
3,33.0,1,20.0,2.0,6,2,7.466200000000001,-0.031,-0.022739999999999934,3.80204,42.0,25.62,0,19.0,3880.0,15.0,7.3224,-0.13,-1.02,-0.04,1.3678000000000001,1.0692,2.0391999999999997,0,1,1,100.0
3,34.0,1,20.0,2.0,6,2,7.5284,-0.031,-0.0009466666666667453,3.811653333333333,42.0,25.62,0,19.0,3880.0,15.0,7.424533333333334,-0.13,-1.02,-0.04,1.5413333333333337,1.0093333333333332,1.892533333333333,0,1,1,100.0
3,35.0,1,20.0,2.0,6,2,7.617999999999999,-0.032600000000000004,-0.03860000000000001,3.9488,42.0,25.62,0,19.0,3880.0,15.0,7.48,-0.13,-1.016,-0.04,1.9,0.8380000000000001,1.604,0,1,1,100.0
3,36.0,1,20.0,2.0,6,2,7.7254,-0.03418,-0.059380000000000044,4.18402,42.0,25.572799999999997,0,19.0,3880.0,15.0,7.4718,-0.13,-1.02,-0.04,2.6314,0.5301999999999999,1.7016,0,1,1,100.0
3,37.0,1,20.0,2.0,6,2,7.8018,-0.036,-0.03491999999999996,4.39062,42.0,25.54,0,19.0,3880.0,15.0,7.5424,-0.13060000000000002,-1.02,-0.03939999999999998,3.2596000000000003,0.2245999999999998,2.0766,0,1,1,100.0
3,38.0,1,20.0,2.0,6,2,7.8564,-0.036879999999999996,0.00663999999999987,4.46176,42.0,25.5136,0,19.0,3880.0,15.0,7.624,-0.14,-1.02,-0.03,3.4979999999999993,0.06960000000000036,2.2415999999999996,0,1,1,100.0
3,39.0,1,20.0,2.0,6,2,7.9592,-0.037,0.04588000000000105,4.46096,42.0,25.5292,0,19.0,3880.0,15.0,7.848400000000001,-0.14,-1.01,-0.03,3.205599999999998,-0.08,2.0111999999999983,0,1,1,100.0
3,40.0,1,20.0,2.0,6,2,7.986,-0.037,-0.018400000000000007,4.460999999999999,42.0,25.54,0,19.0,3880.0,15.0,7.91,-0.14,-1.01,-0.03,2.9139999999999997,-0.064,1.766,0,1,1,100.0
3,41.0,1,20.0,2.0,6,2,8.067400000000001,-0.037,-0.013299999999999897,4.44316,42.0,25.54,0,19.0,3880.0,15.0,7.9958,-0.14,-1.01,-0.02,1.9711999999999976,0.11800000000000069,0.9601999999999978,0,1,1,100.0
3,42.0,1,20.0,2.0,6,2,8.1584,-0.036,0.06372000000000008,4.27872,42.0,25.54,0,19.0,3880.0,15.0,7.9616,-0.14,-1.01,-0.02,0.8439999999999986,0.5872000000000007,-0.09520000000000141,0,1,1,100.0
3,43.0,1,20.0,2.0,6,2,8.2268,-0.03316,-0.0050399999999997105,4.00572,42.0,25.5736,0,19.0,3880.0,15.0,7.848,-0.14,-1.01,-0.028399999999999977,0.21560000000000037,1.0659999999999996,-0.9567999999999994,0,1,1,100.0
3,44.0,1,20.0,2.0,6,2,8.26,-0.033,0.03380000000000109,3.95348,42.0,25.6024,0,19.0,3880.0,15.0,7.693599999999999,-0.14,-1.02,-0.03,0.006799999999999727,1.408400000000001,-1.4872000000000012,0,1,1,100.0
3,45.0,1,20.0,2.0,6,2,8.264,-0.032,0.007599999999999999,3.8618,42.0,25.62,0,19.0,3880.0,15.0,7.51,-0.13,-1.02,-0.03,0.054000000000000006,1.634,-1.674,0,1,1,100.0
3,46.0,1,20.0,2.0,6,2,8.2402,-0.032,0.05206000000000032,3.82448,42.0,25.62,0,19.0,3880.0,15.0,7.380999999999999,-0.13,-1.02,-0.03,0.20840000000000053,1.6798,-1.5515999999999994,0,1,1,100.0
3,47.0,1,20.0,2.0,6,2,8.185599999999999,-0.032,0.002,3.82484,42.720000000000006,25.62,0,19.0,3880.0,15.0,7.2612,-0.13,-1.02,-0.03,0.5136000000000006,1.5939999999999999,-1.1847999999999992,0,1,1,100.0
3,48.0,1,20.0,2.0,6,2,8.082799999999999,-0.032,0.016159999999999626,3.8245999999999998,43.0,25.62,0,19.0,3880.0,15.0,7.120399999999999,-0.13,-1.02,-0.04,1.1576000000000022,1.2887999999999988,-0.4575999999999977,0,1,1,100.0
3,49.0,1,20.0,2.0,6,2,7.9963999999999995,-0.032,0.02376000000000022,3.8914,43.0,25.62,0,19.0,3880.0,15.0,7.0376,-0.13,-1.02,-0.04,1.9496000000000016,0.9031999999999994,0.3572000000000014,0,1,1,100.0
3,50.0,1,20.0,2.0,6,2,7.94,-0.032,-0.048,4.016,43.0,25.58,0,19.0,3880.0,15.0,7.0,-0.13,-1.02,-0.04,2.62,0.64,0.97,0,1,1,100.0
3,51.0,1,20.0,2.0,6,2,7.8671999999999995,-0.03476000000000002,-0.10612000000000016,4.238760000000003,43.0,25.549599999999998,0,19.0,3880.0,15.0,6.9723999999999995,-0.12,-1.02,-0.04,3.9052000000000073,0.23599999999999796,2.1324000000000067,0,1,1,100.0
3,52.0,1,20.0,2.0,6,2,7.8148,-0.039,-0.005839999999999736,4.7915600000000005,43.0,25.47,0,19.0,3880.0,15.0,6.9552000000000005,-0.12520000000000003,-1.0252000000000001,-0.034799999999999956,6.2584000000000035,-0.4288000000000009,4.666400000000004,0,1,1,100.0
3,53.0,1,20.0,2.0,6,2,7.81,-0.039760000000000004,-0.025880000000000382,4.8828000000000005,43.0,25.447200000000002,0,19.0,3880.0,15.0,6.9676,-0.13,-1.03,-0.03,7.089200000000004,-0.6720000000000012,5.721200000000005,0,1,1,100.0
3,54.0,1,20.0,2.0,6,2,7.8435999999999995,-0.04,-0.07316000000000027,4.834840000000001,43.0,25.47,0,19.0,3880.0,15.0,7.0472,-0.13,-1.03,-0.02319999999999997,8.756400000000001,-0.9736,8.523600000000004,0,1,1,100.0
3,55.0,1,20.0,2.0,6,2,7.96,-0.037399999999999996,0.07100000000000001,4.409000000000001,43.0,25.534,0,19.0,3880.0,15.0,7.252,-0.13,-1.04,-0.012,9.814,-0.5920000000000001,11.959999999999999,0,1,1,100.0
3,56.0,1,20.0,2.0,6,2,8.0792,-0.03431999999999996,0.12199999999999966,3.9822799999999954,43.0,25.5848,0,19.0,3880.0,15.0,7.495200000000002,-0.13560000000000014,-1.04,-0.01,10.060400000000001,-0.13879999999999632,14.009600000000015,0,1,1,100.0
3,57.0,1,20.0,2.0,6,2,8.4716,-0.027359999999999992,0.10912000000000006,3.155439999999999,43.0,25.69,0,19.0,3880.0,15.0,8.580800000000002,-0.15320000000000003,-1.0368,0.0032000000000000457,9.932,0.8272000000000009,17.794000000000004,0,1,1,100.0
3,58.0,1,20.0,2.0,6,2,8.987200000000001,-0.024459999999999992,0.048680000000000834,2.9103999999999997,43.0,25.72,0,19.0,3880.0,15.0,10.304800000000006,-0.1854000000000001,-1.0146,0.01540000000000009,9.202599999999997,1.349400000000001,18.9176,0,1,1,100.0
3,59.0,1,20.0,1.0799999999999954,6,2,9.4824,-0.024,0.051040000000000495,2.8970800000000003,43.0,25.72,0,18.079999999999995,3880.0,15.0,11.799600000000003,-0.20920000000000005,-1.0008,0.02,8.4272,1.5068000000000001,18.063999999999997,0,1,1,100.0
3,60.0,1,20.0,1.0,6,2,10.411999999999999,-0.023,0.0218,2.7856,43.0,25.76,0,18.0,3880.0,15.0,13.638,-0.236,-0.98,0.03,7.3020000000000005,1.468,14.894,0,1,1,100.0
3,61.0,1,20.0,1.0,6,2,11.204400000000003,-0.022,0.04119999999999959,2.5800799999999993,43.0,25.7708,0,18.0,3880.0,15.0,14.381200000000003,-0.25,-0.98,0.04,6.6035999999999975,1.4808000000000003,12.44639999999999,0,1,1,100.0
3,62.0,1,20.0,1.0,6,2,11.9974,-0.01894,0.18019999999999992,2.2155,43.0,25.79,0,18.0,3880.0,15.0,14.7466,-0.26,-0.9806,0.04,5.944399999999999,1.6142000000000003,10.722399999999999,0,1,1,100.0
3,63.0,1,20.0,1.0,6,2,12.687600000000003,-0.01655999999999999,0.07191999999999994,1.9643199999999985,43.0,25.83,0,18.0,3880.0,15.0,14.9984,-0.2644000000000001,-0.99,0.04440000000000009,5.3211999999999975,1.7764000000000006,9.769199999999998,0,1,1,100.0
3,64.0,1,20.0,1.0,6,2,13.556400000000004,-0.01335999999999999,0.1396800000000008,1.5679599999999985,43.0,25.86,0,18.0,3880.0,15.0,15.376800000000001,-0.27,-0.99,0.05,4.414399999999997,1.9128,9.0604,0,1,1,100.0
3,65.0,1,20.0,1.0,6,2,14.075000000000001,-0.0113,-0.011100000000000006,1.3031,43.0,25.887999999999998,0,18.0,3880.0,15.0,15.6,-0.28,-0.99,0.05,3.831,1.968,8.923,0,1,1,100.0
3,66.0,1,20.0,1.0,6,2,14.863600000000003,-0.0076799999999999724,0.08780000000000042,0.8700399999999979,43.0,25.9,0,18.0,3880.0,15.0,15.8696,-0.28,-0.9916000000000001,0.05,3.0791999999999984,2.3088000000000024,9.564000000000005,0,1,1,100.0
3,67.0,1,20.0,1.0,6,2,15.232000000000001,-0.006,0.08995999999999994,0.4893999999999994,43.0,25.9,0,18.0,3880.0,15.0,15.9872,-0.2896,-1.0,0.05,2.8931999999999998,2.6520000000000006,10.389600000000002,0,1,1,100.0
3,68.0,1,20.0,1.0,6,2,15.769200000000003,-0.002319999999999982,0.11708000000000239,0.08675999999999648,43.0,25.9,0,18.0,3880.0,15.0,16.255200000000002,-0.29,-1.0,0.05,2.9444000000000017,3.101600000000002,12.159200000000013,0,1,1,100.0
3,69.0,1,20.0,1.0,6,2,16.3468,0.0017200000000000045,0.036759999999999925,-0.3822000000000005,43.0,25.9,0,18.0,3880.0,15.0,16.936,-0.3,-0.9927999999999999,0.05,3.442800000000001,3.3404000000000003,14.024400000000002,0,1,1,100.0
3,70.0,1,20.0,2.0,6,2,16.91,0.004,0.0862,-0.6052,43.0,25.9,0,19.0,3880.0,15.0,18.0,-0.32,-0.984,0.05,4.44,3.644,14.968,0,1,1,100.0
3,71.0,1,20.0,2.0,6,2,17.186000000000003,0.004,0.02999999999999966,-0.6245800000000001,43.0,25.9,0,19.0,3880.0,15.0,18.5716,-0.3298000000000001,-0.98,0.05,5.119800000000003,3.8372000000000006,15.1184,0,1,1,100.0
3,72.0,1,20.0,2.0,6,2,18.1628,0.006360000000000003,0.08508000000000006,-0.8291600000000001,43.0,25.9,0,19.0,3880.0,15.0,20.2688,-0.3536,-0.96,0.05360000000000002,7.4392000000000005,4.11,14.6008,0,1,1,100.0
3,73.0,1,20.0,2.0,6,2,18.735000000000003,0.007,0.06532000000000063,-0.9490600000000006,43.0,25.9,0,19.0,3880.0,15.0,20.9724,-0.36740000000000006,-0.9525999999999999,0.06,8.441200000000002,4.2166000000000015,14.059799999999997,0,1,1,100.0
3,74.0,1,20.0,2.0,6,2,19.601200000000002,0.009120000000000003,0.0858399999999998,-1.2620800000000008,42.0,25.8952,0,19.0,3880.0,15.0,21.704,-0.38,-0.95,0.07120000000000005,9.581200000000003,5.128800000000003,13.366,0,1,1,100.0
3,75.0,1,20.0,2.0,6,2,20.35,0.012,-0.033,-1.52,42.0,25.86,0,19.0,3880.0,15.0,22.28,-0.39,-0.95,0.08,10.2,6.8,12.74,0,1,1,100.0
3,76.0,1,20.0,2.0,6,2,20.968799999999998,0.014,0.06754000000000053,-1.8153599999999996,42.0,25.86,0,19.0,3880.0,15.0,22.834999999999997,-0.4,-0.94,0.09,10.3862,8.558799999999996,12.072200000000002,0,1,1,100.0
3,77.0,1,20.0,2.0,6,2,21.780000000000005,0.015520000000000027,0.04547999999999997,-2.0182000000000024,42.0,25.83,0,19.0,3880.0,15.0,23.73640000000001,-0.41,-0.9347999999999997,0.1,9.989599999999992,10.620000000000013,11.017599999999991,0,1,1,100.0
3,78.0,1,20.0,2.0,6,2,22.457200000000004,0.017,0.016159999999999945,-2.1873599999999995,42.0,25.83,0,19.0,3880.0,15.0,24.690800000000007,-0.4228000000000002,-0.9271999999999999,0.1,8.84759999999999,11.279199999999998,9.903999999999991,0,1,1,100.0
3,79.0,1,20.0,2.0,6,2,22.879200000000004,0.01704000000000001,0.028719999999999937,-2.20352,42.0,25.83,0,19.0,3880.0,15.0,25.312800000000003,-0.43040000000000006,-0.92,0.09959999999999991,7.719199999999993,10.837199999999994,9.100399999999995,0,1,1,100.0
3,80.0,1,20.0,2.0,6,2,23.506,0.018,0.016800000000000002,-2.2196,42.0,25.83,0,19.0,3880.0,15.0,26.102,-0.448,-0.91,0.09,5.462,8.783999999999999,7.792,0,1,1,100.0
3,81.0,1,20.0,2.0,6,2,24.0976,0.01855999999999999,-0.018720000000000347,-2.33092,42.0,25.8076,0,19.0,3880.0,15.0,26.4156,-0.45,-0.91,0.08,3.2848000000000064,6.033600000000009,6.821200000000002,0,1,1,100.0
3,82.0,1,20.0,2.0,6,2,24.6736,0.02,-0.012039999999999464,-2.5383600000000004,42.0,25.79,0,19.0,3880.0,15.0,26.112,-0.45,-0.9244000000000001,0.09,2.0307999999999984,4.173599999999997,6.574400000000001,0,1,1,100.0
3,83.0,1,20.0,2.0,6,2,25.153600000000004,0.022,0.02495999999999931,-2.67652,42.0,25.79,0,19.0,3880.0,15.0,25.399599999999992,-0.44,-0.93,0.09080000000000019,2.0144000000000033,3.7987999999999973,6.23519999999999,0,1,1,100.0
3,84.0,1,20.0,2.0,6,2,25.6888,0.021,-0.008800000000000405,-2.6348799999999994,42.0,25.79,0,19.0,3880.0,15.0,23.628199999999996,-0.40579999999999994,-0.93,0.1,2.7950000000000013,1.335599999999992,1.668199999999987,0,1,1,100.0
3,85.0,1,20.0,2.0,6,2,25.882,0.0202,-0.0458,-2.4505999999999997,42.0,25.79,0,19.0,3880.0,15.0,22.37,-0.376,-0.922,0.108,3.116,-1.7040000000000004,-3.1180000000000003,0,1,1,100.0
3,86.0,1,20.0,0.0,1,6,26.23,-0.07755999999999981,-2.949400000000002,-2.5198799999999997,42.0,25.6572,0,17.0,3880.0,16.0,15.829600000000006,-0.25460000000000016,-0.9,0.12,2.420400000000003,-11.085000000000003,-32.64459999999996,0,1,1,100.0
3,87.0,1,20.0,0.0,1,6,26.014799999999994,-0.18200000000000066,-1.8566399999999903,-2.7325200000000143,42.0,25.6816,0,17.0,3880.0,16.0,10.671599999999957,-0.16759999999999947,-0.9112000000000003,0.11879999999999973,-0.6164000000000401,-5.960399999999895,-58.149600000000234,0,1,1,100.0
3,88.0,1,20.0,0.0,1,6,25.548,-0.2228000000000002,-1.3250999999999977,-3.300980000000001,42.0,25.62,0,17.0,3880.0,16.0,8.020999999999988,-0.13119999999999982,-0.9388000000000001,0.10059999999999991,-3.4328000000000145,1.6306000000000411,-73.43620000000008,0,1,1,100.0
3,89.0,1,20.0,0.0,1,6,24.121599999999997,-0.26120000000000004,-0.5887799999999999,-4.060880000000001,42.0,25.5472,0,17.0,3880.0,16.0,5.682799999999998,-0.1,-1.0064000000000002,0.07179999999999996,-8.016400000000006,16.337800000000023,-92.83560000000003,0,1,1,100.0
3,90.0,1,20.0,0.4,1,6,20.966,-0.285,-0.30720000000000003,-4.409599999999999,42.0,25.51,0,17.4,3880.0,16.0,6.862,-0.128,-1.088,0.022,-11.394,33.176,-99.49799999999999,0,1,1,100.0
3,91.0,1,20.0,0.0,3,7,18.314400000000006,-0.29373999999999995,-0.2425800000000009,-4.5011,42.0,25.54,0,19.0,3880.0,16.0,9.664199999999994,-0.18739999999999987,-1.11,-0.011599999999999909,-11.7658,37.0064,-89.92460000000003,0,1,1,100.0
3,92.0,1,20.0,0.07999999999997266,3,7,13.519999999999959,-0.297,-0.08580000000000518,-4.141719999999991,42.0,25.6136,0,19.079999999999973,3880.0,16.0,14.050400000000023,-0.2784000000000006,-1.1,-0.04920000000000028,-11.942000000000002,27.08719999999986,-58.833599999999706,0,1,1,100.0
3,93.0,1,20.0,0.6599999999999909,3,7,9.866799999999987,-0.27855999999999986,1.0105200000000012,-4.348959999999997,42.0,25.65,0,19.65999999999999,3880.0,16.0,12.598199999999983,-0.24639999999999965,-1.09,-0.04319999999999982,-11.363199999999994,10.350999999999933,-35.322199999999924,0,1,1,100.0
3,94.0,1,20.0,0.0,3,7,5.541199999999988,-0.21167999999999976,1.8803600000000018,-3.3323199999999966,42.0,25.7908,0,19.0,3880.0,16.0,5.185199999999976,-0.09799999999999955,-1.08,0.008800000000000183,-10.018799999999997,-7.922000000000036,-16.067999999999966,0,1,1,100.0
3,95.0,1,20.0,0.0,3,7,2.384,-0.1232,2.3416,-1.7662,42.0,25.906,0,19.0,3880.0,16.0,-1.21,0.026000000000000002,-1.07,0.05,-9.564,-16.842,-9.241999999999999,0,1,1,100.0
3,96.0,1,20.0,0.0,3,7,0.7473999999999842,-0.05475999999999931,2.6104800000000017,-1.1790799999999964,42.0,25.93,0,19.0,3880.0,16.0,-4.021200000000026,0.07940000000000055,-1.0601999999999998,0.05,-8.84999999999999,-21.322000000000045,-9.044400000000007,0,1,1,100.0
3,97.0,1,20.0,0.0,3,7,-1.2832000000000086,0.024920000000000296,1.2707199999999974,-0.8954600000000001,42.0,25.9,0,19.0,3880.0,16.0,-6.999600000000012,0.12860000000000013,-1.0514,0.04,-6.324199999999986,-24.3658,-11.817000000000013,0,1,1,100.0
3,98.0,1,20.0,0.25999999999999085,3,7,-2.753000000000004,0.07632000000000017,1.2354600000000016,-0.979299999999999,42.0,25.9,0,19.25999999999999,3880.0,16.0,-8.651200000000003,0.1574000000000001,-1.04,0.03,-3.4265999999999917,-19.284199999999977,-12.102999999999996,0,1,1,100.0
3,99.0,1,20.0,0.0,3,7,-4.099200000000002,0.1278800000000001,0.906399999999998,-1.01116,42.0,25.9,0,19.0,3880.0,16.0,-8.9264,0.16,-1.03,0.02,-1.4123999999999979,-9.520399999999979,-7.187599999999982,0,1,1,100.0
3,100.0,1,20.0,0.0,3,7,-4.66,0.149,0.809,-0.99,42.0,25.9,0,19.0,3880.0,16.0,-8.59,0.15,-1.03,0.02,-1.11,-5.9,-3.54,0,1,1,100.0
4,0.0,1,20.0,0.0,0,1,-4.96,0.159,0.258,-0.354,42.0,25.9,0,19.0,3880.0,16.0,-8.21,0.15,-1.03,0.01,-1.03,-4.42,-1.41,0,1,1,100.0
4,1.0,1,20.0,0.0,0,1,-5.4325,0.159,-0.08,-0.044,42.0,25.9,0,34.4,3880.0,16.0,-7.2865,0.1323,-1.03,0.01,-0.7837000000000001,-2.8233,2.2230999999999996,0,1,1,100.0
4,2.0,1,20.0,0.0,0,1,-5.843400000000001,0.159,-0.08,-0.044,42.0,25.9,0,69.8,3880.0,16.0,-6.3192,0.1146,-1.03,0.0,-0.28720000000000007,-2.0172,6.022,0,1,1,100.0
4,3.0,1,20.0,0.0,0,1,-6.06445,0.12690500000000002,-8.484959999999997,-0.015180000000000015,42.0,25.94585,0,38.390000000000015,3880.0,16.0,-5.778700000000001,0.10345,-1.03,0.0,0.0695999999999999,-1.7062500000000003,8.783,0,1,1,100.0
4,4.0,1,20.0,0.0,0,1,-6.4136,0.07644000000000001,-1.16712,0.0,42.0,25.93,0,17.0,3880.0,16.0,-4.836399999999999,0.0896,-1.03,0.0,0.6436,-1.2332,15.621599999999999,0,1,1,100.0
4,5.0,1,20.0,0.0,0,1,-6.49325,0.06405,-0.97065,0.0,42.0,25.93,0,17.0,3880.0,16.0,-4.5355,0.08075,-1.03,0.0,0.72325,-1.08275,18.312,0,1,1,100.0
4,6.0,1,20.0,0.0,0,1,-6.5581,0.03547000000000001,-1.01472,0.0,42.0,25.93,0,17.0,3880.0,16.0,-3.8865,0.0719,-1.03,0.0,0.6409,-0.7118000000000001,23.8223,0,1,1,100.0
4,7.0,1,20.0,0.0,0,1,-6.48135,0.011050000000000004,-0.74616,0.0,42.0,25.93,0,17.0,3880.0,16.0,-3.1581,0.05305000000000001,-1.03,0.0,0.22540000000000013,-0.29015000000000013,28.418149999999997,0,1,1,100.0
4,8.0,1,20.0,0.0,0,1,-6.3128,-0.004799999999999997,-0.5942400000000002,0.0,42.0,25.93,0,17.0,3880.0,16.0,-2.5016000000000003,0.048400000000000006,-1.02,0.0,-0.2855999999999998,0.043599999999999875,30.974,0,1,1,100.0
4,9.0,1,20.0,0.0,0,1,-5.9747,-0.012719999999999993,-0.24450000000000008,0.0,42.0,25.93,0,17.0,3880.0,16.0,-1.597100000000001,0.030700000000000015,-1.02,0.0,-1.0577999999999992,0.39669999999999966,32.4236,0,1,1,100.0
4,10.0,1,20.0,0.0,0,1,-5.152,-0.019,0.033400000000000006,0.0,42.0,25.93,0,17.0,3880.0,16.0,0.0030000000000000027,0.003,-1.02,0.0,-2.42,0.9680000000000001,30.596,0,1,1,100.0
4,11.0,1,20.0,0.0,0,1,-4.462600000000001,-0.012710000000000008,0.39062999999999976,0.0,42.0,25.93,0,17.0,3880.0,16.0,1.0284999999999995,-0.014699999999999989,-1.02,0.0,-3.348499999999999,1.3833999999999997,26.883900000000004,0,1,1,100.0
4,12.0,1,20.0,0.0,0,1,-3.7436000000000003,-0.004520000000000005,0.24612000000000006,0.0,42.0,25.93,0,17.0,3880.0,16.0,1.8727999999999996,-0.031199999999999988,-1.01,-0.01,-4.291999999999999,1.6991999999999998,21.994400000000002,0,1,1,100.0
4,13.0,1,20.0,0.0,0,1,-3.3252,-0.0009700000000000017,0.20240000000000005,0.0,42.0,25.93,0,17.0,3880.0,16.0,2.2633999999999994,-0.0401,-1.01,-0.01,-4.8259,1.8411,18.985200000000003,0,1,1,100.0
4,14.0,1,20.0,0.0,0,1,-2.467800000000001,0.004339999999999995,0.10010000000000008,0.0,42.0,25.93,0,17.0,3880.0,16.0,2.7949999999999995,-0.05,-1.01,-0.01,-5.8233999999999995,1.9967999999999997,12.872400000000006,0,1,1,100.0
4,15.0,1,20.0,0.0,0,1,-1.1215,0.007,-0.09925,0.0,42.0,25.93,0,17.0,3880.0,16.0,3.0389999999999997,-0.05,-1.02,-0.0255,-6.6485,1.885,4.9215,0,1,1,100.0
4,16.0,1,20.0,0.0,0,1,-0.3224000000000005,0.0044000000000000055,-0.15683999999999962,0.0,42.0,25.93,0,17.0,3880.0,16.0,2.8952,-0.05,-1.02,-0.033199999999999986,-6.428000000000001,1.6256000000000002,1.919600000000001,0,1,1,100.0
4,17.0,1,20.0,0.0,0,1,0.39329999999999915,-0.009349999999999966,-0.7713599999999982,0.0,42.0,25.93,0,17.0,3880.0,16.0,2.6120000000000005,-0.049100000000000026,-1.0209,-0.04089999999999998,-5.5752000000000015,1.2739000000000007,1.1882999999999981,0,1,1,100.0
4,18.0,1,20.0,0.0,0,1,0.8718999999999995,-0.034179999999999953,-1.734769999999999,0.0,42.0,25.93,0,17.0,3880.0,16.0,2.3268000000000004,-0.04,-1.03,-0.05,-4.563100000000001,0.8294000000000007,2.9001999999999963,0,1,1,100.0
4,19.0,1,20.0,0.0,0,1,1.5238000000000005,-0.10642000000000004,-2.2248599999999996,0.0,42.0,25.93,0,17.0,3880.0,16.0,1.8202999999999998,-0.03369999999999999,-1.0363,-0.05,-2.614099999999999,-0.2135000000000005,10.838500000000005,0,1,1,100.0
4,20.0,1,20.0,0.0,0,1,1.958,-0.1524,-1.0734000000000001,0.0,42.0,25.93,0,17.0,3880.0,16.0,1.806,-0.03,-1.04,-0.06,-0.83,-0.724,20.862,0,1,1,100.0
4,21.0,1,20.0,0.0,0,1,2.3457,-0.17204,-0.4996299999999995,0.0,42.0,25.905099999999997,0,17.0,3880.0,16.0,2.458799999999999,-0.04169999999999999,-1.0383,-0.06,1.2877999999999985,-0.9352999999999999,30.795799999999993,0,1,1,100.0
4,22.0,1,20.0,0.0,0,1,2.6233999999999997,-0.18528999999999998,-0.5561500000000007,0.0,42.0,25.93,0,17.0,3880.0,16.0,3.370699999999999,-0.05939999999999998,-1.03,-0.06,3.0532999999999983,-1.0523,36.436099999999996,0,1,1,100.0
4,23.0,1,20.0,0.0,0,1,2.910399999999999,-0.19113,-0.08688000000000058,0.0,42.0,25.93,0,17.0,3880.0,16.0,4.481599999999997,-0.08419999999999993,-1.03,-0.06,4.769799999999996,-1.1638999999999997,40.01429999999999,0,1,1,100.0
4,24.0,1,20.0,0.0,6,2,3.471999999999999,-0.191,-0.01717999999999987,0.008139999999999974,42.0,25.8782,0,17.74,3880.0,16.0,6.663599999999997,-0.11479999999999996,-1.0126,-0.06,7.249199999999997,-1.3809999999999996,41.021,0,1,1,100.0
4,25.0,1,20.0,0.0,6,2,3.75625,-0.1535,2.80425,2.100375,42.0,25.5975,0,18.0,3880.0,16.0,7.71,-0.1325,-1.01,-0.05375,8.0175,-1.68875,38.787499999999994,0,1,1,100.0
4,26.0,1,20.0,0.0,6,2,4.678999999999999,-0.05688000000000001,0.7570200000000006,4.879619999999999,42.0,25.3986,0,18.0,3880.0,16.0,10.2754,-0.18019999999999997,-0.99,-0.04,8.711,-3.3031999999999995,25.376600000000007,0,1,1,100.0
4,27.0,1,20.0,0.7899999999999978,6,2,5.491299999999999,-0.04863000000000001,0.25299000000000005,5.41823,42.0,25.3616,0,18.79,3880.0,16.0,11.456599999999998,-0.1979,-0.99,-0.032100000000000024,7.582700000000002,-4.329199999999998,12.835800000000017,0,1,1,100.0
4,28.0,1,20.0,1.0,6,2,6.3599999999999985,-0.04388,0.1648,5.08812,42.0,25.4224,0,19.0,3880.0,16.0,11.9828,-0.21,-0.98,-0.014400000000000034,5.458400000000005,-4.6756,2.004800000000018,0,1,1,100.0
4,29.0,1,20.0,1.0,6,2,7.685199999999998,-0.03767,0.06326000000000036,4.452420000000001,42.0,25.5199,0,19.0,3880.0,16.0,11.7875,-0.20670000000000005,-0.99,-0.01,1.7439000000000053,-3.9683000000000024,-8.97179999999999,0,1,1,100.0
4,30.0,1,20.0,1.0,6,2,8.416,-0.0358,0.0924,4.178800000000001,42.0,25.58,0,19.0,3880.0,16.0,11.275,-0.199,-0.99,-0.01,-0.097,-2.998,-12.378,0,1,1,100.0
4,31.0,1,20.0,1.0,6,2,9.009699999999999,-0.03313000000000001,0.1261499999999997,3.9407800000000006,42.0,25.6148,0,19.0,3880.0,16.0,10.638100000000003,-0.19,-0.9986999999999999,-0.01,-1.2945999999999962,-1.8919000000000044,-13.642799999999996,0,1,1,100.0
4,32.0,1,20.0,1.0,6,2,9.2632,-0.03218,0.09920000000000004,3.85156,42.0,25.62,0,19.0,3880.0,16.0,10.278400000000001,-0.18180000000000002,-1.0,-0.01819999999999999,-1.7225999999999997,-1.3098000000000007,-13.7164,0,1,1,100.0
4,33.0,1,20.0,1.0,6,2,9.62575,-0.031,0.0012800000000000185,3.6976,42.0,25.64115,0,19.0,3880.0,16.0,9.60325,-0.17,-1.00705,-0.02,-2.23395,-0.2804499999999994,-13.04635,0,1,1,100.0
4,34.0,1,20.0,1.0,6,2,9.8318,-0.03,-0.07736000000000044,3.5760199999999998,42.0,25.65,0,19.0,3880.0,16.0,8.796000000000001,-0.15820000000000004,-1.01,-0.021799999999999955,-2.4228000000000005,0.7421999999999986,-11.228000000000005,0,1,1,100.0
4,35.0,1,20.0,1.0,6,2,9.8115,-0.03,-0.057800000000000004,3.60515,42.0,25.65,0,19.0,3880.0,16.0,8.283999999999999,-0.15,-1.01,-0.03,-2.2664999999999997,1.1795,-9.578,0,1,1,100.0
4,36.0,1,20.0,1.0,6,2,9.767,-0.03,-0.07733999999999994,3.6032800000000003,42.0,25.65,0,19.0,3880.0,16.0,8.0464,-0.14140000000000005,-1.01,-0.03,-2.0880000000000005,1.2931999999999997,-8.644200000000003,0,1,1,100.0
4,37.0,1,20.0,1.0,6,2,9.5012,-0.031,-0.028,3.8019399999999997,42.0,25.62,0,19.0,3880.0,16.0,7.4569,-0.13,-1.02,-0.04,-1.1695000000000009,1.2361000000000002,-5.721600000000002,0,1,1,100.0
4,38.0,1,20.0,1.0,6,2,9.2636,-0.03252000000000001,-0.008600000000000137,4.02574,42.0,25.6096,0,19.0,3880.0,16.0,7.1788,-0.13,-1.02,-0.04,-0.2969999999999987,0.9705999999999996,-3.6609999999999974,0,1,1,100.0
4,39.0,1,20.0,1.0,6,2,9.08275,-0.034515000000000004,-0.05711999999999998,4.15668,42.0,25.5594,0,19.0,3880.0,16.0,7.0488,-0.13,-1.02,-0.04,0.3880999999999988,0.7373000000000004,-2.2486500000000023,0,1,1,100.0
4,40.0,1,20.0,1.0,6,2,8.804,-0.036,-0.043000000000000003,4.3717999999999995,42.0,25.54,0,19.0,3880.0,16.0,6.962,-0.12,-1.02,-0.04,1.39,0.41,-0.346,0,1,1,100.0
4,41.0,1,20.0,1.0,6,2,8.5553,-0.037,-0.08569000000000011,4.44368,42.0,25.51,0,19.0,3880.0,16.0,6.9757,-0.12189999999999998,-1.02,-0.04,2.225999999999999,0.15910000000000024,1.1034999999999986,0,1,1,100.0
4,42.0,1,20.0,1.0,6,2,8.4786,-0.037,-0.05678000000000004,4.48616,42.0,25.51,0,19.0,3880.0,16.0,6.9934,-0.1278,-1.02,-0.04,2.4619999999999997,0.09420000000000009,1.4869999999999994,0,1,1,100.0
4,43.0,1,20.0,1.0,6,2,8.17005,-0.038,-0.0540499999999999,4.65697,42.0,25.51,0,19.0,3880.0,16.0,7.11775,-0.13,-1.02,-0.04,3.4220500000000005,-0.15995000000000012,2.85645,0,1,1,100.0
4,44.0,1,20.0,1.0,6,2,8.0092,-0.039439999999999996,-0.05892000000000007,4.82708,42.0,25.47,0,19.0,3880.0,16.0,7.2076,-0.13,-1.02,-0.04,4.0196,-0.33839999999999976,3.548399999999999,0,1,1,100.0
4,45.0,1,20.0,1.0,6,2,7.9375,-0.04065,-0.06375,4.97575,42.0,25.47,0,19.0,3880.0,16.0,7.2495,-0.13,-1.02,-0.04,4.4505,-0.47150000000000003,4.01,0,1,1,100.0
4,46.0,1,20.0,1.0,6,2,7.8358,-0.044839999999999984,-0.0991799999999998,5.601299999999999,42.0,25.3532,0,19.0,3880.0,16.0,7.3042,-0.13,-1.02,-0.03,5.749399999999996,-0.8513999999999988,5.550799999999995,0,1,1,100.0
4,47.0,1,20.0,1.0,6,2,7.82095,-0.047189999999999996,-0.10603499999999995,5.841505,42.0,25.323349999999998,0,19.0,3880.0,16.0,7.3219,-0.13,-1.02095,-0.03,6.783649999999999,-1.2122999999999995,6.9468999999999985,0,1,1,100.0
4,48.0,1,20.0,1.0,6,2,7.8298,-0.04895999999999999,-0.15293999999999977,5.91142,42.0,25.261400000000002,0,19.0,3880.0,16.0,7.3396,-0.13,-1.0298,-0.03,7.376599999999996,-1.5131999999999985,7.849599999999995,0,1,1,100.0
4,49.0,1,20.0,1.0,6,2,7.8719,-0.049729999999999996,0.012329999999999449,6.0276000000000005,42.0,25.26,0,19.0,3880.0,16.0,7.391900000000001,-0.13,-1.03,-0.03,8.541799999999999,-2.519099999999997,9.976299999999995,0,1,1,100.0
4,50.0,1,20.0,1.0,6,2,7.95,-0.0495,0.037,5.9665,42.0,25.26,0,19.0,3880.0,16.0,7.425,-0.135,-1.0350000000000001,-0.03,9.655,-3.8800000000000003,12.605,0,1,1,100.0
4,51.0,1,20.0,1.0,6,2,8.10715,-0.04609500000000001,0.1094149999999999,5.4447800000000015,42.0,25.344450000000002,0,19.0,3880.0,16.0,7.4627,-0.14,-1.0463500000000001,-0.023650000000000036,10.798449999999999,-5.349249999999998,16.400149999999993,0,1,1,100.0
4,52.0,1,20.0,1.0,6,2,8.3652,-0.036840000000000005,0.2554399999999999,4.13588,42.0,25.5432,0,19.0,3880.0,16.0,7.6884,-0.1404,-1.0504,-0.01,11.6364,-6.0064,21.003199999999996,0,1,1,100.0
4,53.0,1,20.0,1.0,6,2,8.619599999999998,-0.029760000000000036,0.2581100000000006,3.3475400000000044,42.0,25.6767,0,19.0,3880.0,16.0,8.149199999999997,-0.15,-1.06,-0.001900000000000091,11.830499999999999,-5.7013000000000025,24.136999999999986,0,1,1,100.0
4,54.0,1,20.0,1.0,6,2,8.7843,-0.026630000000000008,0.2884499999999999,2.904290000000001,42.0,25.7137,0,19.0,3880.0,16.0,8.5339,-0.15789999999999998,-1.0521,0.007899999999999978,11.7926,-5.310300000000001,25.668699999999994,0,1,1,100.0
4,55.0,1,20.0,1.0,6,2,9.17525,-0.020649999999999998,0.22915,2.3712999999999997,42.0,25.78025,0,19.0,3880.0,16.0,9.5685,-0.17675,-1.04325,0.01675,11.4345,-4.228,28.008750000000003,0,1,1,100.0
4,56.0,1,20.0,1.0,6,2,9.787999999999998,-0.014940000000000004,0.07248000000000014,1.7483600000000004,42.0,25.83,0,19.0,3880.0,16.0,11.373399999999997,-0.21059999999999995,-1.0294,0.030599999999999964,10.603600000000002,-2.5132000000000025,29.5042,0,1,1,100.0
4,57.0,1,20.0,1.0,6,2,10.0535,-0.014055000000000002,0.03531000000000005,1.6209200000000001,42.0,25.83,0,19.0,3880.0,16.0,12.16105,-0.21944999999999998,-1.02055,0.03944999999999999,10.2142,-1.8229000000000009,29.56615,0,1,1,100.0
4,58.0,1,20.0,1.0,6,2,10.680499999999999,-0.012170000000000005,0.003939999999999918,1.4741600000000001,42.0,25.86,0,19.0,3880.0,16.0,13.989999999999995,-0.2465999999999999,-0.9917,0.048299999999999954,9.339900000000002,-0.42240000000000333,28.810300000000005,0,1,1,100.0
4,59.0,1,20.0,1.0,6,2,11.686299999999997,-0.012,0.026719999999999983,1.45457,42.0,25.86,0,19.0,3880.0,16.0,16.574199999999998,-0.28429999999999994,-0.9657,0.05,8.040700000000003,0.9561999999999985,26.050900000000006,0,1,1,100.0
4,60.0,1,20.0,1.0,6,2,12.177999999999999,-0.012,0.0062000000000000015,1.4534,42.0,25.86,0,19.0,3880.0,16.0,17.62,-0.302,-0.954,0.056,7.4319999999999995,1.27,24.37,0,1,1,100.0
4,61.0,1,20.0,1.0,6,2,13.246200000000002,-0.012,0.014420000000000386,1.4123299999999999,42.0,25.86,0,19.0,3880.0,16.0,19.262300000000003,-0.32970000000000005,-0.94,0.06,6.126799999999998,1.4203,20.735599999999994,0,1,1,100.0
4,62.0,1,20.0,1.0,6,2,13.903899999999997,-0.011,0.0668000000000004,1.3072900000000005,42.0,25.86,0,19.0,3880.0,16.0,19.8447,-0.34,-0.94,0.06,5.269500000000004,1.2993000000000008,18.80380000000001,0,1,1,100.0
4,63.0,1,20.0,1.0,6,2,14.909699999999996,-0.01,0.06518000000000075,1.1491600000000008,42.0,25.880399999999998,0,19.0,3880.0,16.0,20.3163,-0.35,-0.94,0.06,3.7522000000000073,1.0135000000000014,16.54180000000001,0,1,1,100.0
4,64.0,1,20.0,1.0,6,2,15.738799999999998,-0.008720000000000004,-0.032160000000000466,1.0094400000000003,42.0,25.9,0,19.0,3880.0,16.0,20.4712,-0.35279999999999995,-0.95,0.06,2.272400000000004,0.7324000000000008,15.449200000000001,0,1,1,100.0
4,65.0,1,20.0,1.0,6,2,16.30625,-0.007475,0.05145,0.88995,42.0,25.9,0,19.0,3880.0,16.0,20.52625,-0.36,-0.95,0.06,1.0902500000000002,0.51025,15.106,0,1,1,100.0
4,66.0,1,20.0,1.0,6,2,17.1322,-0.006589999999999998,0.04348999999999997,0.7256899999999998,42.0,25.9,0,19.0,3880.0,16.0,20.6469,-0.36,-0.96,0.06,-0.8446000000000025,0.07929999999999937,15.111500000000001,0,1,1,100.0
4,67.0,1,20.0,1.0,6,2,17.503899999999998,-0.005705000000000007,0.04024499999999993,0.629225000000001,42.0,25.9,0,19.0,3880.0,16.0,20.7354,-0.36294999999999994,-0.96,0.06,-1.7856499999999926,-0.17734999999999773,15.276699999999998,0,1,1,100.0
4,68.0,1,20.0,1.0,6,2,17.943999999999996,-0.00464000000000001,0.06851999999999948,0.46580000000000155,42.0,25.9,0,19.0,3880.0,16.0,20.8704,-0.37,-0.96,0.06,-2.9179999999999904,-0.5539999999999964,15.571599999999998,0,1,1,100.0
4,69.0,1,20.0,1.0,6,2,19.16905,-0.0014350000000000022,0.12419999999999982,-0.011969999999999691,42.0,25.9,0,19.0,3880.0,16.0,21.442999999999998,-0.38,-0.96,0.05,-5.883749999999998,-2.2159499999999985,16.67905,0,1,1,100.0
4,70.0,1,20.0,1.0,6,2,19.645,0.0008,0.0771,-0.2313,42.0,25.9,0,19.0,3880.0,16.0,21.718999999999998,-0.389,-0.969,0.041,-6.741,-3.084,17.2,0,1,1,100.0
4,71.0,1,20.0,1.0,6,2,20.445933333333336,0.00444666666666667,0.1738733333333333,-0.770636666666667,42.0,25.9,0,19.0,3880.0,16.0,22.209133333333334,-0.3922333333333334,-0.97,0.03776666666666665,-7.4901,-4.594000000000001,18.354,0,1,1,100.0
4,72.0,1,20.0,1.0,6,2,20.646533333333334,0.005626666666666657,0.1656133333333334,-0.8727066666666659,42.0,25.9,0,19.0,3880.0,16.0,22.338933333333333,-0.3981333333333333,-0.97,0.03186666666666671,-7.543199999999999,-4.947999999999997,18.708,0,1,1,100.0
4,73.0,1,20.0,2.0,6,2,21.73465,0.01320999999999999,0.14253000000000005,-1.802774999999999,42.0,25.86,0,20.0,3880.0,16.0,23.2899,-0.4110499999999999,-0.96,0.02,-7.002200000000002,-6.922999999999997,20.99035,0,1,1,100.0
4,74.0,1,20.0,2.0,6,2,22.0267,0.014979999999999995,0.13014000000000003,-2.0284499999999994,42.0,25.86,0,20.0,3880.0,16.0,23.626199999999997,-0.41989999999999994,-0.96,0.02,-6.6836,-7.453999999999999,21.583299999999998,0,1,1,100.0
4,75.0,1,20.0,2.0,6,2,22.817500000000003,0.019375,0.082625,-2.438875,42.0,25.814999999999998,0,20.0,3880.0,16.0,24.7375,-0.43374999999999997,-0.95,0.02,-5.5024999999999995,-8.59625,22.8625,0,1,1,100.0
4,76.0,1,20.0,2.0,6,2,23.2068,0.020520000000000007,0.13615999999999948,-2.5789600000000004,42.0,25.79,0,20.0,3880.0,16.0,25.304800000000004,-0.44520000000000004,-0.9447999999999999,0.025200000000000045,-4.7967999999999975,-8.8628,23.2196,0,1,1,100.0
4,77.0,1,20.0,2.0,6,2,23.824399999999994,0.022,0.028899999999999863,-2.7726000000000006,42.0,25.7687,0,20.0,3880.0,16.0,26.110199999999995,-0.46,-0.93,0.03,-3.54250000000001,-9.108599999999996,23.13790000000001,0,1,1,100.0
4,78.0,1,20.0,1.0,6,2,24.6361,0.022,-0.11253,-2.71286,42.0,25.7759,0,19.0,3880.0,16.0,26.6306,-0.46,-0.9147000000000001,0.03,-1.8737000000000033,-11.78259999999999,20.42870000000001,0,1,1,100.0
4,79.0,1,20.0,1.0,6,2,25.495399999999997,0.020170000000000004,-0.11756999999999965,-2.56292,42.0,25.79,0,19.0,3880.0,16.0,25.822200000000002,-0.43340000000000006,-0.9017000000000001,0.04,-0.5216000000000022,-20.786999999999978,11.972600000000021,0,1,1,100.0
4,80.0,1,20.0,1.0,1,5,26.146,0.02,-0.025400000000000006,-2.5226,42.0,25.79,0,19.0,3880.0,16.6,23.686,-0.392,-0.9,0.062000000000000006,0.010000000000000002,-29.770000000000003,0.8020000000000005,0,1,1,100.0
4,81.0,1,20.0,0.31499999999999767,1,6,26.5229,0.02,-0.001715000000000086,-2.541195,42.0,25.6941,0,19.0,3880.0,17.0,21.775349999999996,-0.35944999999999994,-0.9,0.08370000000000005,0.18590000000000034,-33.88255000000001,-7.604800000000019,0,1,1,100.0
4,82.0,1,20.0,0.0,1,6,27.252199999999995,-0.05861999999999955,-2.5035800000000084,-3.7250399999999892,42.0,25.456,0,19.0,3880.0,17.0,16.64020000000003,-0.2744000000000006,-0.9013999999999999,0.13139999999999988,0.6785999999999933,-33.39940000000006,-28.395799999999884,0,1,1,100.0
4,83.0,1,20.0,0.0,1,6,27.5865,-0.11247999999999975,-1.7429400000000026,-4.748619999999997,42.0,25.37,0,19.0,3880.0,17.0,13.185600000000017,-0.21270000000000025,-0.9190999999999999,0.1581999999999998,1.8734999999999924,-23.995200000000057,-43.26029999999992,0,1,1,100.0
4,84.0,1,20.0,0.0,1,6,27.6632,-0.1525999999999999,-1.3847600000000007,-4.942359999999999,42.0,25.33,0,19.0,3880.0,17.0,10.741600000000005,-0.1764000000000001,-0.9368,0.17,4.264399999999992,-10.547600000000037,-57.865999999999964,0,1,1,100.0
4,85.0,1,20.0,0.0,1,6,27.56575,-0.1706,-1.151225,-5.130275,42.0,25.30825,0,19.0,3880.0,17.0,9.828999999999999,-0.16275,-0.9472499999999999,0.17,6.031499999999999,-2.3912499999999994,-66.3335,0,1,1,100.0
4,86.0,1,20.0,0.0,1,6,26.8322,-0.19732000000000002,-0.6233999999999992,-6.035600000000001,42.0,25.16,0,19.0,3880.0,17.0,9.236,-0.16220000000000004,-0.9822000000000001,0.1455999999999999,10.378600000000008,15.584600000000032,-84.96960000000003,0,1,1,100.0
4,87.0,1,20.0,0.0,1,6,26.143100000000004,-0.20447499999999996,-0.3825150000000014,-6.224015,42.0,25.16,0,19.0,3880.0,17.0,9.801649999999997,-0.17494999999999994,-0.9998999999999999,0.11515000000000021,12.35784999999999,24.474799999999952,-92.10164999999996,0,1,1,100.0
4,88.0,1,20.0,0.0,1,6,24.411200000000008,-0.21252,-0.06844000000000165,-6.5939999999999985,42.0,25.0972,0,19.0,3880.0,17.0,12.327199999999987,-0.22279999999999975,-1.0275999999999998,0.047200000000000276,14.491999999999996,39.98999999999994,-97.22919999999999,0,1,1,100.0
4,89.0,1,20.0,0.0,3,7,22.893200000000004,-0.215795,-0.18400500000000017,-6.511800000000001,42.0,25.09,0,19.0,3880.0,17.0,15.035899999999996,-0.2805999999999999,-1.04,-0.02059999999999991,13.741300000000004,47.804249999999996,-93.36730000000001,0,1,1,100.0
4,90.0,1,20.0,0.0,3,7,20.47,-0.2203,-0.1361,-6.4932,42.0,25.111,0,19.0,3880.0,17.0,19.34,-0.362,-1.0270000000000001,-0.112,8.469000000000001,50.705999999999996,-79.29499999999999,0,1,1,100.0
4,91.0,1,20.0,0.0,3,7,18.151349999999997,-0.21975499999999998,0.17435500000000126,-6.148865000000001,42.0,25.188950000000002,0,19.0,3880.0,17.0,22.311200000000003,-0.42,-1.02,-0.18035,0.018199999999987556,44.04434999999999,-62.093199999999975,0,1,1,100.0
4,92.0,1,20.0,0.0,3,7,16.92120000000001,-0.21356000000000006,0.6637599999999961,-6.625879999999996,42.0,25.1624,0,19.0,3880.0,17.0,22.5944,-0.42,-1.02,-0.18919999999999992,-4.831599999999962,37.32720000000005,-52.81840000000007,0,1,1,100.0
4,93.0,1,20.0,0.0,3,7,13.186500000000013,-0.14531000000000027,1.9763700000000044,-6.8351200000000105,42.0,25.2881,0,19.0,3880.0,17.0,17.42340000000003,-0.33340000000000053,-1.0521999999999998,-0.11950000000000045,-16.489899999999967,13.230900000000076,-29.167000000000066,0,1,1,100.0
4,94.0,1,20.0,0.6899999999999977,3,7,11.763000000000003,-0.11123000000000008,2.1826799999999986,-5.954830000000001,42.0,25.4666,0,19.689999999999998,3880.0,17.0,13.932300000000009,-0.2686000000000001,-1.0738,-0.05860000000000014,-20.022099999999995,5.1324000000000165,-22.255900000000015,0,1,1,100.0
4,95.0,1,20.0,0.0,3,7,8.841,-0.0239,2.3069,-3.9122000000000003,42.0,25.796,0,19.0,3880.0,17.0,6.719,-0.134,-1.1015000000000001,0.0545,-25.6675,-9.6985,-12.8635,0,1,1,100.0
4,96.0,1,20.0,0.0,3,7,7.056800000000018,0.03351999999999943,1.821800000000007,-2.177120000000017,42.0,25.857599999999998,0,19.0,3880.0,17.0,3.3728000000000304,-0.06320000000000073,-1.11,0.09839999999999964,-27.14399999999999,-19.7811999999999,-11.285600000000006,0,1,1,100.0
4,97.0,1,20.0,0.0,3,7,5.571800000000011,0.06558999999999986,0.5985100000000099,-1.2566000000000077,42.0,25.9,0,19.0,3880.0,17.0,1.3145000000000129,-0.02620000000000027,-1.12,0.1,-25.873700000000017,-27.877899999999947,-12.107799999999992,0,1,1,100.0
4,98.0,1,20.0,0.0,3,7,4.8190000000000035,0.06754000000000002,-0.14329999999999674,-0.912910000000001,42.0,25.9,0,19.0,3880.0,17.0,0.5090000000000032,-0.012700000000000046,-1.12,0.09270000000000005,-24.04920000000001,-31.024499999999986,-12.5482,0,1,1,100.0
4,99.0,1,20.0,0.0,3,7,4.242550000000001,0.06146500000000003,-0.6726349999999988,-0.7952650000000002,42.0,25.8754,0,19.0,3880.0,17.0,0.012500000000001127,-0.0038500000000000227,-1.1138500000000002,0.08385000000000002,-22.050150000000006,-32.57025,-12.44935,0,1,1,100.0
4,100.0,1,20.0,0.0,3,7,2.47,0.01,-1.146,-0.914,42.0,25.86,0,19.0,3880.0,17.0,-0.9,0.02,-1.1,0.05,-13.67,-30.78,-6.0,0,1,1,100.0
11,0.0,1,20.0,0.0,0,1,-0.26,-0.073,-0.328,-0.848,43.0,25.9,0,19.0,3880.0,23.0,1.09,-0.02,-1.05,0.07,-4.87,-7.59,-1.18,0,1,1,100.0
11,1.0,1,20.0,0.0,0,1,-0.788,-0.073,0.272,-0.51,43.0,25.9,0,42.8,3880.0,23.0,-0.3244,0.003800000000000001,-1.04,0.07,-4.7376000000000005,-5.0378,4.6909,0,1,1,100.0
11,2.0,1,20.0,0.0,0,1,-1.0108,-0.073,0.272,-0.51,43.0,25.9,0,66.6,3880.0,23.0,-1.2516,0.0238,-1.0362,0.07,-4.8232,-3.3804,6.9966,0,1,1,100.0
11,3.0,1,20.0,0.0,0,1,-1.4056,0.02686,-0.7633599999999996,0.0,43.0,25.93,0,10.0,3880.0,23.0,-2.8494,0.05,-1.03,0.06,-5.996,1.7828000000000006,9.9386,0,1,1,100.0
11,4.0,1,20.0,0.0,0,1,-1.4547999999999999,0.01796,-0.21367999999999995,0.0,43.0,25.9144,0,10.0,3880.0,23.0,-1.7571999999999997,0.0348,-1.03,0.054799999999999995,-6.8404,3.5424,11.262,0,1,1,100.0
11,5.0,1,20.0,0.0,0,1,-1.365,0.017,0.1294,0.0,43.0,25.927,0,10.0,3880.0,23.0,-0.10100000000000005,0.001,-1.03,0.041,-7.295999999999999,3.795,12.228,0,1,1,100.0
11,6.0,1,20.0,0.0,0,1,-1.226,0.022200000000000004,0.3281600000000002,0.0,43.0,25.9,0,10.0,3880.0,23.0,1.0076000000000003,-0.016400000000000005,-1.03,0.03359999999999999,-7.5452,3.6132,11.6868,0,1,1,100.0
11,7.0,1,20.0,0.0,0,1,-0.8576000000000001,0.04061999999999999,0.3131600000000002,0.0,43.0,25.93,0,10.0,3880.0,23.0,2.2616,-0.04,-1.0234,0.03,-8.6232,3.1214,7.509400000000001,0,1,1,100.0
11,8.0,1,20.0,0.0,0,1,-0.4931999999999999,0.04088,-0.19540000000000007,0.0,43.0,25.9012,0,10.0,3880.0,23.0,2.476,-0.04,-1.02,0.02,-10.0424,2.57,2.9295999999999993,0,1,1,100.0
11,9.0,1,20.0,0.0,0,1,-0.12639999999999987,0.028529999999999993,-0.5344899999999998,0.0,43.0,25.93,0,10.0,3880.0,23.0,2.1538,-0.04,-1.02,0.007899999999999992,-11.0399,2.058,0.4080999999999997,0,1,1,100.0
11,10.0,1,20.0,0.0,0,1,0.28800000000000003,0.017400000000000002,-0.054400000000000004,0.0,43.0,25.924,0,10.0,3880.0,23.0,1.59,-0.03,-1.028,-0.008,-10.736,1.61,0.604,0,1,1,100.0
11,11.0,1,20.0,0.0,0,1,0.6008,0.017,-0.03551999999999996,0.0,43.0,25.9027,0,10.0,3880.0,23.0,1.2737,-0.02,-1.03,-0.03,-8.7257,1.2673999999999999,2.1376000000000004,0,1,1,100.0
11,12.0,1,20.0,0.0,0,1,0.8760000000000002,0.015319999999999993,-0.18776000000000048,0.0,43.0,25.93,0,10.0,3880.0,23.0,1.1643999999999999,-0.02,-1.03,-0.04,-5.294399999999996,0.8903999999999996,3.540000000000001,0,1,1,100.0
11,13.0,1,20.0,0.0,0,1,1.0523000000000002,-0.002110000000000022,-0.8450999999999995,0.0,43.0,25.914099999999998,0,10.0,3880.0,23.0,1.1306,-0.02,-1.03,-0.04470000000000002,-2.4049999999999976,0.6764999999999999,4.793000000000001,0,1,1,100.0
11,14.0,1,20.0,0.0,0,1,1.2755999999999998,-0.03255999999999999,-0.48339999999999983,0.0,43.0,25.9204,0,10.0,3880.0,23.0,1.0732000000000002,-0.02,-1.04,-0.05,2.053599999999998,0.7395999999999999,8.830399999999997,0,1,1,100.0
11,15.0,1,20.0,0.0,6,2,1.466,-0.054900000000000004,-0.9508000000000001,0.10219999999999999,43.0,25.881,0,15.6,3880.0,23.0,1.238,-0.02,-1.04,-0.05,6.369,0.673,13.995,0,1,1,100.0
11,16.0,1,20.0,0.0,6,2,1.6340000000000001,-0.03543999999999999,0.8845799999999998,1.7911199999999998,43.0,25.83,0,18.0,3880.0,23.0,1.729,-0.03,-1.04,-0.05,9.5586,0.1485999999999998,17.0324,0,1,1,100.0
11,17.0,1,20.0,0.4600000000000023,6,2,1.8452000000000002,-0.022539999999999998,0.1154199999999996,2.2776800000000006,43.0,25.7762,0,18.46,3880.0,23.0,2.521600000000001,-0.04460000000000002,-1.0354,-0.04,12.136800000000003,-0.7892000000000012,17.7934,0,1,1,100.0
11,18.0,1,20.0,0.8400000000000034,6,2,2.362800000000001,-0.021159999999999998,0.016039999999999853,2.50224,43.0,25.7852,0,18.840000000000003,3880.0,23.0,4.108000000000001,-0.07,-1.0216,-0.011599999999999966,14.422400000000001,-2.081600000000001,14.995199999999997,0,1,1,100.0
11,19.0,1,20.0,1.0,6,2,2.8142,-0.021,-0.05272000000000003,2.5261,43.0,25.79,0,19.0,3880.0,23.0,4.983,-0.09,-1.02,0.0010999999999999944,14.726700000000001,-2.2334,11.934800000000001,0,1,1,100.0
11,20.0,1,20.0,1.0,6,2,3.384,-0.0216,-0.0162,2.606,43.0,25.76,0,19.0,3880.0,23.0,5.588,-0.1,-1.014,0.016,14.57,-2.004,8.98,0,1,1,100.0
11,21.0,1,20.0,1.0,6,2,3.9452000000000003,-0.02298,-0.0955000000000001,2.89768,43.0,25.76,0,19.0,3880.0,23.0,5.8782,-0.1,-1.01,0.02980000000000001,14.2234,-1.7915999999999999,7.231399999999999,0,1,1,100.0
11,22.0,1,20.0,1.0,6,2,4.4514000000000005,-0.02618,-0.06614000000000009,3.13762,43.0,25.72,0,19.0,3880.0,23.0,6.0226,-0.11,-1.02,0.04,13.745,-1.739,6.73,0,1,1,100.0
11,23.0,1,20.0,1.0,6,2,4.795399999999999,-0.027,-0.05496000000000021,3.21412,43.0,25.6978,0,19.0,3880.0,23.0,6.146599999999999,-0.11,-1.02,0.04,13.318000000000001,-1.8835999999999997,6.7966,0,1,1,100.0
11,24.0,1,20.0,1.0,6,2,5.471600000000001,-0.027,0.001960000000000263,3.25624,43.0,25.69,0,19.0,3880.0,23.0,6.5704,-0.12,-1.02,0.05120000000000005,11.910399999999997,-3.135600000000003,7.1312,0,1,1,100.0
11,25.0,1,20.0,1.0,6,2,5.895,-0.027,-0.00899999999999999,3.2155,43.0,25.69,0,19.0,3880.0,23.0,6.99,-0.125,-1.02,0.06,10.35,-4.800000000000001,6.985,0,1,1,100.0
11,26.0,1,20.0,1.0,6,2,6.280800000000001,-0.027,0.002199999999999758,3.22316,43.0,25.69,0,19.0,3880.0,23.0,7.428400000000002,-0.13,-1.01,0.07,8.468399999999994,-6.429200000000004,6.212799999999997,0,1,1,100.0
11,27.0,1,20.0,1.0,6,2,6.5445,-0.027,0.049790000000000036,3.22452,43.0,25.69,0,19.0,3880.0,23.0,7.681900000000001,-0.13630000000000003,-1.01,0.08,6.994499999999999,-6.9519,5.177899999999999,0,1,1,100.0
11,28.0,1,20.0,1.0,6,2,6.8548,-0.02518,0.03151999999999996,3.0214000000000003,43.0,25.6954,0,19.0,3880.0,23.0,7.8956,-0.14,-1.01,0.09,5.113,-6.6176,3.4812000000000007,0,1,1,100.0
11,29.0,1,20.0,1.0,6,2,7.2611,-0.021989999999999996,0.12367999999999993,2.6125599999999998,43.0,25.76,0,19.0,3880.0,23.0,7.9697,-0.14,-1.01,0.1,2.6637999999999984,-4.772799999999998,0.621099999999998,0,1,1,100.0
11,30.0,1,20.0,1.0,6,2,7.392,-0.020800000000000003,0.0864,2.444,43.0,25.766000000000002,0,19.0,3880.0,23.0,7.932,-0.14,-1.01,0.1,1.942,-3.9159999999999995,-0.42600000000000005,0,1,1,100.0
11,31.0,1,20.0,1.0,6,2,7.640200000000001,-0.018219999999999993,0.09473999999999988,2.1451,43.0,25.821199999999997,0,19.0,3880.0,23.0,7.7498,-0.14,-1.01,0.1,0.7613999999999975,-2.1607999999999956,-2.3570000000000046,0,1,1,100.0
11,32.0,1,20.0,1.0,6,2,7.8548,-0.017,0.008519999999999825,1.9952400000000001,43.0,25.83,0,19.0,3880.0,23.0,7.3275999999999994,-0.13,-1.0116,0.1,-0.014400000000000204,-0.4623999999999992,-3.568,0,1,1,100.0
11,33.0,1,20.0,1.0,6,2,7.9031,-0.017,0.028469999999999874,2.00217,43.0,25.83,0,19.0,3880.0,23.0,7.1099000000000006,-0.13,-1.02,0.09230000000000001,-0.12849999999999995,0.0632999999999997,-3.5407,0,1,1,100.0
11,34.0,1,20.0,1.0,6,2,7.9196,-0.017,0.10104000000000012,2.0060399999999996,43.0,25.83,0,19.0,3880.0,23.0,6.9552,-0.12039999999999998,-1.02,0.09,-0.14,0.3316000000000005,-3.3279999999999994,0,1,1,100.0
11,35.0,1,20.0,2.0,6,2,7.861,-0.018,-0.0326,2.1339,43.0,25.79,0,20.0,3880.0,23.0,6.542,-0.12,-1.02,0.09,0.39,0.608,-1.584,0,1,1,100.0
11,36.0,1,20.0,2.0,6,2,7.7829999999999995,-0.019,0.023379999999999852,2.25198,43.0,25.79,0,20.0,3880.0,23.0,6.4364,-0.11659999999999997,-1.02,0.08,0.8416000000000008,0.48279999999999973,-0.48299999999999815,0,1,1,100.0
11,37.0,1,20.0,2.0,6,2,7.707,-0.02006,-0.012260000000000047,2.43202,43.0,25.79,0,20.0,3880.0,23.0,6.38,-0.11,-1.02,0.08,1.2668000000000006,0.33519999999999983,0.4736000000000013,0,1,1,100.0
11,38.0,1,20.0,2.0,6,2,7.598,-0.022,0.016519999999999983,2.61116,43.0,25.76,0,20.0,3880.0,23.0,6.3888,-0.11,-1.02,0.08,1.9419999999999993,0.14920000000000017,1.7543999999999988,0,1,1,100.0
11,39.0,1,20.0,2.0,6,2,7.4836,-0.023,-0.008569999999999946,2.70106,43.0,25.76,0,20.0,3880.0,23.0,6.500500000000001,-0.12,-1.02,0.08,2.8471000000000006,-0.03460000000000014,3.089900000000001,0,1,1,100.0
11,40.0,1,20.0,2.0,6,2,7.418,-0.0231,-0.0958,2.8269,43.0,25.72,0,19.0,3880.0,23.0,6.656000000000001,-0.12,-1.02,0.08,3.613,-0.243,4.031,0,1,1,100.0
11,41.0,1,20.0,2.0,6,2,7.4,-0.023419999999999993,0.03286000000000012,2.8582,43.0,25.7432,0,19.0,3880.0,23.0,6.744800000000001,-0.12,-1.02,0.08,3.9418000000000015,-0.4528000000000011,4.478200000000002,0,1,1,100.0
11,42.0,1,20.0,2.0,6,2,7.4096,-0.023,-0.004720000000000076,2.8318000000000003,43.0,25.7584,0,19.0,3880.0,23.0,6.8584000000000005,-0.12,-1.02,0.08960000000000003,4.354000000000001,-0.8240000000000003,5.246,0,1,1,100.0
11,43.0,1,20.0,2.0,6,2,7.4701,-0.023,0.025960000000000014,2.78726,43.0,25.7468,0,19.0,3880.0,23.0,6.863300000000001,-0.12,-1.03,0.09,4.667,-0.9532,6.668899999999999,0,1,1,100.0
11,44.0,1,20.0,2.0,6,2,7.582000000000001,-0.02276,-0.02111999999999987,2.71612,43.0,25.76,0,18.0,3880.0,23.0,6.8424,-0.12,-1.03,0.1,4.9336,-0.5847999999999997,8.899200000000002,0,1,1,100.0
11,45.0,1,20.0,2.0,6,2,7.697,-0.022,0.0248,2.6886,43.0,25.76,0,18.0,3880.0,23.0,6.909000000000001,-0.13,-1.04,0.1,5.233,-0.135,11.036,0,1,1,100.0
11,46.0,1,20.0,2.0,6,2,7.977999999999999,-0.020520000000000007,0.04875999999999938,2.46192,43.0,25.79,0,18.0,3880.0,23.0,7.4251999999999985,-0.13479999999999998,-1.04,0.1,6.266799999999998,0.5871999999999994,15.468399999999994,0,1,1,100.0
11,47.0,1,20.0,2.0,6,2,8.1416,-0.02,0.0930299999999998,2.2510899999999987,43.0,25.79,0,18.0,3880.0,23.0,7.810400000000002,-0.14,-1.04,0.1,6.9078000000000035,0.7251000000000004,17.341100000000008,0,1,1,100.0
11,48.0,1,20.0,2.0,6,2,8.458400000000001,-0.01775999999999999,0.03176000000000022,2.0516399999999995,43.0,25.799599999999998,0,18.0,3880.0,23.0,8.665600000000005,-0.16,-1.03,0.1,8.084800000000005,0.6115999999999986,19.95040000000001,0,1,1,100.0
11,49.0,1,20.0,2.0,6,2,9.025100000000002,-0.015,0.1524299999999999,1.75013,43.0,25.83,0,18.0,3880.0,23.0,10.226,-0.1831,-1.02,0.1,9.509200000000002,-0.41530000000000145,22.334300000000002,0,1,1,100.0
11,50.0,1,20.0,2.0,6,2,9.66,-0.013,0.076,1.488,43.0,25.86,0,18.0,3880.0,23.0,11.95,-0.21,-1.01,0.1,9.95,-2.94,23.33,0,1,1,100.0
11,51.0,1,20.0,2.0,6,2,9.9851,-0.011810000000000003,0.044259999999999876,1.3784700000000003,43.0,25.86,0,18.0,3880.0,23.0,12.757299999999999,-0.2319,-1.0081,0.1,9.7668,-4.7781999999999965,23.46,0,1,1,100.0
11,52.0,1,20.0,2.0,6,2,10.780800000000005,-0.010239999999999987,0.004239999999998286,1.2163599999999992,43.0,25.86,0,18.0,3880.0,23.0,14.413600000000008,-0.25760000000000016,-0.99,0.10760000000000014,8.742399999999993,-9.87920000000003,23.208,0,1,1,100.0
11,53.0,1,20.0,2.0,6,2,11.770900000000001,-0.009429999999999996,0.07596000000000012,1.1230799999999996,43.0,25.86,0,18.0,3880.0,23.0,15.875100000000002,-0.27570000000000006,-0.98,0.11570000000000004,7.065199999999997,-16.10980000000001,22.2963,0,1,1,100.0
11,54.0,1,20.0,1.4799999999999953,6,2,12.908000000000001,-0.008479999999999994,0.08544000000000021,0.9560399999999997,43.0,25.86,0,17.479999999999997,3880.0,23.0,16.8396,-0.2952,-0.97,0.13520000000000004,5.309199999999997,-21.351600000000005,20.813599999999997,0,1,1,100.0
11,55.0,1,20.0,1.0,6,2,13.48,-0.00705,0.032,0.8602,43.0,25.86,0,17.0,3880.0,23.0,17.121,-0.3,-0.97,0.1495,4.594,-22.8735,19.9605,0,1,1,100.0
11,56.0,1,20.0,0.0,6,2,14.8548,-0.006,-0.012559999999999766,0.6125600000000003,43.0,25.9,0,16.0,3880.0,23.0,17.508,-0.3,-0.96,0.18279999999999996,3.506800000000001,-22.796000000000003,17.843600000000002,0,1,1,100.0
11,57.0,1,20.0,1.0,6,2,15.824000000000007,-0.004339999999999986,0.0015399999999995764,0.40807999999999917,43.0,25.9,0,17.0,3880.0,23.0,17.775800000000004,-0.31,-0.96,0.20660000000000014,3.2401999999999993,-20.112999999999982,16.35419999999999,0,1,1,100.0
11,58.0,1,20.0,1.0,6,2,16.365200000000005,-0.003,0.007240000000000282,0.2798000000000002,43.0,25.9,0,17.0,3880.0,23.0,17.9976,-0.31,-0.96,0.2104000000000001,3.2748000000000013,-17.865999999999985,15.494799999999994,0,1,1,100.0
11,59.0,1,20.0,1.0,6,2,17.627000000000002,-0.0015799999999999955,0.13621999999999998,0.062079999999999434,43.0,25.9,0,17.0,3880.0,23.0,18.806,-0.32420000000000004,-0.95,0.22420000000000004,3.9392000000000014,-11.355199999999991,13.227599999999997,0,1,1,100.0
11,60.0,1,20.0,1.0,6,2,18.434,-0.001,0.07060000000000001,-0.023600000000000003,43.0,25.9,0,17.0,3880.0,23.0,19.581999999999997,-0.338,-0.942,0.23,4.534,-7.056,11.436,0,1,1,100.0
11,61.0,1,20.0,1.0,6,2,18.997,0.0,-0.052059999999999926,-0.07252999999999984,43.0,25.9,0,17.0,3880.0,23.0,20.2065,-0.3459,-0.94,0.23,4.7931,-4.425300000000003,9.990300000000003,0,1,1,100.0
11,62.0,1,20.0,1.0,6,2,19.346200000000003,0.0,0.07050000000000117,-0.1117000000000001,43.0,25.9,0,17.0,3880.0,23.0,20.615200000000005,-0.35,-0.9321999999999999,0.23,4.8222000000000005,-2.998599999999992,8.986999999999995,0,1,1,100.0
11,63.0,1,20.0,1.0,6,2,20.312800000000003,0.001,0.051579999999999605,-0.25185999999999975,43.0,25.9,0,17.0,3880.0,23.0,21.5899,-0.3647,-0.92,0.23,4.074299999999998,-0.1261999999999975,5.736399999999996,0,1,1,100.0
11,64.0,1,20.0,1.0,6,2,20.9104,0.001,-0.009399999999999976,-0.19300000000000006,43.0,25.9,0,17.0,3880.0,23.0,21.8516,-0.37,-0.92,0.23,3.3211999999999997,1.124000000000001,3.4815999999999985,0,1,1,100.0
11,65.0,1,20.0,1.0,6,2,21.196,0.001,0.0123,-0.25670000000000004,43.0,25.9,0,17.0,3880.0,23.0,21.839,-0.37,-0.92,0.223,3.107,1.705,2.412,0,1,1,100.0
11,66.0,1,20.0,1.0,6,2,21.6556,0.0015399999999999978,0.037499999999999825,-0.23314000000000001,43.0,25.9,0,17.0,3880.0,23.0,21.6368,-0.37,-0.93,0.22,3.1632,2.1946,1.2158000000000007,0,1,1,100.0
11,67.0,1,20.0,1.0,6,2,22.006,0.002460000000000014,0.056460000000001384,-0.4527200000000004,42.0,25.9,0,17.0,3880.0,23.0,21.374,-0.37,-0.9446000000000001,0.21,3.397600000000001,1.3961999999999928,1.0998000000000017,0,1,1,100.0
11,68.0,1,20.0,1.0,6,2,22.2088,0.003840000000000009,0.01723999999999964,-0.5244800000000002,42.0,25.9,0,17.0,3880.0,23.0,21.136,-0.37,-0.95,0.2,3.47,-0.24040000000000739,1.7124000000000033,0,1,1,100.0
11,69.0,1,20.0,1.1100000000000023,6,2,22.3455,0.005,0.08188000000000002,-0.6854600000000003,42.0,25.9,0,17.110000000000003,3880.0,23.0,20.9545,-0.37,-0.96,0.2,3.3001999999999994,-2.4632000000000023,2.8826000000000014,0,1,1,100.0
11,70.0,1,20.0,2.0,6,2,22.454,0.0066,0.0738,-0.8986,42.0,25.9,0,18.0,3880.0,23.0,20.912,-0.37,-0.96,0.2,2.688,-5.316,4.59,0,1,1,100.0
11,71.0,1,20.0,2.0,6,2,22.509600000000002,0.007989999999999997,0.02936000000000008,-1.0330899999999998,42.0,25.9,0,18.0,3880.0,23.0,20.979400000000002,-0.37,-0.96,0.2,2.2333000000000007,-6.849199999999998,5.503599999999999,0,1,1,100.0
11,72.0,1,20.0,2.0,6,2,22.588133333333335,0.009453333333333338,0.030493333333333525,-1.2775066666666672,42.0,25.878133333333334,0,18.0,3880.0,23.0,21.248,-0.37,-0.9554666666666666,0.21,1.607466666666666,-8.882933333333336,6.6505333333333345,0,1,1,100.0
11,73.0,1,20.0,2.0,6,2,22.6985,0.011,0.002559999999999945,-1.36351,42.0,25.86,0,18.0,3880.0,23.0,21.8125,-0.37370000000000003,-0.94,0.22370000000000004,1.3751999999999998,-9.7337,6.965599999999999,0,1,1,100.0
11,74.0,1,20.0,2.0,6,2,22.8436,0.01,-0.023420000000000017,-1.3103199999999997,42.0,25.86,0,18.0,3880.0,23.0,22.601599999999998,-0.38060000000000005,-0.9194,0.24,1.0925999999999993,-9.523399999999999,6.229999999999999,0,1,1,100.0
11,75.0,1,20.0,1.75,6,2,22.915,0.00975,-0.02275,-1.21125,42.0,25.86,0,17.75,3880.0,23.0,23.03,-0.39,-0.91,0.24,0.71,-9.4125,5.6,0,1,1,100.0
11,76.0,1,20.0,1.0,6,2,23.101599999999998,0.0072400000000000094,-0.07723999999999989,-0.9044800000000006,42.0,25.8952,0,17.0,3880.0,23.0,23.933999999999997,-0.3988,-0.8912000000000001,0.25,-0.9991999999999962,-9.737599999999999,3.658400000000004,0,1,1,100.0
11,77.0,1,20.0,1.0,6,2,23.370800000000003,0.006,0.0370999999999998,-0.7721000000000005,42.0,25.9,0,17.0,3880.0,23.0,23.787799999999994,-0.39739999999999986,-0.8926000000000002,0.25,-4.30280000000001,-11.026800000000003,1.0803999999999936,0,1,1,100.0
11,78.0,1,20.0,1.0,6,2,23.5324,0.0073200000000000045,0.06099999999999989,-0.9298400000000008,42.0,25.8872,0,17.0,3880.0,23.0,22.543599999999994,-0.3868,-0.9232000000000001,0.25,-5.440800000000001,-10.961599999999999,0.6768000000000011,0,1,1,100.0
11,79.0,1,20.0,1.0,6,2,23.7105,0.011020000000000004,0.0834300000000001,-1.5135200000000004,42.0,25.86,0,17.0,3880.0,23.0,20.4123,-0.35989999999999994,-0.9701,0.24,-5.094799999999998,-9.270599999999996,2.3806000000000025,0,1,1,100.0
11,80.0,1,20.0,1.0,6,2,23.826,0.0134,-0.047400000000000005,-1.6992,42.0,25.86,0,17.0,3880.0,23.0,18.538,-0.332,-0.99,0.236,-3.806,-6.798,4.536,0,1,1,100.0
11,81.0,1,20.0,1.0,6,2,23.9034,0.014,-0.007160000000000129,-1.7347199999999998,42.0,25.86,0,17.0,3880.0,23.0,16.324400000000004,-0.29440000000000005,-0.99,0.23,-3.0408000000000004,-3.191600000000008,3.7308000000000052,0,1,1,100.0
11,82.0,1,20.0,1.0,6,2,23.9292,0.015,0.013319999999999856,-1.9036400000000009,42.0,25.83,0,17.0,3880.0,23.0,13.647599999999992,-0.23759999999999978,-0.9692,0.21919999999999992,-3.5620000000000043,1.677200000000016,-2.5504000000000318,0,1,1,100.0
11,83.0,1,20.0,1.0,6,2,23.9092,0.015540000000000009,0.008580000000000245,-2.0184399999999996,42.0,25.83,0,17.0,3880.0,23.0,11.762599999999988,-0.19919999999999982,-0.9545999999999999,0.21,-4.629800000000008,5.115200000000022,-9.942000000000052,0,1,1,100.0
11,84.0,1,20.0,0.0,1,6,23.678800000000003,-0.01336000000000015,-2.6801600000000136,-3.0500800000000043,42.0,25.5856,0,19.0,3880.0,24.0,7.559599999999994,-0.1215999999999999,-0.94,0.19079999999999997,-8.391600000000006,13.803600000000012,-34.21600000000004,0,1,1,100.0
11,85.0,1,20.0,0.0,1,6,23.258,-0.1018,-2.3716,-3.5278,42.0,25.51,0,19.0,3880.0,24.0,5.686,-0.0985,-0.9515,0.1785,-10.927,21.3365,-51.1705,0,1,1,100.0
11,86.0,1,20.0,0.0,1,6,22.7752,-0.1453199999999999,-1.641280000000002,-4.099679999999998,42.0,25.462400000000002,0,19.0,3880.0,24.0,4.951600000000002,-0.08320000000000005,-0.9735999999999999,0.1564000000000001,-12.324399999999995,26.96519999999998,-61.57279999999997,0,1,1,100.0
11,87.0,1,20.0,0.0,1,6,21.038100000000004,-0.20232999999999995,-0.8548800000000019,-5.16282,42.0,25.3688,0,19.0,3880.0,24.0,4.685699999999999,-0.09,-1.0406,0.10970000000000005,-14.178399999999998,37.189699999999995,-77.65319999999998,0,1,1,100.0
11,88.0,1,20.0,0.0,1,6,19.105199999999993,-0.22552000000000008,-0.511800000000001,-5.187439999999999,42.0,25.33,0,19.0,3880.0,24.0,5.276400000000002,-0.1,-1.0888000000000002,0.07559999999999992,-14.778000000000002,40.87640000000001,-81.0796,0,1,1,100.0
11,89.0,1,20.0,0.0,3,7,17.143099999999986,-0.23846000000000006,-0.3618099999999992,-5.478950000000003,42.0,25.3,0,19.0,3880.0,24.0,5.797900000000003,-0.11410000000000013,-1.1141000000000003,0.055899999999999866,-15.0223,41.5303,-78.63189999999997,0,1,1,100.0
11,90.0,1,20.0,0.0,3,7,15.096,-0.2458,-0.221,-5.5514,42.0,25.337999999999997,0,19.0,3880.0,24.0,5.942,-0.12,-1.13,0.04,-14.889999999999999,40.82,-73.24,0,1,1,100.0
11,91.0,1,20.0,0.0,3,7,10.774399999999977,-0.25,0.024879999999999746,-5.203119999999996,42.0,25.4232,0,19.0,3880.0,24.0,4.415999999999985,-0.08839999999999965,-1.12,0.04580000000000018,-13.249199999999986,38.82799999999999,-59.99859999999993,0,1,1,100.0
11,92.0,1,20.0,0.0,3,7,8.241600000000007,-0.249,0.05424000000000028,-4.750400000000001,42.0,25.51,0,19.0,3880.0,24.0,2.5620000000000047,-0.05040000000000009,-1.1052000000000002,0.05479999999999995,-11.579200000000004,38.441199999999995,-53.45080000000001,0,1,1,100.0
11,93.0,1,20.0,0.0,3,7,6.665599999999994,-0.24766,0.08766000000000045,-4.53269,42.0,25.5301,0,19.0,3880.0,24.0,1.2127999999999945,-0.02659999999999991,-1.0933,0.06670000000000005,-10.436799999999995,38.3698,-50.17489999999999,0,1,1,100.0
11,94.0,1,20.0,0.0,3,7,2.021599999999984,-0.23491999999999996,0.148079999999998,-3.9545599999999976,42.0,25.62,0,19.0,3880.0,24.0,-2.6308000000000105,0.04720000000000027,-1.0564,0.08360000000000013,-7.854799999999996,35.931199999999976,-44.29799999999999,0,1,1,100.0
11,95.0,1,20.0,0.9,3,7,-1.096,-0.2298,0.1747,-3.6499,42.0,25.65,0,19.9,3880.0,24.0,-4.1370000000000005,0.07100000000000001,-1.029,0.09,-7.608,29.874,-41.561,0,1,1,100.0
11,96.0,1,20.0,0.0,3,7,-3.3052000000000086,-0.226,0.07131999999999948,-3.4867599999999985,42.0,25.6596,0,19.0,3880.0,24.0,-4.177599999999998,0.07,-1.0075999999999998,0.09,-8.070000000000002,22.819199999999967,-37.891599999999976,0,1,1,100.0
11,97.0,1,20.0,0.0,3,7,-5.763999999999991,-0.21956000000000003,0.2890599999999993,-3.4118399999999998,42.0,25.69,0,19.0,3880.0,24.0,-3.0512000000000055,0.05140000000000009,-0.9814,0.09,-8.447199999999999,12.959200000000035,-29.909600000000033,0,1,1,100.0
11,98.0,1,20.0,0.0,3,7,-7.242200000000004,-0.21027999999999997,0.35044000000000053,-3.091279999999999,42.0,25.7448,0,19.0,3880.0,24.0,-1.8411999999999966,0.033799999999999955,-0.9637999999999999,0.1,-8.025799999999998,6.916999999999986,-22.17779999999998,0,1,1,100.0
11,99.0,1,20.0,0.0,3,7,-8.16560000000001,-0.20313999999999993,0.37841999999999976,-2.7323699999999955,42.0,25.7843,0,19.0,3880.0,24.0,-0.9362999999999896,0.01379999999999973,-0.9518999999999999,0.1,-7.335399999999991,3.6220999999999646,-16.04889999999993,0,1,1,100.0
11,100.0,1,20.0,0.0,3,7,-9.66,-0.177,0.886,-1.877,42.0,25.86,0,19.0,3880.0,24.0,0.72,-0.01,-0.95,0.1,-5.18,-0.18,-3.36,0,1,1,100.0
18,0.0,1,20.0,0.0,0,1,-2.31,0.09,0.365,-0.921,44.0,25.86,0,19.0,3880.0,30.0,-6.89,0.12,-1.03,-0.02,-3.63,-12.55,1.46,0,1,1,100.0
18,1.0,1,20.0,0.0,0,1,-2.7531000000000003,0.09,0.365,-0.921,44.0,25.86,0,43.3,3880.0,30.0,-6.7198,0.12,-1.02,-0.02,-2.89885,-11.3664,4.29635,0,1,1,100.0
18,2.0,1,20.0,0.0,0,1,-2.9962,0.09,0.365,-0.921,44.0,25.86,0,57.6,3880.0,30.0,-6.5196,0.12,-1.02,-0.02,-2.4627,-10.6228,5.6477,0,1,1,100.0
18,3.0,1,20.0,0.0,0,1,-3.6462499999999998,0.09839,10.127879999999996,0.0,44.0,25.9,0,19.0,3880.0,30.0,-5.6391,0.09855,-1.03,-0.03,-1.0428499999999998,-8.15615,9.533050000000001,0,1,1,100.0
18,4.0,1,20.0,0.0,0,1,-3.8249999999999997,0.08552,0.5068399999999976,0.0,44.0,25.9,0,19.0,3880.0,30.0,-5.3388,0.0914,-1.03,-0.03,-0.5637999999999999,-7.3482,11.0274,0,1,1,100.0
18,5.0,1,20.0,0.0,0,1,-4.2495,0.04215,-1.35865,0.0,44.0,25.9,0,19.0,3880.0,30.0,-4.443,0.0785,-1.03,-0.03,0.956,-4.8815,17.177,0,1,1,100.0
18,6.0,1,20.0,0.0,0,1,-4.3832,0.020489999999999987,-1.40214,0.0,44.0,25.9,0,19.0,3880.0,30.0,-4.0098,0.07,-1.03,-0.03,1.6740000000000004,-3.7876999999999996,20.863100000000003,0,1,1,100.0
18,7.0,1,20.0,0.0,0,1,-4.4798,-0.012190000000000017,-1.13077,0.0,44.0,25.9,0,19.0,3880.0,30.0,-3.3255,0.05989999999999999,-1.03,-0.03,2.6446000000000005,-2.4132999999999996,26.783900000000003,0,1,1,100.0
18,8.0,1,20.0,0.0,0,1,-4.4336,-0.03804000000000001,-1.30248,0.0,44.0,25.9,0,19.0,3880.0,30.0,-2.6555999999999997,0.045599999999999995,-1.03,-0.03,3.2672000000000003,-1.4947999999999997,31.534800000000004,0,1,1,100.0
18,9.0,1,20.0,0.0,0,1,-4.35215,-0.05439500000000001,-1.1453149999999996,0.0,44.0,25.9,0,19.0,3880.0,30.0,-2.1220499999999998,0.035649999999999994,-1.03,-0.03,3.6018000000000003,-0.9481499999999995,34.541050000000006,0,1,1,100.0
18,10.0,1,20.0,0.0,0,1,-4.064,-0.0829,-0.9991,0.0,44.0,25.921,0,19.0,3880.0,30.0,-0.95,0.017,-1.0270000000000001,-0.02,3.958,-0.093,39.097,0,1,1,100.0
18,11.0,1,20.0,0.0,0,1,-3.7129,-0.10149000000000001,-0.8822800000000002,0.0,44.0,25.9,0,19.0,3880.0,30.0,0.08750000000000081,-0.0046000000000000225,-1.02,-0.02,3.9781,0.4282000000000004,41.4201,0,1,1,100.0
18,12.0,1,20.0,0.0,0,1,-3.259199999999999,-0.11760000000000002,-0.6064400000000002,0.0,44.0,25.9252,0,19.0,3880.0,30.0,1.2228000000000019,-0.021600000000000022,-1.02,-0.02,3.8179999999999996,0.8732000000000006,42.65,0,1,1,100.0
18,13.0,1,20.0,0.0,0,1,-2.6921999999999997,-0.13072,-0.4690799999999998,0.0,44.0,25.9177,0,19.0,3880.0,30.0,2.4333000000000005,-0.04180000000000001,-1.02,-0.02,3.473,1.2357000000000002,42.6299,0,1,1,100.0
18,14.0,1,20.0,0.0,0,1,-2.029599999999999,-0.137,-0.18903999999999957,0.0,44.0,25.9294,0,19.0,3880.0,30.0,3.6880000000000015,-0.07020000000000003,-1.01,-0.019799999999999984,2.939399999999999,1.5542000000000005,41.3542,0,1,1,100.0
18,15.0,1,20.0,0.0,0,1,-1.394,-0.136775,0.030824999999999998,0.0,44.0,25.9,0,19.0,3880.0,30.0,4.77025,-0.0845,-1.01,-0.01,2.26925,1.80725,39.042,0,1,1,100.0
18,16.0,1,20.0,0.0,0,1,-0.9935999999999996,-0.13606000000000001,-0.04282000000000006,0.0,44.0,25.9,0,19.0,3880.0,30.0,5.4066,-0.09880000000000001,-1.01,-0.01,1.7901999999999996,1.9574,37.2688,0,1,1,100.0
18,17.0,1,20.0,0.0,0,1,0.35075000000000073,-0.127915,0.41494500000000023,0.0,44.0,25.9,0,19.0,3880.0,30.0,7.221600000000001,-0.13155000000000003,-1.0,-0.01,-0.2891000000000014,2.4772000000000003,29.601249999999997,0,1,1,100.0
18,18.0,1,20.0,0.0,0,1,0.8155000000000011,-0.12290999999999999,0.5715300000000003,0.0,44.0,25.9,0,19.0,3880.0,30.0,7.7364000000000015,-0.13870000000000002,-1.0,-0.01,-1.161400000000002,2.6488000000000005,26.562499999999993,0,1,1,100.0
18,19.0,1,20.0,0.0,0,1,2.3304999999999993,-0.10298,0.48246000000000033,0.0,44.0,25.9,0,19.0,3880.0,30.0,9.0229,-0.16,-0.9983,0.0,-4.480099999999998,3.2308,15.811000000000005,0,1,1,100.0
18,20.0,1,20.0,0.0,0,1,3.065,-0.0968,0.304,0.0,44.0,25.909,0,19.0,3880.0,30.0,9.399000000000001,-0.163,-0.99,-0.003,-6.182,3.487,10.584,0,1,1,100.0
18,21.0,1,20.0,0.0,0,1,3.538900000000001,-0.09384999999999999,0.3898999999999998,0.0,44.0,25.9291,0,19.0,3880.0,30.0,9.5624,-0.17,-0.9903,-0.01,-7.226600000000002,3.6233000000000004,7.371799999999996,0,1,1,100.0
18,22.0,1,20.0,0.4600000000000023,0,1,5.007600000000001,-0.08753999999999999,-0.041220000000000014,0.0,44.0,25.9138,0,19.46,3880.0,30.0,9.5356,-0.17,-1.0,-0.02,-9.630600000000001,3.7516,-0.975200000000006,0,1,1,100.0
18,23.0,1,20.0,1.0,0,1,5.772800000000002,-0.087,-0.056570000000000044,0.0,44.0,25.903299999999998,0,19.109999999999996,3880.0,30.0,9.264199999999999,-0.16109999999999997,-1.0,-0.028900000000000033,-10.182500000000001,3.6231999999999993,-4.098800000000006,0,1,1,100.0
18,24.0,1,20.0,1.0,0,1,6.434400000000002,-0.087,0.017639999999999895,0.0,44.0,25.9,0,19.0,3880.0,30.0,8.9004,-0.15679999999999997,-1.01,-0.043200000000000044,-9.985599999999998,3.343599999999999,-5.778000000000003,0,1,1,100.0
18,25.0,1,20.0,1.0,0,1,6.8625,-0.087375,-0.043375,0.0,44.0,25.9,0,19.0,3880.0,30.0,8.605,-0.15,-1.01,-0.05375,-9.43375,3.02875,-6.25,0,1,1,100.0
18,26.0,1,20.0,1.0,0,1,7.1576,-0.08854,-0.14924000000000018,0.0,44.0,25.9,0,19.0,3880.0,30.0,8.377799999999999,-0.15,-1.0118,-0.06,-8.8172,2.7343999999999995,-6.202799999999999,0,1,1,100.0
18,27.0,1,20.0,1.0,0,1,7.584700000000001,-0.09649000000000002,-0.7079000000000015,0.0,44.0,25.9,0,19.0,3880.0,30.0,7.963099999999999,-0.14389999999999997,-1.02,-0.06610000000000002,-7.304099999999997,2.109399999999999,-4.966999999999997,0,1,1,100.0
18,28.0,1,20.0,0.9599999999999966,0,1,7.917200000000001,-0.11700000000000009,-1.2287200000000025,0.0,44.0,25.9,0,18.959999999999997,3880.0,30.0,7.527999999999999,-0.13959999999999997,-1.02,-0.07040000000000005,-5.375199999999995,1.4207999999999983,-2.031199999999988,0,1,1,100.0
18,29.0,1,20.0,0.0,0,1,8.151100000000001,-0.15463000000000013,-1.8611299999999993,0.0,44.0,25.914099999999998,0,18.0,3880.0,30.0,7.113099999999998,-0.13,-1.0247000000000002,-0.08,-2.9739999999999918,0.7296999999999977,3.429100000000021,0,1,1,100.0
18,30.0,1,20.0,0.0,0,1,8.411,-0.2029,-0.6968000000000001,0.0,44.0,25.9,0,18.0,3880.0,30.0,6.95,-0.129,-1.03,-0.09,1.683,-0.508,15.253,0,1,1,100.0
18,31.0,1,20.0,0.0,0,1,8.4977,-0.206,-0.06946999999999996,0.0,44.0,25.9,0,18.0,3880.0,30.0,7.3239,-0.13110000000000002,-1.0289,-0.09,3.9703000000000004,-1.0618,20.2177,0,1,1,100.0
18,32.0,1,20.0,0.0,0,1,8.531066666666668,-0.206,-0.010839999999999905,0.0,44.0,25.9,0,18.0,3880.0,30.0,7.5574666666666666,-0.1358666666666667,-1.0241333333333333,-0.09,4.794933333333335,-1.2429333333333337,21.68106666666667,0,1,1,100.0
18,33.0,1,20.0,0.0,0,1,8.739,-0.20205,0.21463000000000126,0.0,44.0,25.9,0,18.0,3880.0,30.0,9.250600000000002,-0.16380000000000006,-1.01,-0.08,8.295800000000003,-1.8114000000000003,25.256,0,1,1,100.0
18,34.0,1,20.0,0.0,0,1,8.9006,-0.19241999999999995,0.4685399999999996,0.0,44.0,25.9,0,18.0,3880.0,30.0,10.296400000000004,-0.18620000000000003,-1.0038,-0.07379999999999996,9.276200000000003,-1.8476,23.815199999999994,0,1,1,100.0
18,35.0,1,20.0,0.0,0,1,9.119499999999999,-0.18595,0.1647,0.0,44.0,25.9,0,18.0,3880.0,30.0,11.237,-0.2005,-1.0,-0.06,9.710500000000001,-1.754,20.99,0,1,1,100.0
18,36.0,1,20.0,0.0,0,1,9.400800000000002,-0.18548,0.004759999999998883,0.0,44.0,25.9,0,18.0,3880.0,30.0,11.956400000000002,-0.21,-0.9952,-0.05519999999999993,9.6432,-1.577599999999999,17.562799999999985,0,1,1,100.0
18,37.0,1,20.0,0.0,0,1,9.6192,-0.186,-0.07362999999999999,0.0,44.0,25.9,0,18.0,3880.0,30.0,12.32105,-0.21455000000000002,-0.99,-0.05,9.428049999999999,-1.4463,15.328099999999997,0,1,1,100.0
18,38.0,1,20.0,0.0,0,1,9.8384,-0.18634,-0.09353999999999982,0.0,44.0,25.9,0,18.0,3880.0,30.0,12.5648,-0.22,-0.99,-0.04660000000000002,9.1544,-1.3292000000000004,13.521200000000004,0,1,1,100.0
18,39.0,1,20.0,0.0,0,1,10.503300000000001,-0.19562000000000004,-0.4621200000000007,0.0,44.0,25.9,0,18.0,3880.0,30.0,12.9116,-0.23,-0.99,-0.04,8.407499999999999,-1.1037999999999997,10.328599999999996,0,1,1,100.0
18,40.0,1,20.0,0.0,0,1,10.918,-0.2094,-0.7338,0.0,44.0,25.906,0,18.0,3880.0,30.0,12.974,-0.23,-1.0,-0.04,8.254,-1.074,10.03,0,1,1,100.0
18,41.0,1,20.0,0.0,0,1,11.24135,-0.21657500000000002,-0.37374999999999947,0.0,44.0,25.92055,0,18.0,3880.0,30.0,13.0089,-0.23,-1.0,-0.04,8.385600000000002,-1.1120500000000002,10.617750000000003,0,1,1,100.0
18,42.0,1,20.0,0.0,6,2,11.4568,-0.22024000000000002,-0.2893600000000007,0.010560000000000399,44.0,25.895799999999998,0,18.0,3880.0,30.0,13.0548,-0.23,-1.0,-0.04,8.5728,-1.1678000000000002,11.269000000000002,0,1,1,100.0
18,43.0,1,20.0,0.0,6,2,11.857199999999999,-0.19068000000000015,2.439929999999986,1.836609999999992,44.0,25.5703,0,18.0,3880.0,30.0,13.2035,-0.23489999999999997,-1.0049,-0.04,9.214199999999998,-1.4663999999999993,12.516599999999999,0,1,1,100.0
18,44.0,1,20.0,0.9200000000000046,6,2,12.5184,-0.06339999999999986,1.4388399999999917,4.633720000000002,44.0,25.37,0,18.920000000000005,3880.0,30.0,13.4936,-0.24,-1.0192,-0.03,11.154000000000005,-3.450400000000005,9.43479999999999,0,1,1,100.0
18,45.0,1,20.0,1.0,6,2,12.884,-0.048549999999999996,0.42435,5.06855,44.0,25.405,0,19.0,3880.0,30.0,13.482,-0.25,-1.0235,-0.03,12.7055,-5.2780000000000005,5.4405,0,1,1,100.0
18,46.0,1,20.0,1.0,6,2,13.1336,-0.041659999999999975,0.43982000000000016,4.464699999999997,44.0,25.4973,0,19.0,3880.0,30.0,13.379299999999999,-0.24609999999999996,-1.03,-0.03,13.869000000000003,-6.535100000000004,2.754699999999992,0,1,1,100.0
18,47.0,1,20.0,1.0,6,2,13.52205,-0.032685,0.2843999999999999,3.6134949999999995,44.0,25.623150000000003,0,19.0,3880.0,30.0,13.11215,-0.24,-1.04,-0.018949999999999988,15.61295,-8.0504,-0.22825000000000076,0,1,1,100.0
18,48.0,1,20.0,1.0,6,2,13.672200000000002,-0.030539999999999987,0.19859999999999944,3.412579999999999,44.0,25.6446,0,19.0,3880.0,30.0,12.9906,-0.24,-1.04,-0.011799999999999955,16.177800000000005,-8.393600000000003,-0.693000000000003,0,1,1,100.0
18,49.0,1,20.0,1.0,6,2,14.0798,-0.024859999999999993,0.21193999999999974,2.8607199999999993,44.0,25.72,0,19.0,3880.0,30.0,12.7186,-0.23,-1.0393,0.0007000000000000455,17.14,-8.514799999999997,0.4699000000000071,0,1,1,100.0
18,50.0,1,20.0,1.0,6,2,14.275,-0.0225,0.135,2.614,44.0,25.74,0,19.0,3880.0,30.0,12.729999999999999,-0.23,-1.03,0.019999999999999997,17.015,-7.9,2.93,0,1,1,100.0
18,51.0,1,20.0,1.0,6,2,14.4423,-0.020139999999999988,0.1408300000000002,2.3486799999999985,44.0,25.7879,0,19.0,3880.0,30.0,12.908800000000001,-0.23,-1.0207,0.03930000000000007,16.443599999999996,-6.959699999999995,6.003900000000016,0,1,1,100.0
18,52.0,1,20.0,1.0,6,2,14.578800000000001,-0.017639999999999996,0.11395999999999991,2.0437999999999996,44.0,25.804399999999998,0,19.0,3880.0,30.0,13.3096,-0.24,-1.0164,0.04360000000000003,15.395999999999999,-5.8527999999999984,9.252000000000006,0,1,1,100.0
18,53.0,1,20.0,1.0,6,2,14.661600000000002,-0.016209999999999992,0.08425999999999995,1.8613299999999993,44.0,25.83,0,19.0,3880.0,30.0,13.7138,-0.24395000000000003,-1.0060499999999999,0.053950000000000047,14.393399999999996,-5.079549999999997,11.446050000000008,0,1,1,100.0
18,54.0,1,20.0,1.0,6,2,14.7976,-0.014,-0.0036599999999997863,1.6759599999999997,44.0,25.83,0,19.0,3880.0,30.0,14.639800000000003,-0.26220000000000004,-0.9877999999999999,0.07,12.202999999999994,-3.9565999999999977,14.634800000000006,0,1,1,100.0
18,55.0,1,20.0,1.0,6,2,14.911999999999999,-0.014,0.0655,1.6172000000000002,44.0,25.8495,0,19.0,3880.0,30.0,15.509500000000001,-0.27,-0.98,0.0765,10.227,-3.356,16.310499999999998,0,1,1,100.0
18,56.0,1,20.0,1.0,6,2,15.0344,-0.014,-0.09423999999999985,1.6370399999999998,44.0,25.83,0,19.0,3880.0,30.0,16.374000000000002,-0.28040000000000004,-0.9695999999999999,0.08,8.289999999999996,-2.9175999999999993,17.26,0,1,1,100.0
18,57.0,1,20.0,1.0,6,2,15.113050000000001,-0.014,-0.06277999999999995,1.61988,44.0,25.83,0,19.0,3880.0,30.0,16.803,-0.28755000000000003,-0.9624499999999999,0.08,7.396249999999998,-2.69595,17.43875,0,1,1,100.0
18,58.0,1,20.0,1.0,6,2,15.401600000000002,-0.014,-0.024119999999999534,1.65906,44.0,25.831799999999998,0,19.0,3880.0,30.0,17.922400000000003,-0.30940000000000006,-0.9505999999999999,0.08,5.450199999999994,-1.8745999999999963,17.2062,0,1,1,100.0
18,59.0,1,20.0,1.0,6,2,15.487633333333333,-0.014,0.012793333333333441,1.6580866666666667,44.0,25.83,0,19.0,3880.0,30.0,18.1144,-0.31,-0.95,0.08,5.2867,-1.6444999999999994,17.002766666666666,0,1,1,100.0
18,60.0,1,20.0,1.0,6,2,15.568666666666667,-0.014,0.04806666666666666,1.6571333333333333,44.0,25.83,0,19.0,3880.0,30.0,18.285999999999998,-0.31,-0.95,0.08,5.1579999999999995,-1.43,16.807333333333336,0,1,1,100.0
18,61.0,1,20.0,1.0,6,2,16.0953,-0.013384999999999996,0.09697000000000026,1.5002799999999996,44.0,25.83,0,19.0,3880.0,30.0,18.68385,-0.32615000000000005,-0.96,0.08,6.561900000000003,0.06205000000000225,15.640899999999998,0,1,1,100.0
18,62.0,1,20.0,1.0,6,2,16.578400000000002,-0.010339999999999998,0.15137999999999976,1.2189599999999996,44.0,25.86,0,19.0,3880.0,30.0,18.404799999999998,-0.33,-0.9766,0.07,9.671000000000005,1.7768000000000022,15.4558,0,1,1,100.0
18,63.0,1,20.0,1.0,6,2,16.801700000000004,-0.009454999999999995,0.09810499999999986,1.051734999999999,44.0,25.86,0,19.0,3880.0,30.0,18.17195,-0.32454999999999995,-0.98545,0.07,11.46085000000001,2.7422000000000053,15.734350000000001,0,1,1,100.0
18,64.0,1,20.0,1.0,6,2,17.262800000000002,-0.006739999999999998,0.12637999999999994,0.7238599999999994,44.0,25.9,0,19.0,3880.0,30.0,17.6394,-0.32,-1.0052,0.08,15.361400000000005,5.020400000000004,16.9582,0,1,1,100.0
18,65.0,1,20.0,1.0,6,2,17.462999999999997,-0.006025,0.099925,0.517225,44.0,25.9,0,19.0,3880.0,30.0,17.41775,-0.32,-1.0195,0.08,17.070249999999998,6.1215,17.72325,0,1,1,100.0
18,66.0,1,20.0,1.0,6,2,18.140200000000004,-0.0016199999999999932,0.12383999999999978,-0.07280000000000143,44.0,25.9,0,19.0,3880.0,30.0,16.726,-0.31,-1.03,0.10380000000000007,22.411000000000016,10.697400000000014,21.06440000000001,0,1,1,100.0
18,67.0,1,20.0,1.0,6,2,18.437450000000002,-0.0001899999999999977,0.10359499999999999,-0.2588900000000002,44.0,25.9,0,19.0,3880.0,30.0,16.394199999999998,-0.30595,-1.03,0.11405000000000001,24.272050000000004,13.157300000000003,22.320950000000003,0,1,1,100.0
18,68.0,1,20.0,1.0,6,2,18.6796,0.001240000000000009,0.08379999999999926,-0.3491600000000003,44.0,25.9,0,19.0,3880.0,30.0,16.069599999999994,-0.2975999999999999,-1.03,0.12240000000000009,25.52280000000001,15.512800000000029,22.977200000000003,0,1,1,100.0
18,69.0,1,20.0,0.6700000000000046,6,2,19.401,0.002,-0.019189999999999804,-0.32363,43.0,25.8732,0,18.670000000000005,3880.0,30.0,14.677699999999996,-0.26659999999999995,-1.0132999999999999,0.14670000000000005,27.534700000000004,24.64760000000002,21.18359999999999,0,1,1,100.0
18,70.0,1,20.0,1.0,6,2,19.815,0.002,0.10685,-0.324,43.0,25.9,0,19.0,3880.0,30.0,13.618,-0.239,-0.9895,0.1505,27.7185,30.781499999999998,17.078,0,1,1,100.0
18,71.0,1,20.0,1.0,6,2,20.029500000000002,0.002,0.04750499999999972,-0.3669000000000002,43.0,25.9,0,19.0,3880.0,30.0,13.017399999999997,-0.22469999999999993,-0.98235,0.15765000000000004,27.55405,33.94895000000002,13.760399999999985,0,1,1,100.0
18,72.0,1,20.0,1.0,6,2,20.378400000000006,0.002,0.025119999999999962,-0.3406799999999994,43.0,25.9,0,19.0,3880.0,30.0,11.975199999999987,-0.20079999999999973,-0.9607999999999997,0.16,27.077599999999993,38.91640000000005,6.8619999999999175,0,1,1,100.0
18,73.0,1,20.0,0.0,1,6,21.0197,-0.012430000000000338,-1.3522800000000306,-0.8186500000000113,43.0,25.802699999999998,0,19.0,3880.0,31.0,9.830199999999992,-0.16219999999999982,-0.9260999999999999,0.16,25.685499999999994,47.340900000000026,-13.063100000000084,0,1,1,100.0
18,74.0,1,20.0,0.0,1,6,21.315800000000003,-0.07682000000000022,-3.2428399999999993,-1.426039999999999,43.0,25.76,0,19.0,3880.0,31.0,8.714999999999996,-0.14179999999999995,-0.9117999999999999,0.16,24.939999999999998,52.10700000000001,-26.634800000000045,0,1,1,100.0
18,75.0,1,20.0,0.0,1,6,21.497500000000002,-0.1395,-2.633,-1.765,43.0,25.73,0,19.0,3880.0,31.0,7.7525,-0.1275,-0.91,0.1475,24.4225,57.1425,-40.735,0,1,1,100.0
18,76.0,1,20.0,0.0,1,6,21.5466,-0.17853999999999995,-2.2230200000000004,-2.0886599999999995,43.0,25.76,0,19.0,3880.0,31.0,7.160400000000001,-0.11660000000000002,-0.9134,0.13660000000000003,24.2058,61.50619999999999,-51.568999999999974,0,1,1,100.0
18,77.0,1,20.0,0.0,1,6,21.418,-0.2283100000000003,-1.5498999999999958,-2.215820000000009,43.0,25.7167,0,19.0,3880.0,31.0,6.6643000000000026,-0.11,-0.9322000000000004,0.11779999999999972,24.0434,70.35100000000008,-68.31420000000011,0,1,1,100.0
18,78.0,1,20.0,0.0,1,6,21.067199999999996,-0.2561800000000002,-1.1395399999999978,-2.869800000000001,43.0,25.69,0,19.0,3880.0,31.0,7.077000000000005,-0.12080000000000019,-0.9662000000000003,0.08919999999999982,23.9198,79.38720000000006,-79.12380000000006,0,1,1,100.0
18,79.0,1,20.0,0.0,1,6,20.493199999999998,-0.2775800000000001,-0.9250899999999995,-2.95895,43.0,25.6512,0,19.0,3880.0,31.0,8.319400000000003,-0.1494000000000001,-0.9994000000000001,0.05089999999999986,23.5205,88.98810000000003,-86.24190000000003,0,1,1,100.0
18,80.0,1,20.0,0.0,1,6,19.654,-0.29219999999999996,-0.5316,-3.4814000000000003,43.0,25.62,0,19.0,3880.0,31.0,10.52,-0.196,-1.038,0.008,22.322,97.12,-87.588,0,1,1,100.0
18,81.0,1,20.0,0.0,3,7,18.576000000000004,-0.30363999999999997,-0.5418799999999994,-3.338970000000001,43.0,25.6449,0,19.0,3880.0,31.0,13.27659999999999,-0.2531999999999998,-1.0583,-0.04319999999999982,20.250500000000006,102.03479999999999,-83.83580000000002,0,1,1,100.0
18,82.0,1,20.0,0.0,3,7,18.061999999999998,-0.30878000000000005,-0.5507199999999999,-3.2349999999999994,43.0,25.65,0,19.0,3880.0,31.0,14.493600000000008,-0.27680000000000016,-1.0642,-0.06260000000000014,19.06279999999999,102.5204,-80.64639999999997,0,1,1,100.0
18,83.0,1,20.0,0.0,3,7,17.632999999999996,-0.31307,-0.5345133333333333,-3.1634999999999995,43.0,25.65,0,19.0,3880.0,31.0,15.485066666666672,-0.2958666666666668,-1.0689666666666668,-0.0769000000000001,18.033199999999994,102.5776,-77.74826666666665,0,1,1,100.0
18,84.0,1,20.0,0.0,3,7,14.179599999999995,-0.32812,-0.16255999999999984,-3.115959999999999,43.0,25.72,0,19.0,3880.0,31.0,20.8396,-0.4112,-1.07,-0.14120000000000005,8.234399999999985,89.18519999999997,-48.37399999999995,0,1,1,100.0
18,85.0,1,20.0,0.0,3,7,12.5065,-0.32845,0.08505000000000001,-2.86725,43.0,25.742,0,19.0,3880.0,31.0,21.2015,-0.4145,-1.07,-0.139,4.1875,79.217,-34.426,0,1,1,100.0
18,86.0,1,20.0,0.9799999999999955,3,7,10.843200000000005,-0.3162400000000001,1.0234399999999964,-3.1784199999999987,43.0,25.76,0,19.979999999999997,3880.0,31.0,20.011800000000004,-0.3904000000000001,-1.0798,-0.10060000000000013,1.6796000000000066,68.97240000000004,-22.253200000000035,0,1,1,100.0
18,87.0,1,20.0,0.0,3,7,9.492699999999994,-0.2934649999999998,1.5119550000000037,-3.1444199999999967,43.0,25.798199999999998,0,19.0,3880.0,31.0,17.819249999999986,-0.3497499999999997,-1.08,-0.049749999999999656,0.6549499999999958,61.59984999999997,-14.185299999999962,0,1,1,100.0
18,88.0,1,20.0,0.0,3,7,8.734799999999996,-0.2741599999999999,1.9059200000000025,-2.8040799999999977,43.0,25.8268,0,19.0,3880.0,31.0,16.28199999999999,-0.3139999999999998,-1.08,-0.013999999999999778,0.21879999999999727,58.14639999999998,-10.367199999999976,0,1,1,100.0
18,89.0,1,20.0,0.0,3,7,6.551299999999996,-0.17460999999999974,3.699250000000001,-1.5679899999999973,43.0,25.93,0,19.0,3880.0,31.0,11.079699999999992,-0.2091999999999998,-1.08,0.09810000000000013,-1.4711000000000043,51.831799999999994,-4.160599999999999,0,1,1,100.0
18,90.0,1,20.0,0.0,3,7,5.463,-0.0924,3.7852,-0.9099,43.0,25.93,0,19.0,3880.0,31.0,8.678,-0.166,-1.073,0.141,-2.843,49.29,-5.022,0,1,1,100.0
18,91.0,1,20.0,0.5649999999999977,3,7,4.899700000000001,-0.045055000000000116,3.505480000000001,-0.5288450000000011,43.0,25.91305,0,19.564999999999998,3880.0,31.0,7.669350000000002,-0.14870000000000005,-1.07,0.15564999999999998,-3.654149999999998,47.2058,-7.081549999999994,0,1,1,100.0
18,92.0,1,20.0,0.0,3,7,3.842399999999994,0.041040000000000465,2.2911999999999892,-0.0033599999999977073,43.0,25.9,0,19.0,3880.0,31.0,6.451999999999996,-0.12,-1.0644,0.16439999999999988,-4.9104000000000045,39.658799999999935,-14.384800000000055,0,1,1,100.0
18,93.0,1,20.0,0.9900000000000091,3,7,3.2538999999999962,0.07877000000000021,1.3124199999999941,0.40562000000000303,43.0,25.8604,0,19.99000000000001,3880.0,31.0,6.201199999999999,-0.12,-1.06,0.1500999999999999,-5.06,31.90709999999995,-19.961800000000036,0,1,1,100.0
18,94.0,1,20.0,0.2899999999999977,3,7,3.0085999999999995,0.08539000000000002,0.4447699999999973,0.45018000000000014,43.0,25.888399999999997,0,19.29,3880.0,31.0,6.1432,-0.11289999999999997,-1.06,0.1429,-4.8328,27.476399999999988,-22.172600000000006,0,1,1,100.0
18,95.0,1,20.0,0.0,3,7,2.655,0.08205,-0.67115,0.28935,43.0,25.9,0,19.0,3880.0,31.0,5.9755,-0.11,-1.06,0.1315,-4.281000000000001,20.538999999999998,-24.6325,0,1,1,100.0
18,96.0,1,20.0,0.0,3,7,2.012799999999996,0.04535999999999976,-0.9063999999999997,-0.08671999999999998,43.0,25.9,0,19.0,3880.0,31.0,4.939199999999989,-0.08719999999999982,-1.05,0.12,-2.74599999999999,8.820399999999939,-23.355999999999955,0,1,1,100.0
18,97.0,1,20.0,0.0,3,7,1.6695999999999969,0.02605999999999981,-0.8153199999999986,-0.21309000000000244,43.0,25.871599999999997,0,19.0,3880.0,31.0,4.045599999999991,-0.07289999999999987,-1.05,0.12,-2.044699999999994,4.804099999999968,-18.963999999999952,0,1,1,100.0
18,98.0,1,20.0,0.0,3,7,1.316399999999998,0.011439999999999964,-0.480339999999998,-0.27751999999999877,43.0,25.9,0,19.0,3880.0,31.0,3.2013999999999956,-0.05859999999999991,-1.0486,0.12,-1.5861999999999985,2.5581999999999923,-13.06699999999996,0,1,1,100.0
18,99.0,1,20.0,0.0,3,7,1.0415999999999994,0.006289999999999987,-0.3028300000000001,-0.14547499999999985,43.0,25.9,0,19.0,3880.0,31.0,2.671699999999999,-0.04714999999999998,-1.04,0.12,-1.4285999999999999,1.684599999999999,-7.9945499999999905,0,1,1,100.0
18,100.0,1,20.0,0.0,3,7,0.87,0.002,-0.33,-0.099,43.0,25.9,0,19.0,3880.0,31.0,2.4,-0.04,-1.04,0.12,-1.4,1.37,-4.87,0,1,1,100.0
27,0.0,1,20.0,1.0,0,1,19.8,-0.248,-0.413,0.0,43.0,25.9,0,3.0,3880.0,37.0,16.38,-0.29,-0.99,0.04,-4.48,1.14,-7.91,0,1,1,100.0
27,1.0,1,20.0,0.0,0,1,19.5176,-0.26412,-0.5754,0.0,43.0,25.9,0,2.0,3880.0,37.0,15.937199999999999,-0.2832,-0.99,0.03,-3.0544,0.7572,-2.5163999999999995,0,1,1,100.0
27,2.0,1,20.0,0.0,0,1,19.224,-0.27562000000000003,-0.48964,0.0,43.0,25.9,0,2.0,3880.0,37.0,15.7428,-0.28,-1.0,0.03,-1.5537999999999998,0.4712,2.3334,0,1,1,100.0
27,3.0,1,20.0,0.0,0,1,19.051599999999997,-0.28331999999999996,-0.7229999999999999,0.0,43.0,25.9,0,2.0,3880.0,37.0,15.7116,-0.28,-1.0,0.029599999999999994,-0.6131999999999994,0.33519999999999994,5.017200000000002,0,1,1,100.0
27,4.0,1,20.0,0.0,0,1,18.537599999999998,-0.295,-0.013159999999999956,0.0,43.0,25.9,0,2.0,3880.0,37.0,16.014,-0.2872,-0.9928,0.02,2.6228000000000007,0.019199999999999967,11.9664,0,1,1,100.0
27,5.0,1,20.0,0.0,0,1,18.288,-0.2946,0.001400000000000002,0.0,43.0,25.9,0,2.0,3880.0,37.0,16.5,-0.294,-0.99,0.02,4.652,-0.35000000000000003,14.466,0,1,1,100.0
27,6.0,1,20.0,0.0,0,1,18.1052,-0.29059999999999997,0.35324,0.0,43.0,25.9,0,2.0,3880.0,37.0,17.1668,-0.3008,-0.9892,0.02,6.356800000000001,-1.0180000000000007,15.1816,0,1,1,100.0
27,7.0,1,20.0,0.0,0,1,18.0386,-0.28371999999999997,0.36038,0.0,43.0,25.9,0,2.0,3880.0,37.0,17.7724,-0.3138,-0.98,0.02,7.1544,-1.8664000000000005,14.3144,0,1,1,100.0
27,8.0,1,20.0,0.0,0,1,18.02,-0.27648,0.4615600000000002,0.0,43.0,25.9,0,2.0,3880.0,37.0,18.281200000000002,-0.3244,-0.98,0.024400000000000005,7.39,-2.7504000000000004,12.863199999999999,0,1,1,100.0
27,9.0,1,20.0,0.0,0,1,18.1296,-0.25976,0.22571999999999984,0.0,43.0,25.9,0,2.0,3880.0,37.0,19.3276,-0.34,-0.9688,0.04120000000000002,6.130399999999998,-4.9404,6.955199999999995,0,1,1,100.0
27,10.0,1,20.0,0.0,0,1,18.288,-0.2548,0.21899999999999997,0.0,43.0,25.924,0,2.0,3880.0,37.0,19.625999999999998,-0.34,-0.96,0.057999999999999996,4.1,-5.414000000000001,2.736,0,1,1,100.0
27,11.0,1,20.0,0.24000000000000057,0,1,18.4512,-0.24708,0.48599999999999993,0.0,43.0,25.9228,0,2.2400000000000007,3880.0,37.0,19.680400000000002,-0.34,-0.96,0.062400000000000004,1.903599999999999,-5.233199999999999,-0.6280000000000012,0,1,1,100.0
27,12.0,1,20.0,1.0,0,1,18.569200000000002,-0.24003999999999998,0.3780399999999998,0.0,43.0,25.904799999999998,0,3.0,3880.0,37.0,19.6356,-0.34,-0.96,0.07,0.42719999999999647,-4.917999999999999,-2.6232000000000046,0,1,1,100.0
27,13.0,1,20.0,1.0,0,1,18.7708,-0.23164,0.25455999999999995,0.0,43.0,25.93,0,3.0,3880.0,37.0,19.434,-0.34,-0.96,0.07840000000000001,-2.1264000000000007,-4.1116,-5.848800000000001,0,1,1,100.0
27,14.0,1,20.0,0.0,6,2,19.0416,-0.18707999999999989,3.274320000000009,1.4892400000000052,43.0,25.6572,0,18.0,3880.0,37.0,18.8756,-0.33,-0.9652,0.07,-4.973600000000001,-2.578399999999999,-10.221200000000005,0,1,1,100.0
27,15.0,1,20.0,0.1,6,2,19.144000000000002,-0.08489999999999999,3.02,3.6242,43.0,25.47,0,18.1,3880.0,37.0,18.534,-0.329,-0.97,0.069,-5.648,-1.95,-14.936,0,1,1,100.0
27,16.0,1,20.0,0.9400000000000006,6,2,19.177599999999998,-0.05885999999999998,1.1803999999999986,4.23908,43.0,25.47,0,18.94,3880.0,37.0,18.3156,-0.3206,-0.97,0.060599999999999994,-5.715199999999999,-2.0340000000000003,-18.514400000000002,0,1,1,100.0
27,17.0,1,20.0,1.0,6,2,19.1432,-0.04443999999999999,0.18635999999999986,5.068919999999999,43.0,25.4112,0,19.0,3880.0,37.0,17.2636,-0.3072,-0.98,0.05,-5.2947999999999995,-3.555600000000001,-28.463600000000003,0,1,1,100.0
27,18.0,1,20.0,1.0,6,2,18.9664,-0.04176,0.08587999999999987,4.904719999999999,43.0,25.44,0,19.0,3880.0,37.0,15.912799999999999,-0.2776,-0.9824,0.04,-4.576399999999999,-4.826000000000001,-33.43880000000001,0,1,1,100.0
27,19.0,1,20.0,1.0,6,2,18.685200000000002,-0.040080000000000005,-0.032239999999999894,4.82516,43.0,25.44,0,19.0,3880.0,37.0,14.574800000000002,-0.26080000000000003,-0.99,0.04,-3.9120000000000004,-5.3048,-34.2992,0,1,1,100.0
27,20.0,1,20.0,1.0,6,2,18.266,-0.04,0.0402,4.825,43.0,25.452,0,19.0,3880.0,37.0,13.254,-0.234,-1.0,0.04,-3.2560000000000002,-5.164,-32.312,0,1,1,100.0
27,21.0,1,20.0,1.0,6,2,17.9452,-0.04,0.02092,4.838839999999999,43.0,25.44,0,19.0,3880.0,37.0,12.4892,-0.2236,-1.0,0.04,-2.844,-4.856,-30.148,0,1,1,100.0
27,22.0,1,20.0,1.0,6,2,17.6524,-0.04,0.03256000000000002,4.84904,43.0,25.4544,0,19.0,3880.0,37.0,11.922799999999999,-0.21519999999999997,-1.0048,0.04,-2.4936,-4.5283999999999995,-28.033599999999996,0,1,1,100.0
27,23.0,1,20.0,1.0,6,2,17.203999999999997,-0.04,0.0017599999999997726,4.84288,43.0,25.4508,0,19.0,3880.0,37.0,11.225199999999997,-0.20359999999999998,-1.01,0.04,-1.9819999999999984,-4.0219999999999985,-24.79039999999999,0,1,1,100.0
27,24.0,1,20.0,1.0,6,2,15.536399999999997,-0.04,0.051639999999999665,4.83832,43.0,25.44,0,19.0,3880.0,37.0,9.650799999999998,-0.17,-1.02,0.03,-0.22559999999999808,-2.7687999999999993,-14.165599999999987,0,1,1,100.0
27,25.0,1,20.0,1.0,6,2,14.73,-0.04,0.068,4.81,43.0,25.44,0,19.0,3880.0,37.0,9.19,-0.16,-1.02,0.03,0.4,-2.58,-9.86,0,1,1,100.0
27,26.0,1,20.0,1.0,6,2,14.0902,-0.03966,0.043899999999999995,4.716259999999999,43.0,25.4502,0,19.0,3880.0,37.0,8.9222,-0.16,-1.02,0.03,0.7044000000000001,-2.6272,-6.859399999999999,0,1,1,100.0
27,27.0,1,20.0,1.0,6,2,13.617999999999999,-0.03864,0.03940000000000004,4.592239999999999,43.0,25.47,0,19.0,3880.0,37.0,8.7632,-0.16,-1.02,0.03,0.8424000000000003,-2.7268000000000003,-4.803199999999996,0,1,1,100.0
27,28.0,1,20.0,1.0,6,2,12.8936,-0.03695999999999999,0.12499999999999975,4.38704,43.0,25.51,0,19.0,3880.0,37.0,8.5772,-0.15,-1.02,0.03,0.9192,-2.9332000000000003,-1.8491999999999948,0,1,1,100.0
27,29.0,1,20.0,1.0,6,2,11.885199999999998,-0.03355999999999999,0.08564000000000005,4.0054799999999995,43.0,25.5688,0,19.0,3880.0,37.0,8.462800000000001,-0.15,-1.0272000000000001,0.037200000000000046,0.8067999999999997,-2.9451999999999994,1.8556000000000057,0,1,1,100.0
27,30.0,1,20.0,1.0,6,2,11.372,-0.0316,0.07880000000000001,3.7744,43.0,25.596,0,19.0,3880.0,37.0,8.518,-0.15,-1.026,0.04,0.692,-2.658,3.664,0,1,1,100.0
27,31.0,1,20.0,1.0,6,2,11.0804,-0.030459999999999997,0.07352000000000013,3.6467799999999997,43.0,25.62,0,19.0,3880.0,37.0,8.6194,-0.15540000000000004,-1.02,0.04,0.6121999999999997,-2.3687999999999994,4.6990000000000025,0,1,1,100.0
27,32.0,1,20.0,1.0,6,2,10.8104,-0.03,0.04995999999999987,3.50956,43.0,25.642799999999998,0,19.0,3880.0,37.0,8.7764,-0.16,-1.02,0.04,0.5343999999999999,-2.0043999999999995,5.637200000000002,0,1,1,100.0
27,33.0,1,20.0,1.0,6,2,10.5184,-0.02756,0.06092000000000019,3.28024,43.0,25.6676,0,19.0,3880.0,37.0,9.0536,-0.16,-1.02,0.04,0.47120000000000006,-1.4592000000000007,6.621199999999999,0,1,1,100.0
27,34.0,1,20.0,1.0,6,2,10.2228,-0.025,0.08951999999999986,2.97648,43.0,25.6936,0,19.0,3880.0,37.0,9.586400000000001,-0.17,-1.02,0.04,0.5408000000000004,-0.6151999999999987,7.5192000000000005,0,1,1,100.0
27,35.0,1,20.0,1.0,6,2,10.146,-0.0242,0.08399999999999999,2.8815999999999997,43.0,25.72,0,19.0,3880.0,37.0,9.948,-0.178,-1.012,0.04,0.724,-0.15199999999999997,7.732,0,1,1,100.0
27,36.0,1,20.0,1.0,6,2,10.1248,-0.023,0.02936000000000022,2.8287199999999997,43.0,25.72,0,19.0,3880.0,37.0,10.281200000000002,-0.18480000000000008,-1.01,0.03519999999999993,0.9864000000000013,0.22120000000000128,7.78,0,1,1,100.0
27,37.0,1,20.0,1.5800000000000012,6,2,10.147400000000001,-0.023,0.05992000000000003,2.77612,43.0,25.7432,0,19.580000000000002,3880.0,37.0,10.4786,-0.19,-1.01,0.03,1.2018000000000002,0.40120000000000017,7.7741999999999996,0,1,1,100.0
27,38.0,1,20.0,2.0,6,2,10.2252,-0.023,0.0033000000000000364,2.7370400000000004,43.0,25.72,0,20.0,3880.0,37.0,10.7688,-0.19,-1.01,0.03,1.6107999999999998,0.5726,7.7926,0,1,1,100.0
27,39.0,1,20.0,2.0,6,2,10.343866666666667,-0.023,-0.027399999999999976,2.73212,43.0,25.75306666666667,0,20.0,3880.0,37.0,10.989066666666668,-0.2,-1.01,0.03,2.070266666666667,0.5443999999999999,7.926000000000001,0,1,1,100.0
27,40.0,1,20.0,2.0,6,2,10.388666666666667,-0.023,-0.019,2.7422,43.0,25.730666666666668,0,20.0,3880.0,37.0,11.050666666666666,-0.2,-1.01,0.03,2.232666666666667,0.494,8.01,0,1,1,100.0
27,41.0,1,20.0,2.0,6,2,10.498000000000001,-0.023,-0.06956000000000043,2.7223599999999997,43.0,25.755200000000002,0,20.0,3880.0,37.0,11.168000000000001,-0.2,-1.01,0.03,2.591600000000002,0.33799999999999897,8.252400000000002,0,1,1,100.0
27,42.0,1,20.0,1.4399999999999977,6,2,10.902800000000001,-0.022,-0.017159999999999967,2.6735200000000003,43.0,25.76,0,18.879999999999995,3880.0,37.0,11.495999999999999,-0.20560000000000003,-1.01,0.03,4.048800000000001,-0.4856000000000006,9.731200000000001,0,1,1,100.0
27,43.0,1,20.0,0.7600000000000022,6,2,11.1212,-0.022,0.05032000000000007,2.61476,43.0,25.76,0,17.76,3880.0,37.0,11.696,-0.21,-1.01,0.03,4.919199999999999,-0.9147999999999994,10.669199999999998,0,1,1,100.0
27,44.0,1,20.0,0.4600000000000023,6,2,11.2844,-0.021539999999999997,0.06188000000000018,2.5248,43.0,25.76,0,17.46,3880.0,37.0,11.888200000000001,-0.2146,-1.01,0.03,5.636000000000002,-1.2396000000000007,11.376800000000001,0,1,1,100.0
27,45.0,1,20.0,1.0,6,2,11.6,-0.0194,0.0262,2.2778,43.0,25.778,0,18.0,3880.0,37.0,12.308,-0.22,-1.01,0.03,6.9399999999999995,-1.8219999999999998,12.534,0,1,1,100.0
27,46.0,1,20.0,1.0,6,2,11.728266666666666,-0.019,0.018439999999999988,2.20708,43.0,25.79,0,18.0,3880.0,37.0,12.5152,-0.2242666666666667,-1.01,0.03426666666666669,7.414666666666668,-2.045200000000001,12.909200000000002,0,1,1,100.0
27,47.0,1,20.0,1.0,6,2,11.817866666666667,-0.019,0.015079999999999994,2.18356,43.0,25.79,0,18.0,3880.0,37.0,12.6664,-0.2298666666666667,-1.01,0.039866666666666675,7.722666666666668,-2.1964000000000006,13.144400000000001,0,1,1,100.0
27,48.0,1,20.0,1.0,6,2,12.451600000000001,-0.017,0.05400000000000068,1.9717999999999998,43.0,25.804399999999998,0,18.0,3880.0,37.0,13.909600000000005,-0.2464000000000001,-1.0,0.05,8.686399999999999,-3.071600000000002,13.745199999999999,0,1,1,100.0
27,49.0,1,20.0,1.0,6,2,12.774000000000001,-0.016,-0.02679999999999984,1.9347599999999998,43.0,25.83,0,18.0,3880.0,37.0,14.588000000000003,-0.26,-0.99,0.06,8.437199999999999,-3.2956000000000003,13.348799999999999,0,1,1,100.0
27,50.0,1,20.0,1.0,6,2,13.12,-0.016,-0.038,1.906,43.0,25.83,0,18.0,3880.0,37.0,15.26,-0.27,-0.98,0.07,7.82,-3.35,12.5,0,1,1,100.0
27,51.0,1,20.0,1.0,6,2,13.2964,-0.016,-0.04976000000000005,1.8959199999999998,43.0,25.83,0,18.0,3880.0,37.0,15.579200000000002,-0.27,-0.98,0.07,7.383199999999998,-3.2996,11.895199999999997,0,1,1,100.0
27,52.0,1,20.0,1.0,6,2,13.6292,-0.016,-0.005039999999999917,1.87236,43.0,25.83,0,18.0,3880.0,37.0,16.098,-0.28,-0.97,0.08,6.5139999999999985,-3.0815999999999995,10.591599999999998,0,1,1,100.0
27,53.0,1,20.0,1.0,6,2,14.229200000000002,-0.015,-0.023840000000000645,1.8518000000000001,43.0,25.83,0,18.0,3880.0,37.0,16.7252,-0.29,-0.97,0.09,5.002399999999995,-2.417199999999997,7.940799999999991,0,1,1,100.0
27,54.0,1,20.0,1.0,6,2,14.608400000000001,-0.015,0.052000000000000914,1.8225199999999997,43.0,25.83,0,18.0,3880.0,37.0,16.8932,-0.29,-0.97,0.09,4.349599999999999,-1.8723999999999985,6.344799999999996,0,1,1,100.0
27,55.0,1,20.0,1.0,6,2,14.824,-0.015,0.0009000000000000032,1.7871,43.0,25.83,0,18.0,3880.0,37.0,16.917,-0.29,-0.97,0.09,4.127,-1.556,5.53,0,1,1,100.0
27,56.0,1,20.0,1.0,6,2,15.126800000000001,-0.015,0.005760000000000662,1.7558399999999998,43.0,25.83,0,18.0,3880.0,37.0,16.8736,-0.29,-0.97,0.09,4.0164,-1.1143999999999976,4.590799999999996,0,1,1,100.0
27,57.0,1,20.0,1.0,6,2,15.654399999999999,-0.014,0.05688000000000009,1.68068,43.0,25.83,0,18.0,3880.0,37.0,16.6088,-0.29,-0.98,0.09,4.492800000000001,-0.27199999999999935,3.7539999999999996,0,1,1,100.0
27,58.0,1,20.0,1.0,6,2,15.954800000000002,-0.01355999999999999,-0.022000000000000224,1.5470799999999993,43.0,25.8432,0,18.0,3880.0,37.0,16.374,-0.29,-0.99,0.09,5.071600000000004,0.2508000000000029,3.966400000000003,0,1,1,100.0
27,59.0,1,20.0,1.0,6,2,16.218,-0.011879999999999996,0.09236000000000001,1.3931999999999995,43.0,25.86,0,18.0,3880.0,37.0,16.1208,-0.29,-0.9912000000000001,0.09,5.7516000000000025,0.8256000000000018,4.772400000000003,0,1,1,100.0
27,60.0,1,20.0,1.0,6,2,16.462,-0.0102,0.0934,1.2372,43.0,25.86,0,18.0,3880.0,37.0,15.868,-0.28200000000000003,-1.0,0.09,6.482,1.504,6.234,0,1,1,100.0
27,61.0,1,20.0,1.0,6,2,16.578799999999998,-0.01,0.1277799999999999,1.16472,43.0,25.86,0,18.0,3880.0,37.0,15.7512,-0.28,-1.0074,0.09,6.910399999999999,1.937799999999999,7.310599999999997,0,1,1,100.0
27,62.0,1,20.0,1.0,6,2,16.867600000000003,-0.007839999999999986,0.06907999999999949,0.8966799999999983,43.0,25.86,0,18.0,3880.0,37.0,15.59,-0.28,-1.0116,0.1,8.154400000000008,3.192800000000008,10.785600000000022,0,1,1,100.0
27,63.0,1,20.0,1.0,6,2,17.0062,-0.006579999999999996,0.05228000000000015,0.7185999999999992,43.0,25.86,0,18.0,3880.0,37.0,15.6152,-0.28420000000000006,-1.02,0.1,8.914600000000004,3.9194000000000027,12.923400000000008,0,1,1,100.0
27,64.0,1,20.0,1.5200000000000047,6,2,17.2424,-0.004479999999999995,0.04203999999999956,0.3658399999999993,43.0,25.9,0,18.520000000000003,3880.0,37.0,15.9144,-0.29,-1.02,0.1,10.298400000000003,4.958000000000002,16.72160000000001,0,1,1,100.0
27,65.0,1,20.0,2.0,6,2,17.348000000000003,-0.0036,0.0318,0.262,43.0,25.884,0,19.0,3880.0,37.0,16.14,-0.294,-1.02,0.1,10.876,5.2620000000000005,18.312,0,1,1,100.0
27,66.0,1,20.0,2.0,6,2,17.415200000000002,-0.0030400000000000015,0.08331999999999987,0.2228000000000001,43.0,25.8616,0,19.0,3880.0,37.0,16.308,-0.2996,-1.02,0.1,11.234399999999999,5.418799999999999,19.308799999999998,0,1,1,100.0
27,67.0,1,20.0,2.0,6,2,17.5292,-0.0022199999999999932,0.09636000000000008,0.11079999999999902,43.0,25.891199999999998,0,19.0,3880.0,37.0,16.608600000000003,-0.3078000000000001,-1.02,0.1,11.735800000000003,5.547000000000001,20.70600000000001,0,1,1,100.0
27,68.0,1,20.0,2.0,6,2,18.074,0.001240000000000009,0.12803999999999985,-0.38920000000000105,43.0,25.9,0,19.0,3880.0,37.0,18.212000000000003,-0.33120000000000005,-1.0088,0.10120000000000005,13.4928,5.4296,25.479600000000005,0,1,1,100.0
27,69.0,1,20.0,2.0,6,2,18.242,0.0029200000000000046,0.10031999999999994,-0.5866000000000006,43.0,25.9,0,19.0,3880.0,37.0,18.716,-0.33960000000000007,-1.0004,0.10960000000000003,13.862400000000001,5.2867999999999995,26.3868,0,1,1,100.0
27,70.0,1,20.0,2.0,6,2,18.887999999999998,0.0072,0.1374,-1.0318,43.0,25.86,0,19.0,3880.0,37.0,20.496000000000002,-0.366,-0.974,0.11599999999999999,14.540000000000001,4.466,27.95,0,1,1,100.0
27,71.0,1,20.0,1.440000000000009,6,2,19.379599999999996,0.009279999999999995,0.07048000000000072,-1.3001199999999995,43.0,25.86,0,18.44000000000001,3880.0,37.0,21.693199999999997,-0.3828,-0.9572,0.12279999999999995,14.4372,3.5056000000000034,27.558800000000005,0,1,1,100.0
27,72.0,1,20.0,0.9600000000000137,6,2,19.936400000000003,0.010960000000000013,0.03856000000000118,-1.4438800000000007,43.0,25.86,0,17.960000000000015,3880.0,37.0,22.79480000000001,-0.39,-0.9307999999999997,0.13,13.798799999999993,2.125599999999988,25.62679999999998,0,1,1,100.0
27,73.0,1,20.0,1.0,6,2,20.6216,0.011,0.029680000000000113,-1.4398600000000001,43.0,25.86,0,18.0,3880.0,37.0,23.590600000000002,-0.3918,-0.9036,0.14,12.317399999999996,0.03779999999999455,21.045599999999986,0,1,1,100.0
27,74.0,1,20.0,1.0,6,2,21.618000000000002,0.010679999999999995,-0.03747999999999961,-1.3590400000000002,43.0,25.86,0,18.0,3880.0,37.32000000000001,23.508799999999997,-0.37679999999999997,-0.8667999999999999,0.15320000000000003,9.025199999999993,-3.187200000000005,10.445599999999976,0,1,1,100.0
27,75.0,1,20.0,0.0,1,5,22.29,0.011,-0.049,-1.365,43.0,25.76,0,19.0,3880.0,38.0,22.58,-0.36,-0.86,0.16,6.09,-4.91,0.91,0,1,1,100.0
27,76.0,1,20.0,0.0,1,6,22.6176,-0.018399999999999927,-2.6975199999999933,-2.2595999999999976,43.0,25.7012,0,19.0,3880.0,38.0,21.849200000000003,-0.34320000000000006,-0.8516,0.1684,4.4268000000000045,-5.245999999999999,-4.062799999999986,0,1,1,100.0
27,77.0,1,20.0,0.0,1,6,23.488000000000003,-0.11780000000000042,-2.1698799999999943,-3.4152000000000045,43.0,25.5292,0,19.0,3880.0,38.0,18.89679999999998,-0.2927999999999997,-0.85,0.17360000000000014,-0.5444000000000244,-3.8675999999999813,-18.84200000000008,0,1,1,100.0
27,78.0,1,20.0,0.0,1,6,23.8048,-0.15104000000000012,-1.790799999999999,-3.798880000000002,43.0,25.4892,0,19.0,3880.0,38.0,17.271199999999993,-0.26959999999999995,-0.8552000000000001,0.18,-2.496000000000007,-2.115599999999992,-25.853200000000026,0,1,1,100.0
27,79.0,1,20.0,0.0,1,6,24.1692,-0.19724000000000008,-1.0823599999999987,-4.3718400000000015,43.0,25.4484,0,19.0,3880.0,38.0,14.170799999999993,-0.2255999999999999,-0.8872000000000001,0.18,-5.165200000000004,2.1548000000000096,-39.88440000000003,0,1,1,100.0
27,80.0,1,20.0,0.0,1,6,24.218,-0.2184,-0.7544,-4.6052,43.0,25.432000000000002,0,19.0,3880.0,38.0,12.336,-0.198,-0.924,0.19,-6.032,5.49,-49.49,0,1,1,100.0
27,81.0,1,20.0,0.0,1,6,24.158,-0.22871999999999998,-0.7049600000000008,-4.655439999999999,43.0,25.3976,0,19.0,3880.0,38.0,11.409600000000005,-0.18920000000000003,-0.9423999999999998,0.19,-6.186400000000001,7.717199999999988,-55.041199999999975,0,1,1,100.0
27,82.0,1,20.0,0.0,1,6,23.8224,-0.24156000000000008,-0.3761999999999972,-5.148240000000005,43.0,25.339599999999997,0,19.0,3880.0,38.0,10.07559999999999,-0.17239999999999986,-0.9852000000000003,0.19,-5.619599999999993,12.822800000000045,-64.33600000000007,0,1,1,100.0
27,83.0,1,20.0,0.0,1,6,22.689199999999996,-0.25720000000000004,-0.4499599999999985,-5.02084,43.0,25.4,0,19.0,3880.0,38.0,9.134799999999998,-0.17,-1.0588000000000002,0.17559999999999992,-2.6699999999999866,22.974800000000037,-73.21840000000002,0,1,1,100.0
27,84.0,1,20.0,0.0,1,6,21.597599999999996,-0.26672000000000007,-0.41619999999999946,-4.70196,43.0,25.4436,0,19.0,3880.0,38.0,9.1928,-0.18,-1.0912000000000002,0.16879999999999998,-0.0227999999999929,28.95080000000001,-74.3776,0,1,1,100.0
27,85.0,1,20.0,0.0,3,7,20.572000000000003,-0.27480000000000004,-0.303,-4.4966,43.0,25.47,0,19.0,3880.0,38.0,9.448,-0.184,-1.104,0.152,1.8820000000000001,31.754,-73.036,0,1,1,100.0
27,86.0,1,20.0,0.0,3,7,18.935200000000002,-0.28447999999999996,-0.27296000000000015,-4.5088799999999996,43.0,25.47,0,19.0,3880.0,38.0,9.7696,-0.19,-1.11,0.12840000000000001,3.705199999999999,32.0452,-69.38360000000002,0,1,1,100.0
27,87.0,1,20.0,0.0,3,7,18.358399999999996,-0.28615999999999997,-0.20631999999999945,-4.57496,43.0,25.47,0,19.0,3880.0,38.0,9.8032,-0.19,-1.11,0.12279999999999995,3.9684000000000017,31.04839999999999,-67.96119999999999,0,1,1,100.0
27,88.0,1,20.0,0.0,3,7,17.154399999999992,-0.28952,-0.16123999999999988,-4.522319999999999,43.0,25.503600000000002,0,19.0,3880.0,38.0,9.710799999999999,-0.19,-1.11,0.11159999999999991,4.0832,27.90399999999997,-65.08279999999998,0,1,1,100.0
27,89.0,1,20.0,0.0,3,7,13.757999999999997,-0.293,0.01880000000000018,-4.341119999999999,43.0,25.54,0,19.0,3880.0,38.0,8.134399999999998,-0.15479999999999997,-1.0824,0.09239999999999998,2.0043999999999977,15.262399999999989,-58.5708,0,1,1,100.0
27,90.0,1,20.0,0.8,3,7,12.018,-0.2928,-0.028199999999999996,-4.175,43.0,25.548,0,19.8,3880.0,38.0,6.732,-0.126,-1.068,0.09,0.306,9.612,-56.135999999999996,0,1,1,100.0
27,91.0,1,20.0,0.0,3,7,9.312000000000003,-0.29156,0.06995999999999987,-3.9700800000000007,43.0,25.5976,0,19.0,3880.0,38.0,4.302400000000002,-0.08120000000000005,-1.0456,0.09439999999999998,-2.2963999999999976,4.5252000000000026,-52.73480000000001,0,1,1,100.0
27,92.0,1,20.0,0.0,3,7,6.8103999999999845,-0.28887999999999997,0.10984000000000156,-3.82764,43.0,25.62,0,19.0,3880.0,38.0,2.41679999999999,-0.04439999999999986,-1.0244,0.1,-4.374000000000012,3.4144,-48.91079999999997,0,1,1,100.0
27,93.0,1,20.0,0.0,3,7,4.89599999999999,-0.28575999999999996,0.053,-3.6531999999999987,43.0,25.627200000000002,0,19.0,3880.0,38.0,1.4835999999999967,-0.02759999999999991,-1.0175999999999998,0.09,-5.853600000000008,3.6136000000000013,-44.925199999999975,0,1,1,100.0
27,94.0,1,20.0,0.0,3,7,3.066399999999995,-0.28315999999999997,0.09716000000000022,-3.4690799999999995,43.0,25.65,0,19.0,3880.0,38.0,1.007599999999999,-0.02,-1.0008,0.09,-7.358000000000004,3.7476000000000003,-39.94039999999998,0,1,1,100.0
27,95.0,1,20.0,0.0,3,7,2.1479999999999997,-0.2806,0.2098,-3.377,43.0,25.682000000000002,0,19.0,3880.0,38.0,0.87,-0.012,-1.0,0.082,-8.166,3.678,-36.93,0,1,1,100.0
27,96.0,1,20.0,0.0,3,7,-0.28760000000001673,-0.27159999999999995,0.3363599999999988,-3.048879999999997,43.0,25.72,0,19.0,3880.0,38.0,0.5579999999999973,-0.01,-0.9871999999999999,0.07,-10.230400000000012,3.4652000000000016,-27.508399999999927,0,1,1,100.0
27,97.0,1,20.0,0.0,3,7,-1.372400000000006,-0.26511999999999997,0.3534000000000009,-2.8244799999999985,43.0,25.7392,0,19.0,3880.0,38.0,0.36839999999999884,-0.005199999999999932,-0.98,0.07,-10.988800000000003,3.674000000000002,-22.753999999999973,0,1,1,100.0
27,98.0,1,20.0,0.0,3,7,-3.142800000000007,-0.2469599999999999,0.7806000000000044,-2.4297599999999986,43.0,25.8156,0,19.0,3880.0,38.0,0.07879999999999927,0.0,-0.97,0.07,-12.083600000000004,4.726800000000006,-14.498399999999966,0,1,1,100.0
27,99.0,1,20.0,0.0,3,7,-4.245600000000001,-0.22643999999999997,0.9821600000000005,-1.9114,43.0,25.834799999999998,0,19.0,3880.0,38.0,0.1452000000000005,-0.0016000000000000228,-0.96,0.06839999999999999,-12.953600000000002,5.590800000000001,-9.054799999999991,0,1,1,100.0
27,100.0,1,20.0,0.0,3,7,-5.39,-0.193,1.619,-1.328,43.0,25.9,0,19.0,3880.0,38.0,0.47,-0.01,-0.96,0.05,-14.16,5.9,-3.34,0,1,1,100.0
35,0.0,1,20.0,0.0,0,1,-7.1,-0.091,2.069,-0.302,44.0,25.9,0,39.0,3880.0,44.0,-3.55,0.06,-1.01,0.03,-2.0,17.22,-1.67,0,1,1,100.0
35,1.0,1,20.0,0.0,0,1,-7.6978,0.04724,27.09286,0.0,44.0,25.924599999999998,0,2.0,3880.0,44.0,-5.289,0.0936,-1.01,0.0182,-1.1523999999999999,15.9688,-4.0258,0,1,1,100.0
35,2.0,1,20.0,0.18000000000000008,0,1,-8.065199999999999,0.0855,1.5376400000000001,0.0,44.0,25.9,0,2.18,3880.0,44.0,-7.5758,0.1336,-1.01,0.01,-0.5296,12.532399999999999,-6.4402,0,1,1,100.0
35,3.0,1,20.0,1.0,0,1,-8.2448,0.11896000000000001,1.6135599999999999,0.0,44.0,25.9,0,3.0,3880.0,44.0,-9.373600000000001,0.16620000000000001,-1.0046,0.01,-0.16499999999999984,9.290799999999999,-7.4454,0,1,1,100.0
35,4.0,1,20.0,1.0,0,1,-8.4748,0.16324000000000002,1.26948,0.0,44.0,25.9,0,3.0,3880.0,44.0,-12.0836,0.2144,-1.0,0.01,0.19200000000000003,4.097199999999999,-7.595599999999999,0,1,1,100.0
35,5.0,1,20.0,1.0,0,1,-8.671,0.2013,1.1734,0.0,44.0,25.9,0,3.0,3880.0,44.0,-13.959999999999999,0.249,-1.0,0.02,0.232,-0.03099999999999986,-6.082,0,1,1,100.0
35,6.0,1,20.0,1.0,0,1,-8.906,0.23472,0.4174799999999995,0.0,44.0,25.9,0,3.0,3880.0,44.0,-14.7536,0.26,-0.9936,0.02,0.1664,-2.8256,-3.0659999999999994,0,1,1,100.0
35,7.0,1,20.0,0.0,0,1,-9.241200000000001,0.20762,-0.9222400000000001,0.0,44.0,25.9,0,2.0,3880.0,44.0,-13.911800000000001,0.2474,-1.0,0.017400000000000006,0.1174,-4.1972,1.8945999999999987,0,1,1,100.0
35,8.0,1,20.0,0.0,0,1,-9.5028,0.17696,-1.0404799999999998,0.0,44.0,25.9,0,2.0,3880.0,44.0,-12.5684,0.2256,-1.01,0.01,0.10880000000000001,-4.3904,7.257600000000002,0,1,1,100.0
35,9.0,1,20.0,0.0,0,1,-9.741999999999999,0.14231999999999997,-1.2267599999999999,0.0,44.0,25.9,0,2.0,3880.0,44.0,-11.207999999999998,0.20379999999999998,-1.01,0.003799999999999983,0.2072000000000001,-3.8567999999999993,13.783000000000007,0,1,1,100.0
35,10.0,1,20.0,0.0,0,1,-9.852,0.1217,-0.9334,0.0,44.0,25.9,0,2.0,3880.0,44.0,-10.485,0.191,-1.0190000000000001,0.0,0.302,-3.306,17.878,0,1,1,100.0
35,11.0,1,20.0,0.0,0,1,-9.9302,0.07529999999999998,-0.86608,0.0,43.019999999999996,25.9,0,2.0,3880.0,44.0,-8.870399999999998,0.16019999999999998,-1.02,0.0,0.3806,-1.7597999999999994,27.233000000000004,0,1,1,100.0
35,12.0,1,20.0,0.0,0,1,-9.7792,0.047239999999999976,-0.9243999999999993,0.0,44.0,25.9252,0,2.0,3880.0,44.0,-7.700399999999999,0.1384,-1.02,0.0,0.028399999999999412,-0.782799999999999,32.321200000000005,0,1,1,100.0
35,13.0,1,20.0,0.0,0,1,-9.450899999999999,0.023299999999999984,-0.8378799999999993,0.0,43.0,25.9,0,2.0,3880.0,44.0,-6.5379999999999985,0.11829999999999997,-1.02,0.0,-0.5527000000000005,0.01950000000000059,35.4468,0,1,1,100.0
35,14.0,1,20.0,0.0,0,1,-9.1196,0.01032000000000001,-0.6933599999999995,0.0,43.0,25.9,0,2.0,3880.0,44.0,-5.712400000000001,0.10480000000000002,-1.02,0.0,-0.9555999999999998,0.46599999999999964,36.6584,0,1,1,100.0
35,15.0,1,20.0,0.0,6,2,-8.023,-0.0135,-0.33899999999999997,0.0,43.0,25.9,0,2.0,3880.0,44.0,-3.6340000000000003,0.063,-1.02,-0.007,-1.574,1.185,37.109,0,1,1,100.0
35,16.0,1,20.0,0.0,6,2,-7.0287999999999995,-0.013359999999999997,0.0699600000000009,0.6749600000000008,43.0,25.86,0,18.0,3880.0,44.0,-2.105199999999999,0.04119999999999999,-1.02,-0.01,-1.7252,1.2848,35.343199999999996,0,1,1,100.0
35,17.0,1,20.0,0.030000000000001137,6,2,-6.443499999999999,-0.01,0.0494799999999999,0.9561200000000001,43.0,25.86,0,18.03,3880.0,44.0,-1.2995999999999992,0.01969999999999999,-1.02,-0.01,-1.7609000000000001,1.1130999999999998,33.581199999999995,0,1,1,100.0
35,18.0,1,20.0,1.0,6,2,-4.625999999999998,-0.008759999999999997,0.08659999999999997,0.9867599999999995,43.0,25.86,0,19.0,3880.0,44.0,0.7320000000000019,-0.012400000000000034,-1.0176,-0.01,-1.9932000000000005,0.39159999999999945,26.194799999999994,0,1,1,100.0
35,19.0,1,20.0,1.0,6,2,-3.3180000000000005,-0.006580000000000002,0.061560000000000156,0.7028800000000001,43.0,25.8832,0,19.0,3880.0,44.0,1.8263999999999994,-0.03419999999999999,-1.01,-0.01,-2.5511999999999992,0.20839999999999997,20.037800000000004,0,1,1,100.0
35,20.0,1,20.0,1.0,6,2,-2.032,-0.0054,0.0298,0.5374,43.0,25.875999999999998,0,19.0,3880.0,44.0,2.566,-0.046,-1.01,-0.01,-3.516,0.422,13.842,0,1,1,100.0
35,21.0,1,20.0,1.0,6,2,-1.0254999999999996,-0.005,-0.03269999999999996,0.57653,43.0,25.8756,0,19.0,3880.0,44.0,2.879,-0.05,-1.01,-0.02,-4.4016,0.7463000000000001,9.381999999999998,0,1,1,100.0
35,22.0,1,20.0,1.0,6,2,0.29040000000000116,-0.006,-0.0482800000000001,0.8086400000000002,43.0,25.8616,0,19.0,3880.0,44.0,2.9508,-0.05,-1.0196,-0.029600000000000022,-5.0760000000000005,1.0376,4.827599999999996,0,1,1,100.0
35,23.0,1,20.0,1.0,6,2,1.2346000000000013,-0.009140000000000002,-0.12104000000000013,1.1163600000000007,43.0,25.86,0,19.0,3880.0,44.0,2.8087999999999997,-0.05,-1.02,-0.04,-4.497399999999998,0.9047999999999994,3.074999999999999,0,1,1,100.0
35,24.0,1,20.0,1.0,6,2,1.9612000000000007,-0.012480000000000007,-0.14860000000000037,1.582280000000001,43.0,25.83,0,19.0,3880.0,44.0,2.6588,-0.05,-1.0216,-0.05,-3.0759999999999983,0.4339999999999992,3.007200000000001,0,1,1,100.0
35,25.0,1,20.0,1.0,6,2,2.3699999999999997,-0.0175,-0.32699999999999996,2.3095,43.0,25.795,0,19.0,3880.0,44.0,2.565,-0.05,-1.03,-0.05,-1.83,-0.08999999999999998,3.77,0,1,1,100.0
35,26.0,1,20.0,1.0,6,2,3.106000000000001,-0.027680000000000007,-0.019839999999998904,3.3338000000000005,43.0,25.65,0,19.0,3880.0,44.0,2.4808000000000003,-0.04680000000000007,-1.0368000000000002,-0.056800000000000066,1.6628000000000083,-1.9552000000000045,8.098800000000011,0,1,1,100.0
35,27.0,1,20.0,1.0,6,2,3.3281,-0.028,-0.01915000000000006,3.34891,43.0,25.65,0,19.0,3880.0,44.0,2.6581,-0.05,-1.04,-0.06,3.2218000000000013,-2.6901000000000006,10.090100000000001,0,1,1,100.0
35,28.0,1,20.0,1.0,6,2,3.6985333333333332,-0.028,-0.022,3.3881733333333335,43.0,25.65,0,19.0,3880.0,44.0,3.4186666666666663,-0.06346666666666666,-1.03,-0.05,6.090533333333332,-3.552,12.512133333333333,0,1,1,100.0
35,29.0,1,20.0,1.0,6,2,4.090800000000001,-0.027,-0.05083999999999942,3.2351799999999997,43.0,25.6588,0,19.0,3880.0,44.0,4.591400000000002,-0.08220000000000005,-1.02,-0.04,8.437800000000003,-3.4005999999999985,12.137199999999996,0,1,1,100.0
35,30.0,1,20.0,1.0,6,2,4.41,-0.026,-0.0366,3.113,43.0,25.69,0,19.0,3880.0,44.0,5.314,-0.094,-1.02,-0.03,9.186,-2.684,10.168,0,1,1,100.0
35,31.0,1,20.0,1.0,6,2,4.696400000000001,-0.025,0.09362999999999982,3.03738,43.0,25.69,0,19.0,3880.0,44.0,5.739300000000001,-0.1,-1.0171,-0.02,9.1907,-1.9368999999999985,8.090999999999996,0,1,1,100.0
35,32.0,1,20.0,1.0,6,2,4.850533333333333,-0.025,0.04890666666666665,3.0448933333333335,43.0,25.69,0,19.0,3880.0,44.0,5.8904000000000005,-0.10253333333333335,-1.01,-0.017466666666666658,8.996533333333334,-1.5662666666666663,7.051599999999999,0,1,1,100.0
35,33.0,1,20.0,1.0,6,2,4.966799999999999,-0.025,0.028560000000000023,3.02164,43.0,25.69,0,19.0,3880.0,44.0,5.977600000000001,-0.1098,-1.01,-0.010200000000000008,8.7858,-1.2974000000000003,6.3104000000000005,0,1,1,100.0
35,34.0,1,20.0,1.0,6,2,5.788,-0.025,-0.06863999999999976,2.9966399999999993,43.0,25.69,0,19.0,3880.0,44.0,6.2124,-0.11,-1.01,0.0,6.261599999999998,0.00040000000000076997,2.808399999999998,0,1,1,100.0
35,35.0,1,20.0,1.0,6,2,6.011,-0.025,-0.0011999999999999977,2.9728499999999998,43.0,25.7095,0,19.0,3880.0,44.0,6.2365,-0.11,-1.01,0.0,5.3765,0.2475,2.183,0,1,1,100.0
35,36.0,1,20.0,1.0,6,2,6.2376000000000005,-0.025,0.0310399999999993,2.96752,43.0,25.7044,0,19.0,3880.0,44.0,6.2648,-0.11,-1.01,0.01,4.277199999999996,0.5024000000000008,1.5315999999999979,0,1,1,100.0
35,37.0,1,20.0,1.0,6,2,6.5694,-0.024660000000000005,-0.007160000000000289,2.93728,43.0,25.72,0,19.0,3880.0,44.0,6.2468,-0.11,-1.0166,0.01,2.433599999999999,0.8760000000000002,0.6713999999999996,0,1,1,100.0
35,38.0,1,20.0,1.0,6,2,6.7288,-0.025,-0.001879999999999927,2.96512,43.0,25.6948,0,19.0,3880.0,44.0,6.1848,-0.11,-1.02,0.01,1.4440000000000008,1.0235999999999998,0.4112000000000002,0,1,1,100.0
35,39.0,1,20.0,1.0,6,2,6.8504,-0.025,0.011680000000000154,3.04813,43.0,25.7197,0,19.0,3880.0,44.0,6.1198,-0.11,-1.02,0.009899999999999978,0.7879999999999996,1.0395999999999999,0.47110000000000024,0,1,1,100.0
35,40.0,1,20.0,1.0,6,2,6.898,-0.0252,0.0644,3.0776,43.0,25.69,0,19.0,3880.0,44.0,6.096,-0.11,-1.02,0.0,0.5579999999999999,0.988,0.61,0,1,1,100.0
35,41.0,1,20.0,1.0,6,2,6.9876000000000005,-0.026,0.035560000000000765,3.09868,43.0,25.69,0,19.0,3880.0,44.0,6.1114,-0.11,-1.02,0.0,0.22479999999999972,0.8047999999999997,1.0404000000000007,0,1,1,100.0
35,42.0,1,20.0,1.0,6,2,7.0256,-0.025439999999999997,0.002960000000000037,3.0432799999999998,43.0,25.69,0,19.0,3880.0,44.0,6.1824,-0.11,-1.02,0.0,0.18560000000000001,0.7812000000000001,1.0819999999999999,0,1,1,100.0
35,43.0,1,20.0,1.869999999999999,6,2,7.0387,-0.025,0.030879999999999973,3.02843,43.0,25.69,0,19.869999999999997,3880.0,44.0,6.2348,-0.11,-1.02,0.0,0.21609999999999996,0.8248,0.9643,0,1,1,100.0
35,44.0,1,20.0,2.0,6,2,7.0492,-0.025,0.021560000000000197,2.9984800000000003,43.0,25.69,0,20.0,3880.0,44.0,6.2984,-0.11,-1.02,0.0,0.3528000000000004,0.9360000000000002,0.6143999999999992,0,1,1,100.0
35,45.0,1,20.0,2.0,6,2,7.06,-0.025050000000000003,-0.1026,3.0485,43.0,25.69,0,20.0,3880.0,44.0,6.2475,-0.11,-1.02,0.0,0.862,0.977,0.2625,0,1,1,100.0
35,46.0,1,20.0,2.0,6,2,7.06,-0.026280000000000005,-0.052239999999999884,3.1636400000000005,43.0,25.6788,0,20.0,3880.0,44.0,6.186,-0.11,-1.02,-0.002800000000000068,1.168400000000002,0.8947999999999994,0.35480000000000106,0,1,1,100.0
35,47.0,1,20.0,2.0,6,2,7.06,-0.02748666666666667,-0.10852000000000016,3.338286666666667,44.0,25.65,0,20.0,3880.0,44.0,6.0805333333333325,-0.11,-1.02,-0.01,1.8503333333333347,0.651866666666666,0.900333333333335,0,1,1,100.0
35,48.0,1,20.0,2.0,6,2,7.05,-0.03,-0.042439999999999964,3.6344800000000004,44.0,25.62,0,19.679999999999996,3880.0,44.0,6.02,-0.11,-1.02,-0.01,2.9048000000000016,0.21879999999999927,2.1632000000000025,0,1,1,100.0
35,49.0,1,20.0,2.0,6,2,7.05,-0.030820000000000004,-0.06898000000000018,3.7641000000000004,44.0,25.5872,0,19.0,3880.0,44.0,6.0446,-0.11,-1.02,-0.01,3.489800000000002,-0.02120000000000073,2.928200000000002,0,1,1,100.0
35,50.0,1,20.0,2.0,6,2,7.05,-0.033,-0.052,4.02,44.0,25.58,0,19.0,3880.0,44.0,6.15,-0.11,-1.02,0.0,4.33,-0.37,4.03,0,1,1,100.0
35,51.0,1,20.0,2.0,6,2,7.0818,-0.03717999999999999,-0.0014399999999997377,4.5946,44.0,25.47,0,19.0,3880.0,44.0,6.4079999999999995,-0.11179999999999995,-1.02,0.0,5.449399999999998,-0.8433999999999994,5.564599999999999,0,1,1,100.0
35,52.0,1,20.0,2.0,6,2,7.1036,-0.03845333333333334,-0.06124000000000012,4.708666666666668,44.0,25.4564,0,19.0,3880.0,44.0,6.535333333333334,-0.12,-1.02,0.0,5.865066666666668,-1.0180000000000007,6.154000000000003,0,1,1,100.0
35,53.0,1,20.0,2.0,6,2,7.1362000000000005,-0.039,-0.04845999999999954,4.842880000000001,44.0,25.44,0,19.0,3880.0,44.0,6.649400000000001,-0.12,-1.02,0.0,6.202000000000003,-1.202600000000002,6.6322000000000045,0,1,1,100.0
35,54.0,1,20.0,2.0,6,2,7.2586666666666675,-0.042146666666666666,-0.08748000000000004,5.127093333333334,44.0,25.4,0,19.0,3880.0,44.0,7.024533333333333,-0.12573333333333334,-1.02,0.01,6.938933333333334,-2.1422666666666674,7.889333333333334,0,1,1,100.0
35,55.0,1,20.0,2.0,6,2,7.4415000000000004,-0.044,0.004600000000000004,5.317200000000001,44.0,25.37,0,19.0,3880.0,44.0,7.4185,-0.13,-1.02,0.01,7.316000000000001,-3.632,8.991,0,1,1,100.0
35,56.0,1,20.0,2.0,6,2,7.667999999999999,-0.044,-0.043000000000000344,5.30736,44.0,25.3724,0,19.0,3880.0,44.0,7.7604,-0.14,-1.03,0.02,7.397600000000001,-4.971199999999999,9.968799999999998,0,1,1,100.0
35,57.0,1,20.0,2.0,6,2,7.8843000000000005,-0.04386999999999999,-0.006679999999999562,5.245019999999999,44.0,25.4,0,19.0,3880.0,44.0,8.0282,-0.1413000000000001,-1.03,0.02130000000000007,7.264399999999999,-5.6169,10.715500000000002,0,1,1,100.0
