gait_percent,walk_dt_ms_mean,walk_dt_ms_sd,walk_exec_ms_mean,walk_exec_ms_sd,walk_tilt_forward_deg_mean,walk_tilt_forward_deg_sd,walk_pos_rad_mean,walk_pos_rad_sd,walk_vel_rad_s_mean,walk_vel_rad_s_sd,walk_tq_nm_mean,walk_tq_nm_sd,walk_temp_c_mean,walk_temp_c_sd,walk_vbus_v_mean,walk_vbus_v_sd,walk_fb_age_ms_mean,walk_fb_age_ms_sd,walk_typical_stride_ms_mean,walk_typical_stride_ms_sd,walk_effective_step_count_mean,walk_effective_step_count_sd,walk_tilt_accel_deg_mean,walk_tilt_accel_deg_sd,walk_acc_x_mean,walk_acc_x_sd,walk_acc_y_mean,walk_acc_y_sd,walk_acc_z_mean,walk_acc_z_sd,walk_gyr_x_mean,walk_gyr_x_sd,walk_gyr_y_mean,walk_gyr_y_sd,walk_gyr_z_mean,walk_gyr_z_sd,cfg_assist_pct_mean,cfg_assist_pct_sd
0.0,20.0,0.0,0.16666666666666666,0.408248290463863,2.1966666666666668,10.076341928828471,-0.05566666666666666,0.154365367445767,0.25933333333333336,0.94986370952188,1.5016666666666667,2.5146002995837464,43.0,0.8944271909999159,25.77,0.2992657681727058,23.0,13.856406460551018,3880.0,0.0,27.5,11.640446726822816,1.2666666666666664,9.637768759763157,-0.023333333333333334,0.17165857586111644,-1.0183333333333333,0.022286019533929058,0.018333333333333337,0.03544949458972112,-4.7299999999999995,4.020064676096641,1.3099999999999998,11.998849944890553,-2.5166666666666666,3.2292269456739437,100.0,0.0
1.0,20.0,0.0,0.0,0.0,1.8778999999999997,10.272905659451954,-0.0267,0.15534536645809555,5.595316666666666,10.853009463660607,0.5092333333333333,0.6406293207984367,43.0,0.8944271909999159,25.867833333333333,0.07421422145833337,26.189999999999998,19.22479128625328,3880.0,0.0,27.5,11.640446726822816,0.7042499999999997,9.379579416103901,-0.012650000000000002,0.16745062257274532,-1.0179333333333334,0.01720542550088975,0.011366666666666669,0.03861614515544848,-3.8340250000000005,3.5102008355292154,2.409216666666667,11.582992208650866,-0.7856416666666665,5.51839109473193,100.0,0.0
2.0,20.0,0.0,0.19666666666666668,0.40008332465458585,1.6505999999999998,10.356490356872834,-0.027553333333333336,0.16750698930691418,0.09928666666666663,0.8691596130209152,0.24583333333333335,0.38669699593695667,43.0,0.8944271909999159,25.89833333333333,0.02228601953392907,36.196666666666665,32.043471513970935,3880.0,0.0,27.5,11.640446726822816,0.1384000000000003,9.32449848431539,-0.0013333333333333391,0.1665760446963088,-1.0210333333333332,0.013827749877209484,0.006233333333333334,0.04203244778342878,-2.782683333333333,2.6533530834901464,2.2415333333333334,10.262606734483528,1.737916666666667,5.7093894666300935,100.0,0.0
3.0,20.0,0.0,0.16666666666666666,0.408248290463863,1.382016666666666,10.445250556911818,-0.02042749999999999,0.1803753130489314,0.12413333333333317,5.9872589630804045,0.0025300000000000023,0.0061972090492414455,43.0,0.8944271909999159,25.91764166666667,0.0201735077928132,15.065000000000003,13.491232338077946,3880.0,0.0,27.5,11.640446726822816,-0.2698000000000002,9.459545975362666,0.004233333333333329,0.16825739706374476,-1.0207666666666666,0.014377992442155041,0.0011333333333333308,0.043387309972694396,-1.6269749999999996,2.2637648720107837,2.4377999999999993,7.674417535227021,6.247075000000002,7.058453625671136,100.0,0.0
4.0,20.0,0.0,0.16666666666666666,0.408248290463863,1.151566666666666,10.376137499795703,-0.03183999999999999,0.18883089238787176,0.0047666666666663264,0.8248002775621902,0.0,0.0,43.0,0.8944271909999159,25.9124,0.014729562111618173,11.5,7.661592523751182,3880.0,0.0,27.5,11.640446726822816,-0.10079999999999985,10.120281529680883,0.0020333333333333267,0.1806256866192255,-1.0188,0.017499714283381894,-0.002533333333333335,0.043045402387092015,-0.20276666666666635,3.5111523496804677,1.411033333333333,5.675496714003688,11.337966666666667,10.815896050104525,100.0,0.0
5.0,20.0,0.0,0.16666666666666666,0.408248290463863,1.014875,10.384194992571643,-0.03608333333333332,0.19306982847318913,-0.17725,0.8938315624322067,0.0,0.0,43.0,0.8944271909999159,25.914500000000004,0.01592168332809126,11.5,7.661592523751182,3880.0,0.0,27.5,11.640446726822816,0.4394166666666666,10.867320407610455,-0.008124999999999993,0.19371149617407843,-1.0166666666666668,0.017511900715418277,-0.003166666666666668,0.04054832507843779,0.8322083333333334,4.582471435853874,0.6462916666666667,3.958279987622991,14.770166666666666,12.447987763757908,100.0,0.0
6.0,20.0,0.0,0.16666666666666666,0.408248290463863,0.9700500000000002,10.415654462730606,-0.03719333333333332,0.19680110199555964,-0.2074300000000001,0.7936793587085404,0.0,0.0,43.0,0.8944271909999159,25.91,0.015491933384830256,11.5,7.661592523751182,3880.0,0.0,27.5,11.640446726822816,1.0917499999999996,11.480309567908,-0.018483333333333334,0.20230114598456103,-1.0138,0.019052348936548495,-0.0027333333333333337,0.03573271143737439,1.3611500000000003,5.229056647522572,-0.165183333333334,3.185711737377797,17.079833333333333,12.524463940411449,100.0,0.0
7.0,20.0,0.0,0.0,0.0,1.1051749999999998,10.577742727999675,-0.04344999999999999,0.18133296291628834,-0.28378499999999995,0.7224296305038991,0.0,0.0,43.0,0.8944271909999159,25.915000000000003,0.01643167672515561,11.333333333333334,7.890923055426828,3880.0,0.0,27.5,11.640446726822816,2.270366666666667,11.83349011554354,-0.03997500000000001,0.20919104605599162,-1.0105666666666666,0.02038447121381047,-0.0020999999999999994,0.03154774159904319,1.1382333333333332,5.5323532170918615,-1.0874750000000002,2.466927646233265,17.875675,11.62243986638563,100.0,0.0
8.0,20.0,0.0,0.0,0.0,1.3190666666666662,10.746878615610518,-0.05241333333333333,0.16720247781258107,-0.44780000000000003,0.6603774813847002,0.0,0.0,43.0,0.8944271909999159,25.910200000000003,0.015344054223053804,11.333333333333334,7.890923055426828,3880.0,0.0,27.5,11.640446726822816,3.1650666666666667,11.88431872118325,-0.054200000000000005,0.21125859035788344,-1.0066,0.021701612843288868,-0.0025999999999999994,0.026663833182796505,0.5986666666666666,5.899613609946559,-1.5126,2.501130173341643,17.7038,12.058081717420894,100.0,0.0
9.0,20.0,0.0,0.0,0.0,1.6005583333333335,10.945666046084938,-0.06150416666666666,0.15121986656576134,-0.47976416666666655,0.605679855900926,0.0,0.0,43.0,0.8944271909999159,25.915000000000003,0.01643167672515561,11.333333333333334,7.890923055426828,3880.0,0.0,27.5,11.640446726822816,4.029541666666667,12.033411466014808,-0.06900833333333334,0.2120908258663412,-1.0024333333333333,0.02795551227694938,-0.0011833333333333338,0.026705386472894697,-0.04825000000000008,5.951041541696713,-1.7902083333333334,2.7295328102839624,16.850824999999997,13.769739508275022,100.0,0.0
10.0,20.0,0.0,0.0,0.0,2.0429999999999997,11.06502957971645,-0.07206666666666667,0.14300175756495676,-0.30295,0.5249232924913887,0.005066666666666666,0.012410748030101434,43.0,0.8944271909999159,25.90816666666667,0.030307864765877334,11.333333333333334,7.890923055426828,3880.0,0.0,27.5,11.640446726822816,4.776,11.981961759244601,-0.07983333333333333,0.20853720691202007,-0.9993333333333334,0.03804032947631594,0.0,0.03075060975005211,-0.5783333333333334,5.53961232097217,-1.5058333333333334,2.757303060359283,15.916166666666669,16.082594621722787,100.0,0.0
11.0,20.0,0.0,0.0400000000000001,0.09797958971132736,2.4705166666666663,11.21661180507138,-0.057774444444444455,0.1126713567202649,0.1764005555555553,1.0578896088857843,-0.8093511111111112,1.982497244976835,42.836666666666666,0.7537019746999913,25.81198333333333,0.2431191018136314,11.373333333333333,7.834555932959229,3880.0,0.0,27.5,11.640446726822816,5.403461111111112,11.514816302822235,-0.09151666666666668,0.20027455571456565,-0.9990888888888888,0.036801006427461674,-0.002933333333333333,0.034762431829011425,-0.8060277777777777,4.560659876300391,-0.881822222222222,2.5066716839193286,14.4321,20.221482752360174,100.0,0.0
12.0,20.0,0.0,0.3333333333333333,0.5163977794943223,2.956400000000001,11.319647451753964,-0.056499999999999995,0.10614572247622604,-0.12005333333333346,0.5503665877455375,-0.7098466666666662,1.7387621289488289,43.0,0.8944271909999159,25.856399999999997,0.16350266052881093,11.666666666666666,7.840068026915752,3880.0,0.0,27.5,11.640446726822816,5.636066666666667,10.687624611421692,-0.09720000000000001,0.18722444284868361,-1.0002000000000002,0.03132155807107942,-0.003333333333333334,0.038297084310253526,-1.065333333333334,3.333689479640636,-0.32919999999999944,2.3941971046678674,11.193733333333332,26.678715424147896,100.0,0.0
13.0,20.0,0.0,0.3333333333333333,0.5163977794943223,3.2926333333333333,11.253593826092475,-0.06223000000000001,0.09902887578883243,-0.2475933333333331,0.5325658201073988,-0.5807433333333333,1.4225248381897118,42.833333333333336,0.752772652709081,25.873333333333335,0.11085907570725399,11.666666666666666,7.840068026915752,3880.0,0.0,27.5,11.640446726822816,5.814150000000001,9.91079470108225,-0.10080000000000001,0.17404582155283133,-1.0032333333333334,0.02742857390873008,-0.002716666666666668,0.042427275032302834,-1.5302999999999998,2.80874126825523,0.11766666666666686,2.158167052539415,10.002650000000001,28.935720442508426,100.0,0.0
14.0,20.0,0.0,0.16666666666666666,0.408248290463863,3.691833333333333,11.086347672279931,-0.06152666666666665,0.08121451364544802,0.33699666666666833,1.4697026374837452,-0.7840300000000009,1.3315747621369225,42.833333333333336,0.752772652709081,25.837833333333336,0.1280969892958716,14.166666666666666,6.853223086013374,3880.0,0.0,27.5,11.640446726822816,5.669733333333333,8.893515176051967,-0.09983333333333333,0.1565118994411181,-1.0072333333333334,0.024901218176359728,-0.006333333333333334,0.041101370617859775,-1.926300000000001,3.8256537820351695,0.6941666666666669,1.7246001666086737,8.829333333333333,29.216405980658653,100.0,0.0
15.0,20.0,0.0,0.18333333333333335,0.40207793606049397,4.18125,10.552673271498554,-0.051845833333333334,0.05256753374628361,0.27129583333333335,1.3935343417383608,-1.1801333333333333,1.7911438654297616,42.833333333333336,0.752772652709081,25.79516666666667,0.18128476678051753,15.116666666666665,6.5557354024294385,3880.0,0.0,27.5,11.640446726822816,5.774874999999999,7.806103746027848,-0.10208333333333335,0.1389879191392787,-1.0123333333333333,0.023166067138525426,-0.010583333333333333,0.04239860453678478,-1.7043750000000004,5.134282032938003,0.9710416666666667,1.5347036229893598,8.260916666666667,27.81850038808107,100.0,0.0
16.0,20.0,0.0,0.3233333333333334,0.5012650662739893,4.363,9.947139300924663,-0.04474666666666666,0.04953258913752306,0.3284666666666666,0.5587615304820707,-1.72206,1.843752536584018,42.833333333333336,0.752772652709081,25.77333333333333,0.17806365902863708,18.323333333333334,0.807010945815896,3880.0,0.0,27.5,11.640446726822816,5.722000000000001,7.064125687443563,-0.10109999999999998,0.1251707154249747,-1.015,0.02428991560298226,-0.01570000000000001,0.041613026806518176,-0.8854666666666665,5.909793888340495,0.8061333333333333,1.53776674260652,9.250466666666666,24.775549034858273,100.0,0.0
17.0,20.0,0.0,0.41500000000000054,0.48562331080787285,4.701158333333333,9.443862111785446,-0.0407075,0.04469906394433781,-0.008919166666666435,0.4048548083994633,-1.9842800000000003,2.0568451402281114,42.833333333333336,0.752772652709081,25.754566666666665,0.19613605142009582,18.415000000000003,0.7973894907759945,3880.0,0.0,27.5,11.640446726822816,5.976533333333333,6.443465808605387,-0.10879166666666668,0.11406273894952139,-1.0143833333333332,0.020730114969933662,-0.018483333333333327,0.03878919523097465,-0.38346666666666646,6.496535285724744,0.34603333333333297,2.1894589511262064,6.9522249999999985,24.436927096297314,100.0,0.0
18.0,20.0,0.0,0.6400000000000006,0.4995998398718722,5.011300000000001,8.646508108595052,-0.043128333333333324,0.040701848811407405,-0.15991333333333316,0.7997505013856923,-2.00316,2.0178029506173294,42.833333333333336,0.752772652709081,25.76086666666667,0.1863494208916852,18.64,0.8059776671843955,3880.0,0.0,27.5,11.640446726822816,6.348133333333333,5.422092104959732,-0.11145000000000004,0.0952119687854421,-1.0119333333333334,0.01750230461015539,-0.016933333333333325,0.035536272548857266,0.34064999999999984,7.133070942518377,-0.31490000000000024,2.690895071161268,5.200116666666663,22.87822447642445,100.0,0.0
19.0,20.0,0.0,0.6666666666666666,0.5163977794943223,5.405816666666667,7.856525682619938,-0.05117666666666667,0.04291035383991453,-0.3007199999999998,0.9642890438867383,-1.9492700000000003,2.030755816094097,42.833333333333336,0.752772652709081,25.765533333333334,0.1891531302058372,18.666666666666668,0.816496580927726,3880.0,0.0,27.5,11.640446726822816,6.5791,4.860691401025168,-0.11811666666666666,0.08627014354147482,-1.0124333333333333,0.016691634631355524,-0.013150000000000002,0.036779545946082584,0.34895000000000037,7.289949134184682,-0.5635500000000001,2.9195089270286534,3.671550000000002,20.061045477815956,100.0,0.0
20.0,20.0,0.0,0.6666666666666666,0.5163977794943223,5.674166666666667,7.179323600915803,-0.0577,0.05588556164162619,-0.11673333333333331,0.48287495137630276,-1.9340333333333335,2.0560540748401213,42.833333333333336,0.752772652709081,25.762833333333333,0.1851879225723598,18.666666666666668,0.816496580927726,3880.0,0.0,27.5,11.640446726822816,6.655166666666667,4.310153520081004,-0.11716666666666668,0.07599056959035554,-1.0113333333333334,0.01686020956769717,-0.012833333333333334,0.04043966699500215,0.39566666666666644,7.426131527697761,-0.5244999999999999,2.918651589347382,3.523666666666666,18.919387111285253,100.0,0.0
21.0,20.0,0.0,0.6666666666666666,0.5163977794943223,5.921516666666666,6.6838281903162855,-0.060645,0.06227642948981581,-0.04112166666666666,0.28390726052122467,-1.9786016666666664,2.064823029244072,42.833333333333336,0.752772652709081,25.759966666666667,0.18842089763788472,18.666666666666668,0.816496580927726,3880.0,0.0,27.5,11.640446726822816,6.776066666666666,3.883582693682042,-0.11921666666666668,0.07037068755289141,-1.0097666666666667,0.016053992234539887,-0.013366666666666664,0.0426990241886939,0.4794333333333327,7.558403777959118,-0.4038166666666665,2.8634574901099312,3.99903333333333,19.780779391486742,100.0,0.0
22.0,20.0,0.0,0.7433333333333337,0.42339894504670933,6.352399999999999,6.111988993445587,-0.06204833333333332,0.06627405598472652,-0.10666500000000023,0.22451849222280132,-2.00649,2.0187587555029944,42.833333333333336,0.752772652709081,25.761633333333336,0.18041748991344086,18.743333333333336,0.8736513415926669,3880.0,0.0,27.5,11.640446726822816,6.853216666666666,3.4973552078201413,-0.12243333333333334,0.06371793049579268,-1.0140666666666667,0.011135289249348996,-0.013266666666666671,0.043635154023638635,0.23614999999999928,8.074074209654007,-0.27028333333333326,2.834663229674147,2.9396833333333316,20.654225672284756,100.0,0.0
23.0,20.0,0.0,0.8333333333333334,0.408248290463863,6.6202,5.660980305212162,-0.06357166666666665,0.06782586716487055,-0.05690833333333356,0.04371696989347123,-2.078333333333333,1.9990663991640363,42.833333333333336,0.752772652709081,25.75531666666667,0.18092913990473267,18.685,0.8266498654206625,3880.0,0.0,27.5,11.640446726822816,6.838133333333332,3.081200580726069,-0.12314999999999998,0.05477275782722648,-1.0166666666666666,0.010327955589886454,-0.018150000000000003,0.04660187764457566,0.6023166666666664,8.13103910762128,-0.27571666666666655,2.659185710262949,3.253183333333332,21.103752204801552,100.0,0.0
24.0,20.0,0.0,0.8333333333333334,0.408248290463863,6.739733333333333,4.759677210343854,-0.06443333333333333,0.06704147691292806,-0.02387666666666674,0.06973073975419074,-2.20087,1.9922466079378829,42.833333333333336,0.752772652709081,25.731366666666663,0.17490113397764567,18.62333333333333,0.5892933621437351,3880.0,0.0,27.5,11.640446726822816,6.8742666666666645,2.4382989436627054,-0.12193333333333334,0.041854159490624904,-1.0173666666666665,0.0048106825572538986,-0.022000000000000002,0.049363306210180063,1.531666666666667,7.753242684365467,-0.49490000000000073,2.432847601474453,5.091633333333335,19.086981896744874,100.0,0.0
25.0,20.0,0.0,0.8333333333333334,0.408248290463863,6.835624999999999,4.311601337525305,-0.059229166666666666,0.05231314465950854,0.41914583333333333,1.176751297048007,-2.6908958333333337,1.6455687968311037,42.833333333333336,0.752772652709081,25.678749999999997,0.1593874995098419,18.666666666666668,0.5163977794943222,3880.0,0.0,27.5,11.640446726822816,6.951666666666667,2.3517667117864103,-0.12291666666666667,0.03880775266189304,-1.0183333333333333,0.0075277265270908165,-0.02125,0.052285275173800126,2.030625,7.225913339761971,-1.015,2.666456567244252,5.692083333333333,17.3774273424367,100.0,0.0
26.0,20.0,0.0,1.0,0.6324555320336759,7.1037,3.7787302433489476,-0.04512666666666667,0.024021938861521284,0.09926000000000022,0.32864660606797713,-3.31954,1.766998304922786,42.833333333333336,0.752772652709081,25.618133333333333,0.1800161622373579,18.833333333333332,0.40824829046386296,3880.0,0.0,27.5,11.640446726822816,7.361633333333335,2.6923058174484313,-0.13116666666666668,0.04654914249120669,-1.0147666666666668,0.015395800293153593,-0.01780000000000001,0.05445218085623386,2.7061333333333337,6.557315421013897,-1.9678333333333349,3.0745670431243926,4.724600000000002,11.855127199992419,100.0,0.0
27.0,20.0,0.0,1.1316666666666662,0.4336088867478006,7.302700000000001,3.453080944895442,-0.04496000000000001,0.026509760466665866,-0.06945166666666693,0.32911914507768625,-3.394223333333333,1.8565229986904732,42.833333333333336,0.752772652709081,25.615266666666667,0.1861913710854149,18.965,0.08573214099741158,3880.0,0.0,27.5,11.640446726822816,7.552349999999998,2.8784668466042813,-0.13468333333333335,0.049217290322270554,-1.0166666666666664,0.016329931618554533,-0.0155,0.05807780987606195,2.84695,5.571844665727859,-2.480566666666667,3.1419793752770984,3.426933333333338,7.424568659165778,100.0,0.0
28.0,20.0,0.0,1.1599999999999995,0.41182520563948033,7.489022222222221,3.0171306099719364,-0.04700333333333335,0.034938941979783374,-0.16481555555555602,0.5281228723304072,-3.281428888888889,1.766703541701533,42.833333333333336,0.752772652709081,25.632966666666665,0.1643910662617237,18.993333333333332,0.016329931618555622,3880.0,0.0,27.5,11.640446726822816,7.729333333333333,2.757963551447174,-0.13717777777777776,0.04734917418811332,-1.0133333333333332,0.01751190071541828,-0.008977777777777788,0.05950818680061003,2.8511222222222234,4.4274970944800875,-2.746688888888889,2.9543906073403257,2.7488444444444506,5.301737543052028,100.0,0.0
29.0,20.0,0.0,1.0,0.6324555320336759,7.7139,2.4970986316122947,-0.050981666666666696,0.05106270475275151,-0.2747316666666665,0.779774124998173,-3.01974,1.6114738041432755,42.833333333333336,0.752772652709081,25.673600000000004,0.14352974604589755,18.833333333333332,0.40824829046386296,3880.0,0.0,27.5,11.640446726822816,7.822616666666666,2.3560280180139332,-0.1382166666666667,0.040877397992859894,-1.0153166666666664,0.013728279814553167,-0.003799999999999992,0.06371373478301207,2.5299833333333352,3.8128361435638234,-2.4006000000000003,2.223629511406969,1.899800000000005,6.740249906049475,100.0,0.0
30.0,20.0,0.0,1.0,0.6324555320336759,7.8745,2.2558430574842747,-0.05801666666666667,0.07116550896794505,-0.0853,0.30552296804004775,-2.8853000000000004,1.5410902517373861,42.833333333333336,0.752772652709081,25.692000000000004,0.12303495438289062,18.833333333333332,0.40824829046386296,3880.0,0.0,27.5,11.640446726822816,7.849166666666668,1.9989197499316143,-0.14033333333333334,0.03440155035266095,-1.016,0.01442220510185597,-0.003333333333333332,0.06562519841239847,2.6956666666666664,3.332771619338275,-2.058666666666667,1.6486987191924019,3.057833333333333,9.497681578504654,100.0,0.0
31.0,20.0,0.0,1.0,0.6324555320336759,8.038333333333334,2.11057656735468,-0.05730166666666667,0.07304586351510034,0.058968333333333255,0.06966435226618169,-2.7611966666666667,1.5052516493087351,42.833333333333336,0.752772652709081,25.711,0.12175588692133019,18.833333333333332,0.40824829046386296,3880.0,0.0,27.5,11.640446726822816,7.869716666666668,1.6491274097736262,-0.14108333333333337,0.030031078346717203,-1.0157833333333335,0.010340486771263082,-0.0016666666666666653,0.06493586579592718,2.490266666666667,3.702691741782816,-1.432766666666666,1.1916334648987774,3.152416666666666,11.24269055563065,100.0,0.0
32.0,20.0,0.0,1.0,0.6324555320336759,8.1148,2.001154303340394,-0.05686333333333334,0.07327471642160525,0.0421444444444444,0.038792702559268186,-2.7052622222222222,1.4942940174330808,42.833333333333336,0.752772652709081,25.717133333333333,0.11942406234367707,18.833333333333332,0.40824829046386296,3880.0,0.0,27.5,11.640446726822816,7.836511111111111,1.5093009594093802,-0.14003333333333337,0.02745202684279938,-1.014288888888889,0.008853741623784873,-0.002611111111111107,0.06510824377455905,2.314477777777778,3.917297508893751,-0.9263666666666666,1.0818608279770143,3.174577777777779,11.796811185752544,100.0,0.0
33.0,20.0,0.0,1.0,0.6324555320336759,8.203208333333333,1.9379574377206192,-0.05560166666666668,0.07193119501764632,0.05185333333333358,0.08460453266029395,-2.633948333333333,1.4422633907635134,42.833333333333336,0.752772652709081,25.724791666666665,0.11333606847189664,18.833333333333332,0.40824829046386296,3880.0,0.0,27.5,11.640446726822816,8.052891666666666,1.4539064785661648,-0.14393333333333336,0.02402354400721649,-1.0145083333333333,0.006111498725081005,-0.002983333333333333,0.06094247834365343,2.7596916666666673,4.634978788345927,-0.6193250000000002,1.097100575038588,3.9399583333333332,12.769412555337722,100.0,0.0
34.0,20.0,0.0,1.0,0.6324555320336759,8.3652,1.638841049034347,-0.05340333333333333,0.06828464004933074,0.08535888888888876,0.20235252383091418,-2.561138888888889,1.4016780433777962,42.833333333333336,0.752772652709081,25.7306,0.10983879096202677,18.833333333333332,0.40824829046386296,3880.0,0.0,27.5,11.640446726822816,8.211822222222224,1.5982993888180963,-0.1458,0.03015957559383091,-1.0139666666666667,0.0069861768276122714,-0.0009333333333333196,0.058679559189437215,2.5095222222222224,4.38239759085096,-0.06321111111111095,1.043809970288689,3.579888888888887,11.79339521865554,100.0,0.0
35.0,20.0,0.0,1.1666666666666667,0.752772652709081,8.427833333333334,1.5596952480105424,-0.052625000000000005,0.06551100480072031,0.01975,0.08687544532259965,-2.590383333333333,1.4159518334557382,42.833333333333336,0.752772652709081,25.731583333333333,0.10149404744450076,19.0,0.6324555320336759,3880.0,0.0,27.5,11.640446726822816,8.287916666666666,1.9678541210330267,-0.14808333333333332,0.035248286010339094,-1.0113333333333332,0.006772493386240163,-1.1564823173178713e-18,0.05621387729022079,2.6390833333333337,4.262283324893674,0.1611666666666667,1.0457682662361996,3.557833333333333,10.256708057006726,100.0,0.0
36.0,20.0,0.0,1.1666666666666667,0.752772652709081,8.506433333333334,1.5025980349603374,-0.05277666666666667,0.06522858810879373,-0.008030000000000289,0.047990306937963884,-2.639253333333333,1.4543003048155725,42.833333333333336,0.752772652709081,25.722866666666665,0.11319177826444266,19.0,0.6324555320336759,3880.0,0.0,27.5,11.640446726822816,8.4095,2.262200039784281,-0.14880000000000002,0.03997979489692264,-1.0108666666666666,0.009105309806188197,-2.8912057932946783e-19,0.051548191044885346,2.7152999999999996,4.000347660391531,0.24203333333333368,0.961795224913633,3.2414666666666636,8.787882915621179,100.0,0.0
37.0,20.0,0.0,1.2633333333333334,0.7642425443971742,8.557666666666668,1.3994665250253997,-0.05345333333333333,0.06519043815366381,-0.016008333333333378,0.0439980965118568,-2.722996666666667,1.5161269076916573,42.833333333333336,0.752772652709081,25.718866666666667,0.12667322790024174,19.096666666666668,0.6753270812477958,3880.0,0.0,27.5,11.640446726822816,8.404291666666667,2.4509869914825466,-0.147525,0.04405975204197137,-1.0127666666666666,0.011812140647091313,-0.0015666666666666622,0.0510639468379273,2.736725,3.603175857455475,0.27113333333333345,0.9240983533513447,3.433716666666666,7.243899825485348,100.0,0.0
38.0,20.0,0.0,1.3333333333333333,0.816496580927726,8.585066666666666,1.3908465719361955,-0.054290000000000005,0.0649520681733846,-0.012926666666666664,0.04037950899486842,-2.800136666666667,1.5601778010684124,42.833333333333336,0.752772652709081,25.699666666666662,0.13186621503124502,19.166666666666668,0.752772652709081,3880.0,0.0,27.5,11.640446726822816,8.451666666666666,2.607155451189412,-0.15,0.045166359162544856,-1.0133333333333334,0.012110601416389978,0.0005666666666666618,0.04913172769877595,2.8920333333333335,3.2983416497789713,0.24273333333333327,0.8669547500686912,3.6766666666666676,6.068194029418199,100.0,0.0
39.0,20.0,0.0,1.3333333333333333,0.816496580927726,8.703852777777778,1.5198704396689973,-0.05635583333333335,0.06849027656658038,-0.08294166666666657,0.18900120109847668,-2.8498249999999996,1.5811665867422067,42.833333333333336,0.752772652709081,25.70356111111111,0.13832503174554997,19.166666666666668,0.752772652709081,3880.0,0.0,27.5,11.640446726822816,8.569694444444444,2.7503614245256056,-0.155,0.048476798574163295,-1.0116666666666667,0.01169045194450013,0.0016499999999999952,0.04792008973280413,2.951094444444444,2.8938460629731475,0.18381666666666674,0.7673318719215738,3.5963583333333324,4.706792195797119,100.0,0.0
40.0,20.0,0.0,1.3333333333333333,0.816496580927726,8.735444444444445,1.6232634573142621,-0.05895,0.073973502012545,-0.14093333333333333,0.295012804241895,-2.9132499999999997,1.6170126205444408,42.833333333333336,0.752772652709081,25.68777777777778,0.1372444156591795,19.0,0.6324555320336759,3880.0,0.0,27.5,11.640446726822816,8.608111111111109,2.769315596690647,-0.15333333333333335,0.0496655480858378,-1.0133333333333334,0.008164965809277266,-1.1564823173178713e-18,0.047749345545253286,3.1602777777777775,2.7194783193895167,0.08516666666666665,0.7157347041094674,4.0168333333333335,4.190723871441146,100.0,0.0
41.0,20.0,0.0,1.3333333333333333,0.816496580927726,8.791608333333334,1.713729611816481,-0.06049916666666668,0.07672722075096078,-0.07897999999999984,0.15294742429998612,-2.92768,1.6274194656326315,42.833333333333336,0.752772652709081,25.693158333333333,0.15170677775454386,19.0,0.6324555320336759,3880.0,0.0,27.5,11.640446726822816,8.667433333333333,2.7800735534634096,-0.15365,0.04941593872426184,-1.0133333333333334,0.008164965809277266,0.001666666666666667,0.04665476038590989,3.2235,2.797069614435795,-0.024158333333333615,0.6692331644626309,4.408741666666667,4.1831353315924025,100.0,0.0
42.0,20.0,0.0,1.2399999999999995,0.7547184905645281,8.905299999999999,1.844477247352214,-0.060613333333333345,0.07846909472312438,-0.05022333333333345,0.12345413944727304,-2.88734,1.602569676039079,42.833333333333336,0.752772652709081,25.69236666666667,0.14614964477092138,18.813333333333333,0.40133111848779746,3880.0,0.0,27.5,11.640446726822816,8.757766666666667,2.8266374211537397,-0.15556666666666666,0.049796131041142826,-1.0133333333333334,0.008164965809277266,0.003266666666666671,0.04992821513599969,3.4112000000000005,3.0276562552575226,-0.16913333333333336,0.7836905783960065,4.786666666666667,4.798437658516226,100.0,0.0
43.0,20.0,0.0,1.271666666666667,0.8211800452194792,8.980675,2.006728057747237,-0.0553066666666667,0.06661453855328187,0.41466666666666446,0.9928417941176003,-3.1549583333333318,1.0159628448996898,42.833333333333336,0.752772652709081,25.641783333333333,0.10435919541021163,18.771666666666665,0.7722283772736307,3880.0,0.0,27.5,11.640446726822816,8.827225,2.8927671195155,-0.15748333333333334,0.05190762628618906,-1.0158166666666668,0.009197916430728606,0.0019333333333333366,0.05095906854198442,3.775691666666667,3.3808112246052224,-0.2672583333333332,1.0304805851721157,5.453108333333333,5.414012112511077,100.0,0.0
44.0,20.0,0.0,1.3966666666666676,0.6861389558002555,9.117199999999999,2.229835696189295,-0.03418999999999998,0.015857655564426865,0.2460066666666655,0.5859178942707438,-3.6089466666666667,0.9997895201424484,42.833333333333336,0.752772652709081,25.608733333333337,0.16040457183842008,18.73,0.8877612291601835,3880.0,0.0,27.5,11.640446726822816,8.903966666666667,3.011712630160233,-0.1591,0.05436230311530224,-1.0198666666666665,0.006332982446420226,0.005,0.053197744313081545,4.3504666666666685,4.080170533037397,-0.5448000000000007,1.7307350022461574,5.397733333333331,5.253761183254018,100.0,0.0
45.0,20.0,0.0,1.5,0.5477225575051661,9.240416666666667,2.392934023676095,-0.031275,0.011424830414496311,0.05276666666666666,0.18937637568257204,-3.6535000000000006,1.181838225392968,42.833333333333336,0.752772652709081,25.620500000000003,0.15374491861521802,18.833333333333332,0.752772652709081,3880.0,0.0,27.5,11.640446726822816,8.951,3.106434274212155,-0.16166666666666665,0.05810909280540066,-1.0222499999999999,0.009817076958035941,0.005,0.053197744313081545,5.0408333333333335,4.584114425564295,-0.8492500000000001,2.4784929644846687,5.268166666666667,5.673152462843447,100.0,0.0
46.0,20.0,0.0,1.5,0.5477225575051661,9.32931111111111,2.4746779506447716,-0.03071666666666666,0.010787106501127465,0.06794333333333337,0.1916963003990079,-3.6205199999999995,1.2827029968313,42.833333333333336,0.752772652709081,25.62155,0.17174431868332585,18.833333333333332,0.752772652709081,3880.0,0.0,27.5,11.640446726822816,9.031816666666666,3.079750490164206,-0.16252777777777777,0.05734128788487659,-1.0233333333333334,0.010327955589886454,0.006911111111111105,0.05214492056510146,5.779444444444445,4.9122611082730385,-1.0449833333333343,3.0010169918990255,5.914383333333332,6.8843643170351365,100.0,0.0
47.0,20.0,0.0,1.5,0.5477225575051661,9.424677777777777,2.602347336021135,-0.02972694444444444,0.010330293446228192,0.029992499999999922,0.14655514906512151,-3.5087961111111112,1.3356290832490663,43.120000000000005,0.773563184232548,25.63275,0.17072537596971382,18.833333333333332,0.752772652709081,3880.0,0.0,27.5,11.640446726822816,9.042097222222223,3.0370878272965633,-0.1633111111111111,0.056419093169547435,-1.0251583333333334,0.012175812772323125,0.008486111111111116,0.051800326486172596,6.565166666666667,5.333262313954232,-1.4146888888888889,3.5379726583747657,6.153280555555558,7.7050334174660495,100.0,0.0
48.0,20.0,0.0,1.5,0.5477225575051661,9.5908,2.7551835510542677,-0.02937666666666666,0.011664129057356431,0.01752333333333337,0.11573866867502244,-3.4677533333333326,1.4403431221575875,43.166666666666664,0.752772652709081,25.625,0.19764040072818975,18.779999999999998,0.6590902821313622,3880.0,0.0,27.5,11.640446726822816,9.340966666666668,3.304952604602171,-0.16940000000000002,0.05938821431900443,-1.0233,0.013643313380553874,0.009700000000000005,0.054175086525080886,7.398000000000001,5.260198726284019,-1.8098666666666678,3.5946140569839584,7.092966666666668,8.391343486633515,100.0,0.0
49.0,20.0,0.0,1.5,0.5477225575051661,9.799533333333333,2.9084317187561184,-0.028068333333333334,0.012798256782338237,0.05077999999999988,0.1085125476615492,-3.3714516666666667,1.57691196196131,43.166666666666664,0.752772652709081,25.641199999999998,0.21268718814258528,18.666666666666668,0.5163977794943222,3880.0,0.0,27.5,11.640446726822816,9.667783333333334,3.436643333496607,-0.17385000000000003,0.06096339065373579,-1.0198833333333333,0.01656748824253894,0.013450000000000009,0.0549819515841335,8.177933333333334,5.349042125340448,-2.3104666666666662,3.425429014688037,8.235783333333336,8.700482400744606,100.0,0.0
50.0,20.0,0.0,1.5,0.5477225575051661,9.999166666666666,3.009126811330268,-0.02766666666666667,0.013430065772983642,0.018333333333333337,0.07720794432353881,-3.3350833333333334,1.6631938677336044,43.166666666666664,0.752772652709081,25.641666666666662,0.22184829651513277,18.666666666666668,0.5163977794943222,3880.0,0.0,27.5,11.640446726822816,10.085833333333332,3.723759413102123,-0.18083333333333332,0.06468513481988476,-1.0158333333333334,0.01960017006728942,0.02,0.055497747702046435,8.565,5.0664010895309115,-2.966666666666667,3.002343529089679,9.394166666666667,8.434327724642117,100.0,0.0
51.0,20.0,0.0,1.5,0.5477225575051661,10.129991666666667,3.070723871079369,-0.02766416666666667,0.013598661852059811,0.02286416666666667,0.0941983477783272,-3.3168683333333338,1.6567656099571444,43.166666666666664,0.752772652709081,25.640325000000004,0.21484680065106804,18.666666666666668,0.5163977794943222,3880.0,0.0,27.5,11.640446726822816,10.348066666666666,3.872237285945513,-0.18394999999999997,0.06789879969483999,-1.015858333333333,0.021603250141278934,0.02427500000000001,0.054896554992094004,8.957775,4.480997155516836,-3.499024999999998,2.759652837178979,10.909375000000002,7.978774891532531,100.0,0.0
52.0,20.0,0.0,1.5,0.5477225575051661,10.378733333333335,3.153484426260366,-0.02636222222222222,0.013107792197631774,0.050253333333333046,0.1156822480187288,-3.128104444444445,1.5930003109139226,43.166666666666664,0.752772652709081,25.660666666666668,0.19023348460948358,18.666666666666668,0.5163977794943222,3880.0,0.0,27.5,11.640446726822816,10.833355555555556,4.244296147519853,-0.19386666666666671,0.07299212742937879,-1.0119999999999998,0.02821403905859636,0.031066666666666704,0.055495825668843514,9.06871111111111,3.7794662317238314,-4.377800000000005,3.56809070512509,12.4792,7.78192235787533,100.0,0.0
53.0,20.0,0.0,1.5,0.5477225575051661,10.704583333333334,3.306873525502098,-0.024860000000000004,0.013085003630110316,0.05335833333333335,0.11488625895496264,-2.9849050000000013,1.6247043255404974,43.166666666666664,0.752772652709081,25.68065,0.1945272191751052,18.666666666666668,0.5163977794943222,3880.0,0.0,27.5,11.640446726822816,11.346716666666667,4.6152569065726645,-0.2016083333333333,0.0768720652556354,-1.011008333333333,0.033194885399209756,0.03795833333333334,0.05771601525284528,8.597116666666667,3.6696272663128413,-5.197075000000002,5.718661752521306,13.028924999999996,8.14848469690837,100.0,0.0
54.0,20.0,0.0,1.4133333333333324,0.49098540372058563,11.03342777777778,3.4625377509320576,-0.024376111111111112,0.014235449088129983,0.04359833333333349,0.13771059485989692,-2.8867905555555553,1.7401574389774392,43.166666666666664,0.752772652709081,25.68395,0.2004704841117515,18.58,0.6711184694225018,3880.0,0.0,27.5,11.640446726822816,11.829705555555556,4.805393279519571,-0.2101722222222222,0.08074525762934706,-1.0049833333333333,0.034100581617718326,0.048316666666666674,0.05995446327561166,8.224955555555555,3.286615948943814,-5.934461111111111,7.713376761514642,13.97913888888889,7.860246251681562,100.0,0.0
55.0,20.0,0.0,1.3333333333333333,0.5163977794943222,11.298791666666666,3.486422121662359,-0.023016666666666668,0.01451401621422088,0.06719166666666668,0.08461515476950135,-2.7270000000000003,1.7472717487557572,43.166666666666664,0.752772652709081,25.703958333333333,0.2037902363133877,18.5,0.8366600265340756,3880.0,0.0,27.5,11.640446726822816,12.297749999999999,4.725082610388944,-0.21612499999999998,0.07972511367191645,-1.003875,0.03458458833064233,0.055125,0.060982733211951065,7.918750000000002,3.068391333418865,-6.039583333333333,8.359896473142873,15.126791666666664,8.130014407146932,100.0,0.0
56.0,20.0,0.0,1.1666666666666667,0.752772652709081,11.758533333333332,3.628122058953732,-0.02137666666666666,0.014507203268261819,0.008406666666666755,0.07827442357926792,-2.5072399999999995,1.7609075031244534,43.166666666666664,0.752772652709081,25.72453333333333,0.2038045599751547,18.333333333333332,1.2110601416389968,3880.0,0.0,27.5,11.640446726822816,12.897433333333334,4.627086690204395,-0.22610000000000005,0.07528163122568476,-0.9998333333333332,0.03684658283568058,0.06556666666666666,0.06864149376773981,7.312466666666666,2.9897381013504623,-5.741866666666666,8.516407286330702,15.529500000000004,8.44427104420506,100.0,0.0
57.0,20.0,0.0,1.3333333333333333,0.5163977794943222,12.166808333333334,3.7597659725595522,-0.019604166666666662,0.013968428836725577,0.02223166666666671,0.059012109407024824,-2.2883366666666665,1.6906055485259315,43.166666666666664,0.752772652709081,25.746666666666666,0.18315749142927945,18.5,0.8366600265340756,3880.0,0.0,27.5,11.640446726822816,13.326275,4.349890591928721,-0.23358333333333334,0.07363720979685924,-0.9983,0.03484022100963198,0.07342500000000006,0.07328902885152733,7.089975,2.8116970654304136,-4.9489249999999965,7.752167920378783,15.937100000000001,8.571126399896341,100.0,0.0
58.0,20.0,0.0,1.3333333333333333,0.5163977794943222,12.57035,3.7648697676015312,-0.01829166666666666,0.013704869815750404,0.015150000000000309,0.0401994741259139,-2.1563166666666667,1.6521582172378848,43.166666666666664,0.752772652709081,25.75916666666667,0.18594263273027706,18.5,0.8366600265340756,3880.0,0.0,27.5,11.640446726822816,14.134133333333333,4.098858671711755,-0.24856666666666669,0.06767681040553453,-0.9894833333333334,0.030524771361415123,0.0790166666666667,0.0703937615607141,6.57145,2.417866743846732,-4.047333333333331,7.200235700216111,15.92675,8.276194148943102,100.0,0.0
59.0,20.0,0.0,1.1799999999999993,0.4029888335921979,13.15038888888889,3.8227579087277745,-0.017042222222222222,0.012821306341254635,0.06797555555555565,0.04629502966682111,-2.009369444444444,1.5528478371222292,43.166666666666664,0.752772652709081,25.774711111111106,0.15759135152055134,18.346666666666668,0.8105964881904358,3880.0,0.0,27.5,11.640446726822816,15.018411111111112,3.94733045328199,-0.26295,0.06425037743079802,-0.9809388888888889,0.031160505035606776,0.08403333333333335,0.07334307511051516,6.328955555555556,1.7031158496077665,-2.4904833333333314,5.013342501133015,15.178511111111114,7.104327398288601,100.0,0.0
60.0,20.0,0.0,1.1666666666666667,0.408248290463863,13.594111111111111,3.8347768740924257,-0.01637777777777778,0.012757127274441385,0.05697777777777777,0.03851348200690631,-1.9356222222222221,1.5463160273037,43.166666666666664,0.752772652709081,25.78622222222222,0.14437092145914499,18.333333333333332,0.816496580927726,3880.0,0.0,27.5,11.640446726822816,15.641555555555556,3.9128699252405323,-0.27133333333333337,0.06424536299739202,-0.9744444444444443,0.03126849082572612,0.08766666666666667,0.07338028799798123,6.209111111111111,1.157072602478949,-1.5393333333333334,3.703100250690854,14.307888888888888,6.1011567925605235,100.0,0.0
61.0,20.0,0.0,1.1666666666666667,0.408248290463863,14.196205555555556,3.7043451574493584,-0.015343055555555556,0.011806287704094455,0.05833611111111112,0.07034263409015,-1.7857555555555553,1.4272113663593018,43.166666666666664,0.752772652709081,25.793466666666664,0.13137468046266232,18.333333333333332,0.816496580927726,3880.0,0.0,27.5,11.640446726822816,16.34438611111111,3.9034277949631324,-0.2841694444444445,0.06500833999202349,-0.9745666666666667,0.033981269350432886,0.09166666666666667,0.07026141662866375,6.059633333333333,0.8206443533386838,-0.5748694444444447,2.862654325784933,13.091788888888887,4.665313575392411,100.0,0.0
62.0,20.0,0.0,1.1666666666666667,0.408248290463863,14.678716666666666,3.6349504615148023,-0.01349333333333333,0.011261883797423352,0.09590000000000015,0.05623766424737054,-1.568688333333333,1.3602541986910626,43.166666666666664,0.752772652709081,25.809399999999997,0.11488672682255394,18.333333333333332,0.816496580927726,3880.0,0.0,27.5,11.640446726822816,16.59181666666667,3.8322187330144217,-0.29026666666666673,0.06395331630702712,-0.9751666666666665,0.0336307993759689,0.09166666666666667,0.07082843120291926,6.4524500000000025,2.006414664768978,0.22301666666667028,2.7898010154250543,12.835966666666671,3.6412808195285735,100.0,0.0
63.0,20.0,0.0,1.1666666666666667,0.408248290463863,15.277000000000003,3.63193928969084,-0.011932499999999999,0.010522544250322731,0.062390833333333374,0.021578630729651663,-1.3625408333333329,1.2869255290746882,43.166666666666664,0.752772652709081,25.825916666666668,0.10111788005425441,18.333333333333332,0.816496580927726,3880.0,0.0,27.5,11.640446726822816,16.983758333333334,3.8177433646614674,-0.297975,0.0612881534229903,-0.977575,0.03948270190855738,0.09406666666666667,0.0691088031054414,6.315491666666669,3.14953370333081,1.0963666666666692,2.3415593972108995,12.048491666666669,3.9948114176287093,100.0,0.0
64.0,20.0,0.0,1.253333333333334,0.4207929023482539,15.8208,3.6489663281537688,-0.010209999999999997,0.010336759647007369,0.053723333333333366,0.06952532593714833,-1.1510566666666662,1.2651649377637157,43.166666666666664,0.752772652709081,25.85166666666667,0.1000832986400162,18.42,0.8014985963805552,3880.0,0.0,27.5,11.640446726822816,17.129633333333334,3.733383358652934,-0.30133333333333334,0.06010692694412736,-0.9816666666666665,0.03855752412521668,0.09666666666666668,0.06772493386240158,6.6646333333333345,5.096452222347099,1.9210000000000014,2.7582179145237973,12.151833333333334,5.299394323756885,100.0,0.0
65.0,20.0,0.0,1.3333333333333333,0.5163977794943223,16.16859722222222,3.5635178508574405,-0.008972222222222222,0.009482011722007957,0.03519027777777777,0.037958315739720284,-0.9676680555555555,1.1683005261016328,43.166666666666664,0.752772652709081,25.85744444444444,0.09079051998153949,18.5,0.8366600265340756,3880.0,0.0,27.5,11.640446726822816,17.238,3.5873008272237215,-0.3056666666666667,0.05872534943843814,-0.98325,0.040241458721075214,0.09549999999999999,0.06497307134498106,6.727361111111111,6.0485422120326415,2.375291666666667,2.8312178405090394,12.221375,6.077264289443894,100.0,0.0
66.0,20.0,0.0,1.3333333333333333,0.5163977794943223,16.752133333333333,3.4577955096660453,-0.006584999999999996,0.008315878185736009,0.07880500000000001,0.03289195752763892,-0.6897516666666661,1.042477932014231,43.166666666666664,0.752772652709081,25.869466666666668,0.05804807203229496,18.5,0.8366600265340756,3880.0,0.0,27.5,11.640446726822816,17.230216666666667,3.4470618134386086,-0.30660000000000004,0.05502508518848471,-0.9902666666666665,0.038476313059682146,0.10063333333333335,0.06230896136725974,7.293333333333336,8.38757719455784,3.4636833333333357,4.049078515621389,12.926683333333337,7.250381094098894,100.0,0.0
67.0,20.0,0.0,1.3333333333333333,0.5163977794943223,17.077425,3.413199629929371,-0.005260833333333327,0.007872903159995467,0.08856166666666691,0.036907767565468576,-0.46315583333333277,0.9741946653334567,43.0,0.8944271909999159,25.875349999999997,0.05617920433754639,18.5,0.8366600265340756,3880.0,0.0,27.5,11.640446726822816,17.226766666666666,3.369828699306044,-0.3093833333333333,0.054660448833381024,-0.9957666666666668,0.035388227797767235,0.100675,0.058812700584142535,7.572516666666669,9.275055441056224,3.893725,4.950773703952748,13.745058333333338,7.70257515071529,100.0,0.0
68.0,20.0,0.0,1.3333333333333333,0.5163977794943223,17.445999999999998,3.385694563896749,-0.002859999999999991,0.00732892352259184,0.09516000000000002,0.04941153873337712,-0.20149999999999904,0.9179311272639136,43.0,0.8944271909999159,25.883266666666668,0.04098812836257205,18.5,0.8366600265340756,3880.0,0.0,27.5,11.640446726822816,17.47706666666667,3.332270708490933,-0.3131333333333333,0.056998760220435214,-0.9948,0.03260429419570375,0.10060000000000002,0.05567951149210992,7.918200000000003,10.114136121686322,4.050933333333338,6.045939488505224,15.28613333333334,8.477306759736058,100.0,0.0
69.0,20.0,0.0,1.2966666666666677,0.5644348205653735,17.993758333333336,3.3381371116861973,-0.0004924999999999973,0.006546362157717824,0.07685499999999994,0.0587985543189625,0.08452333333333369,0.8025590202014219,42.833333333333336,0.752772652709081,25.885966666666665,0.02379661040288464,18.463333333333335,0.7684963673737604,3880.0,0.0,27.5,11.640446726822816,17.5481,3.5105223782223636,-0.3143666666666666,0.05940591440813505,-0.9910833333333334,0.025891497961042467,0.10438333333333334,0.06009620342972314,7.869758333333334,11.495332924992503,4.9641083333333365,10.110885149501838,16.257775000000002,7.885926433320944,100.0,0.0
70.0,20.0,0.0,1.6666666666666667,0.5163977794943223,18.464666666666663,3.186386521856171,0.0020333333333333336,0.0056884678663649555,0.09954166666666665,0.02489386303221472,0.3544333333333333,0.717352422918238,42.833333333333336,0.752772652709081,25.886666666666667,0.02065591117977245,18.833333333333332,0.40824829046386296,3880.0,0.0,27.5,11.640446726822816,18.001166666666666,3.7467660944695576,-0.32116666666666666,0.06611933655646181,-0.9827499999999999,0.02106122028753322,0.10458333333333332,0.06254791496658116,7.85175,11.850259270370417,5.205416666666666,13.087906258896668,17.027,7.608925154054283,100.0,0.0
71.0,20.0,0.0,1.5733333333333348,0.49423341314268315,18.827972222222222,3.158881836235142,0.003582777777777777,0.005502762302967753,0.05962972222222232,0.059878062820448906,0.561971111111111,0.7077805722920588,42.833333333333336,0.752772652709081,25.886666666666667,0.02065591117977245,18.740000000000002,0.4261455150532492,3880.0,0.0,27.5,11.640446726822816,18.379155555555553,4.052864847633732,-0.3249222222222223,0.07154614568907934,-0.9782583333333333,0.022834894715471468,0.10636944444444445,0.06461103828695619,7.653008333333335,12.000527032777212,5.0415250000000045,14.800132109874903,17.126199999999997,7.606077812907257,100.0,0.0
72.0,20.0,0.0,1.4933333333333356,0.5552176750308511,19.279511111111113,2.9647255680129367,0.0050633333333333355,0.005439345957414775,0.0794511111111113,0.05868734993985447,0.7492655555555557,0.6301764754369,42.833333333333336,0.752772652709081,25.883022222222223,0.01974173995108526,18.66,0.5268775948927756,3880.0,0.0,27.5,11.640446726822816,18.90268888888889,4.454751862233644,-0.33038888888888884,0.07837714424971576,-0.9645444444444443,0.025961353043550253,0.10924444444444444,0.06896716986014807,7.63591111111111,11.835449560905603,5.230544444444452,17.17636731472983,16.287322222222205,8.466723275445066,100.0,0.0
73.0,20.0,0.0,1.5,0.8366600265340756,19.895241666666667,2.9265444015795588,0.0048433333333332785,0.009795714709334328,-0.1616483333333384,0.5861055102425512,1.0781025000000022,0.5980645786179765,42.833333333333336,0.752772652709081,25.857116666666666,0.031091504734680885,18.833333333333332,0.752772652709081,3880.0,0.0,27.666666666666668,11.69045194450012,19.2473,5.367803944258771,-0.33292499999999997,0.09305080198472235,-0.94705,0.032798521308132184,0.11395,0.0744769427406899,7.296016666666664,11.162469405363073,5.849200000000006,20.958819058429807,12.877741666666651,14.4837257784873,100.0,0.0
74.0,20.0,0.0,1.5,0.8366600265340756,20.48881666666667,2.6559585948705347,-0.004813333333333371,0.03547936339150793,-0.4903933333333332,1.3505922307886515,1.3331616666666666,0.4509703979826907,42.666666666666664,0.816496580927726,25.849200000000007,0.045911218672563224,18.833333333333332,0.752772652709081,3880.0,0.0,27.72,11.742163344120197,19.705066666666664,5.756190553714033,-0.33678333333333327,0.10054484405809513,-0.9310666666666666,0.04018351237344326,0.12100000000000001,0.07867940009939067,6.786366666666665,10.699775145612485,6.351133333333337,23.05172724762001,8.88488333333332,19.131936665420653,100.0,0.0
75.0,20.0,0.0,1.2916666666666667,1.0051948401512347,20.980833333333333,2.6135285853930634,-0.013812500000000004,0.06175960198624988,-0.4341041666666667,1.0784614168361177,1.5017708333333333,0.5791380255208309,42.666666666666664,0.816496580927726,25.814166666666665,0.05713288603480999,18.958333333333332,0.7144345083117603,3880.0,0.0,27.833333333333332,11.856081421222893,19.92083333333333,6.231761923137522,-0.339375,0.10896602107996785,-0.9241666666666667,0.03878358759406697,0.12291666666666666,0.07642670780994473,6.470833333333334,10.252581463546957,7.103958333333335,25.28978739551633,4.897916666666666,24.564822023407107,100.0,0.0
76.0,20.0,0.0,1.0,0.8944271909999159,21.431266666666662,2.2776695270970864,-0.024863333333333307,0.0764348971783613,-0.8123833333333325,1.2879545374222887,1.7456866666666662,0.7255949354472273,42.666666666666664,0.816496580927726,25.811066666666665,0.07347061090440576,18.666666666666668,1.0327955589886446,3880.0,0.0,27.833333333333332,11.856081421222893,20.445966666666667,6.652394651451962,-0.34620000000000006,0.11741141341453988,-0.9129333333333335,0.03617328664452074,0.1267,0.07750589654987547,6.125200000000002,10.24440637147902,8.185266666666665,27.068558129510084,1.5111666666666757,28.366982519095437,100.0,0.0
77.0,20.0,0.0,1.0,0.8944271909999159,22.02136666666667,2.092418017191273,-0.04943166666666678,0.10211584449372536,-0.6040699999999984,0.9925427688316484,2.0002600000000026,1.0560370908637648,42.666666666666664,0.816496580927726,25.767433333333333,0.1337069133091726,18.666666666666668,1.0327955589886446,3880.0,0.0,27.833333333333332,11.856081421222893,20.47915,7.1674413648804975,-0.3448,0.12729361335118117,-0.9085,0.03286061472340407,0.12689999999999999,0.07601597200588836,4.971383333333325,10.756051958672698,10.155333333333354,30.589185567103097,-4.962950000000036,34.70526638570871,100.0,0.0
78.0,20.0,0.0,0.8333333333333334,0.752772652709081,22.457683333333335,1.9974074220515612,-0.05915000000000006,0.11688586005159059,-0.4797716666666663,0.793556426687268,2.2145100000000006,1.1724434358211064,42.666666666666664,0.816496580927726,25.755383333333338,0.14794418429484318,18.5,0.8366600265340756,3880.0,0.0,27.833333333333332,11.856081421222893,20.564133333333334,7.371900819372618,-0.3467333333333334,0.12856361330744662,-0.9143500000000001,0.03646443472755343,0.12319999999999996,0.07846935707650472,4.591749999999997,10.810884170270256,11.763300000000015,34.30901355055259,-9.262916666666683,38.12669690274347,100.0,0.0
79.0,20.0,0.0,0.8333333333333334,0.752772652709081,22.82635,2.0974901837672553,-0.07009833333333336,0.1321561552734744,-0.3397199999999996,0.5209783907226859,2.4020783333333338,1.2333730365857152,42.666666666666664,0.816496580927726,25.73993333333333,0.16267511999893106,18.5,0.8366600265340756,3880.0,0.0,27.833333333333332,11.856081421222893,20.032116666666667,7.356495566889624,-0.3397833333333333,0.12386054120125048,-0.9280666666666667,0.04633502634796559,0.11674999999999996,0.07800973657178957,4.190066666666665,10.791592049307027,12.887416666666676,38.96583620508698,-14.640333333333343,40.48251935854126,100.0,0.0
80.0,20.0,0.0,0.8333333333333334,0.752772652709081,23.025666666666666,2.3804760588308107,-0.07553333333333333,0.14127084153025585,-0.22360000000000002,0.33313975445749494,2.5495,1.3488578916994924,42.666666666666664,0.816496580927726,25.732,0.17220917513303277,18.5,0.8366600265340756,3880.0,0.0,27.933333333333334,11.738256542888584,19.617666666666665,6.97497302264795,-0.335,0.11488951214101313,-0.9420000000000001,0.05888293470947249,0.11266666666666668,0.08454742259032304,3.750666666666666,10.151405708898972,13.404333333333332,43.417420345601684,-18.532,40.75526223691856,100.0,0.0
81.0,20.0,0.0,0.7191666666666663,0.7740827905764778,23.222800000000003,2.679365891400425,-0.07896666666666666,0.14701847158322204,-0.20894750000000015,0.3254176999450092,2.5624725,1.3358746509974277,42.666666666666664,0.816496580927726,25.715433333333333,0.18207678233829377,18.5,0.8366600265340756,3880.0,0.0,28.048333333333332,11.741806363020412,19.319941666666665,6.6208594253628945,-0.33270833333333333,0.10640820652875731,-0.9484499999999999,0.06491877232357371,0.10508333333333336,0.09603841766015649,3.0133833333333357,9.239089811321607,13.898358333333329,45.88720402992992,-21.271383333333333,38.80809216894934,100.0,0.0
82.0,20.0,0.0,0.5399999999999977,0.8133879763065112,23.40223333333333,3.031213165494413,-0.09465999999999995,0.14424322015262975,-0.5577366666666673,0.9852399568362389,2.887426666666666,1.5158332906050938,42.666666666666664,0.816496580927726,25.6454,0.20515527777759007,18.5,0.8366600265340756,3880.0,0.0,28.166666666666668,11.940128419186566,17.91076666666667,6.838353397614565,-0.3089333333333334,0.11284330138145846,-0.9557333333333333,0.06491442572084168,0.1083999999999999,0.09971936622341723,2.553633333333329,8.72440178847046,15.085899999999995,45.72199679134761,-27.281833333333335,37.59067096020855,100.0,0.0
83.0,20.0,0.0,0.5,0.8366600265340756,23.43081666666667,3.3064950339697594,-0.12240499999999999,0.1382781335931318,-0.9136566666666667,1.1217316682007528,3.3724211111111106,1.2295422900171995,42.666666666666664,0.816496580927726,25.613433333333333,0.19233597340764536,18.5,0.8366600265340756,3880.0,0.0,28.166666666666668,11.940128419186566,16.762655555555554,7.077484595773231,-0.29025,0.11750623576833885,-0.9685777777777779,0.0777118714416464,0.10461666666666665,0.1032985656563859,2.5268277777777763,8.04127040074906,17.385022222222222,44.47672647304016,-32.93857222222222,37.16260451737541,100.0,0.0
84.0,20.0,0.0,0.3333333333333333,0.816496580927726,22.876133333333332,4.716121176842966,-0.1534866666666667,0.13723268978879144,-1.0908666666666689,1.0717268316631228,3.548066666666667,1.0040950067133414,42.666666666666664,0.816496580927726,25.581533333333336,0.1711269781965039,18.833333333333332,0.408248290463863,3880.0,0.0,28.333333333333332,11.860297916438132,15.78743333333333,7.379764417287766,-0.27669999999999995,0.13119169181011422,-0.9713333333333334,0.08986769534525006,0.0914,0.12426726037054169,0.5679666666666617,5.904886719884357,15.824199999999985,40.902698448097524,-37.15836666666666,29.00117167299738,100.0,0.0
85.0,20.0,0.0,0.3333333333333333,0.816496580927726,22.448208333333337,5.4227201301945005,-0.18114166666666667,0.12644542070263626,-0.8469625000000001,0.9406822933049712,3.597170833333333,1.0245439105300302,42.666666666666664,0.816496580927726,25.571375,0.17973854275029574,18.833333333333332,0.408248290463863,3880.0,0.0,28.333333333333332,11.860297916438132,14.431916666666668,6.992838911462688,-0.25345833333333334,0.125706246530022,-0.9774583333333334,0.09031727640195245,0.08825000000000001,0.1197688398541123,-0.6815000000000001,7.127213270276118,13.462541666666665,42.21456225060751,-42.0385,26.560672822803266,100.0,0.0
86.0,20.0,0.0,0.16333333333333258,0.40008332465458396,21.7833,6.0817839458500975,-0.2124233333333333,0.09009585510258883,-0.8872900000000014,1.3356245062591505,3.9937366666666656,1.218401104163431,42.666666666666664,0.816496580927726,25.514933333333335,0.20750304736718134,18.66333333333333,1.0276510432372776,3880.0,0.0,28.5,11.640446726822816,12.295933333333336,5.376470364343757,-0.21680000000000008,0.10307969732202363,-0.9884000000000001,0.09159205205693348,0.08619999999999998,0.09656848347157582,-1.1324333333333287,9.32140930496385,12.74350000000001,42.52289336924288,-51.0943,24.49378289043978,100.0,0.0
87.0,20.0,0.0,0.0,0.0,21.02565,6.447619883569442,-0.24065000000000006,0.04957800369115302,-0.39275333333333134,1.1000049766235898,4.2828258333333356,1.304427354621237,42.666666666666664,0.816496580927726,25.500083333333333,0.2263160658607037,18.5,0.8366600265340756,3880.0,0.0,28.5,11.640446726822816,10.122866666666654,4.335890932861046,-0.18318333333333314,0.08940219609532338,-1.0127666666666668,0.07911244318479017,0.08250000000000007,0.06671633233324491,-2.794283333333345,11.684473189094435,15.407975000000002,41.17533147533542,-60.49764166666669,26.66973032969056,100.0,0.0
88.0,20.0,0.0,0.0,0.0,19.90133333333333,6.415997125518892,-0.25217333333333336,0.03562259657389762,-0.06094999999999943,1.067782248794201,4.498803333333333,1.3548984427427269,42.666666666666664,0.816496580927726,25.4746,0.2487521175789261,18.5,0.8366600265340756,3880.0,0.0,28.5,11.640446726822816,9.054233333333327,4.878489006102878,-0.16826666666666654,0.0941592410051539,-1.0464666666666667,0.061752236126853495,0.06683333333333337,0.0454179553333993,-3.939400000000006,13.786860770458228,23.064966666666674,32.0933039621455,-66.52756666666669,29.623570843344787,100.0,0.0
89.0,20.0,0.0,0.0,0.0,17.973899999999997,6.929912052544392,-0.2461808333333333,0.04650051595591897,0.4195758333333337,1.6213773729468928,4.453336666666667,1.6658088443596017,42.666666666666664,0.816496580927726,25.479533333333332,0.2811457036247692,18.5,0.8366600265340756,3880.0,0.0,28.5,11.640446726822816,7.921883333333331,4.639420472178249,-0.14814999999999998,0.08798221979468343,-1.0689166666666667,0.038886625807167556,0.059566666666666664,0.042784794806878135,-5.557516666666668,13.445050081783508,27.703658333333337,22.953378264874562,-67.90346666666667,33.69925420039243,100.0,0.0
90.0,20.0,0.0,0.20000000000000004,0.33466401061363027,15.9685,6.418018627271193,-0.23891666666666667,0.07782689552247775,0.4989166666666667,1.6128610559086194,4.374016666666667,1.8988258249946641,42.666666666666664,0.816496580927726,25.4845,0.26993610355045133,18.7,0.8555699854482981,3880.0,0.0,28.5,11.640446726822816,8.2485,5.875082493037864,-0.157,0.10859650086443853,-1.0863333333333332,0.04007326623407006,0.036833333333333336,0.08493389586417585,-7.296666666666667,11.496596881976277,31.873499999999996,19.093015537101518,-66.13716666666666,33.09888259392855,100.0,0.0
91.0,20.0,0.0,0.09416666666666629,0.23066028411208167,13.671108333333331,6.222925844039659,-0.2332483333333333,0.09727518556480196,0.5775758333333335,1.4412512618499829,4.167991666666666,1.9301275634648254,42.666666666666664,0.816496580927726,25.522133333333333,0.23763295155905065,18.9275,0.507481526757378,3880.0,0.0,28.5,11.640446726822816,8.390691666666665,7.341922900604221,-0.16094999999999995,0.13726546178846302,-1.0859333333333334,0.04913681579698327,0.02335000000000004,0.11483528203474751,-8.906425,8.514805769467085,30.44095833333333,18.04294106320853,-59.37599166666666,29.486149408297063,100.0,0.0
92.0,20.0,0.0,0.1066666666666644,0.22438062899160757,11.030333333333322,5.513232050500562,-0.21823333333333328,0.13145575904716658,0.4957866666666635,0.9209930833761238,4.015679999999998,2.1924843800583846,42.666666666666664,0.816496580927726,25.546000000000003,0.2406585631138016,19.106666666666666,0.22438062899160724,3880.0,0.0,28.5,11.640446726822816,8.197600000000001,8.485068617282955,-0.15626666666666675,0.1593096439851232,-1.079,0.05359805966637225,0.018466666666666607,0.12417855960940545,-9.563199999999995,6.071166245788365,26.05926666666664,15.642548059273034,-51.667733333333295,21.67897771119904,100.0,0.0
93.0,20.0,0.0,0.27499999999999997,0.4386228448222929,8.619666666666662,4.387136857526408,-0.19675333333333334,0.14617960920274303,0.7378683333333332,0.8238438362800728,3.945318333333334,2.385619232068832,42.666666666666664,0.816496580927726,25.570966666666664,0.19238399794854696,19.275000000000002,0.4386228448222926,3880.0,0.0,28.5,11.640446726822816,6.4613000000000005,7.126694617562907,-0.12486666666666667,0.13726672818518953,-1.0771833333333334,0.045157254861945155,0.02901666666666661,0.09702946803248323,-11.03211666666666,5.064019573586436,17.971133333333327,13.820321290573037,-42.56748333333332,19.567802618425652,100.0,0.0
94.0,20.0,0.0,0.16333333333333258,0.2828898489989806,6.15897777777777,4.415647669855048,-0.17626666666666665,0.1446536226531042,0.7973372222222218,0.9711347268666163,3.468208333333332,2.1428668354745395,42.666666666666664,0.816496580927726,25.654300000000003,0.16166868589804181,19.16333333333333,0.2828898489989808,3880.0,0.0,28.5,11.640446726822816,3.7667166666666616,6.04346609369712,-0.07153888888888878,0.11571465367045825,-1.067988888888889,0.04391774972309872,0.04996111111111115,0.07090486401327306,-10.780327777777776,5.589090981006027,12.770644444444438,16.253471964061045,-35.841216666666654,20.193835577266302,100.0,0.0
95.0,20.0,0.0,0.15833333333333335,0.3638910093237626,3.7244999999999995,3.7003163513407875,-0.1459,0.15249602945650748,0.7461000000000001,1.2651508151204742,2.7685416666666662,1.7231365611630052,42.666666666666664,0.816496580927726,25.752333333333336,0.13597303654278894,19.158333333333335,0.3638910093237619,3880.0,0.0,28.5,11.640446726822816,1.0491666666666666,4.410869128263348,-0.019833333333333338,0.08385324481894942,-1.0599166666666668,0.03975979963061526,0.07300000000000001,0.03609016486523718,-10.964083333333333,7.511645588129586,7.421250000000001,18.239061197742604,-30.74275,18.899643194383327,100.0,0.0
96.0,20.0,0.0,0.0,0.0,1.7192333333333245,3.5893953683965654,-0.12794,0.15449309473241823,0.6993800000000009,1.2812161499450454,2.329053333333334,1.483908855134527,42.666666666666664,0.816496580927726,25.7826,0.12958388788734454,19.0,0.0,3880.0,0.0,28.5,11.640446726822816,-0.19640000000000066,3.818240801206762,0.004366666666666638,0.06952966752880885,-1.0453666666666666,0.0432866569125715,0.07593333333333324,0.03384427081008936,-10.841866666666661,8.382627462715176,2.2431333333333296,18.99915399281415,-26.45826666666663,15.57811292020525,100.0,0.0
97.0,20.0,0.0,0.0,0.0,0.13753333333333476,3.859699948268865,-0.10953166666666668,0.16473100283998351,0.3325233333333347,0.6740875898773586,2.0451766666666686,1.4431939687050603,42.666666666666664,0.816496580927726,25.7918,0.11226732383022146,19.0,0.0,3880.0,0.0,28.5,11.640446726822816,-0.9766333333333358,3.825591719285618,0.01761666666666669,0.06963580735991128,-1.0363666666666667,0.05216487962860328,0.07333333333333333,0.037771241264574124,-10.084733333333334,8.272468293240344,-1.72729999999999,19.876551705565014,-23.131999999999994,11.977718966147117,100.0,0.0
98.0,20.0,0.0,0.04333333333333181,0.10614455552060065,-1.30416666666667,4.131163739997083,-0.09680666666666661,0.1656986501654937,0.3504400000000021,0.6168241009558559,1.8071083333333327,1.2385233601739878,42.666666666666664,0.816496580927726,25.82506666666666,0.09123636701812728,19.043333333333333,0.10614455552060068,3880.0,0.0,28.5,11.640446726822816,-1.2643666666666664,3.9983867214998936,0.021950000000000008,0.07315856067474266,-1.0240333333333334,0.0584979201909493,0.07211666666666668,0.03997101032832004,-9.124166666666666,8.180599073825018,-2.374983333333329,19.261403456697188,-17.987933333333313,8.483228928342475,100.0,0.0
99.0,20.0,0.0,0.0,0.0,-2.601375000000007,4.453959072078463,-0.08206416666666659,0.16679077122001282,0.31267916666666656,0.6676294780970699,1.5435983333333316,1.0588960550246003,42.666666666666664,0.816496580927726,25.84651666666667,0.05366013107202157,19.0,0.0,3880.0,0.0,28.5,11.640446726822816,-1.103883333333329,4.014305527693012,0.01883333333333324,0.07206943642534379,-1.0095916666666664,0.0636909288412933,0.06704166666666667,0.043913260146186676,-8.310891666666665,7.992175049785678,-1.096591666666665,18.959366849618604,-11.907066666666628,4.677761117208342,100.0,0.0
100.0,20.0,0.0,0.0,0.0,-3.816666666666667,4.608260698643976,-0.07333333333333333,0.1496511499009168,0.4638333333333333,1.0084672362881535,1.1805,0.6732241083027256,42.666666666666664,0.816496580927726,25.875,0.029495762407505167,19.0,0.0,3880.0,0.0,28.5,11.640446726822816,-0.6866666666666665,4.035758499547101,0.013333333333333329,0.07004760286167305,-1.0033333333333332,0.06345602151621763,0.05833333333333334,0.04355073669487884,-6.728333333333333,5.818911983065792,-0.5566666666666672,18.472362779749282,-4.786666666666666,1.739697291676534,100.0,0.0
