t_ms,segment_id,packet_type,source_mode,frame_fid,note,walk_fid,walk_dt_ms,walk_exec_ms,walk_out,walk_state,walk_tilt_forward_deg,walk_pos_rad,walk_vel_rad_s,walk_tq_nm,walk_temp_c,walk_vbus_v,walk_err_code,walk_fb_age_ms,walk_typical_stride_ms,walk_effective_step_count,walk_tilt_accel_deg,walk_acc_x,walk_acc_y,walk_acc_z,walk_gyr_x,walk_gyr_y,walk_gyr_z,cfg_fid,cfg_robot_id,cfg_ble_target,cfg_gait_model,cfg_gait_mode,cfg_side_is_left,cfg_assist_pct
60,1,walk,walk,7912,,7912.0,20.0,2.0,6.0,2.0,4.04,0.006,0.005,-0.803,32.0,25.9,0.0,19.0,1641.0,49.0,3.6,-0.06,-1.02,0.0,2.22,0.48,1.72,330.0,,,0.0,1.0,1.0,100.0
80,1,walk,walk,7913,,7913.0,20.0,2.0,6.0,2.0,4.06,0.006,0.029,-0.817,32.0,25.9,0.0,19.0,1641.0,49.0,3.63,-0.06,-1.02,0.0,2.23,0.48,1.63,330.0,,,0.0,1.0,1.0,100.0
100,1,walk,walk,7914,,7914.0,20.0,2.0,6.0,2.0,4.08,0.006,0.029,-0.817,32.0,25.9,0.0,19.0,1641.0,49.0,3.65,-0.07,-1.02,0.0,2.23,0.5,1.54,330.0,,,0.0,1.0,1.0,100.0
120,1,walk,walk,7915,,7915.0,20.0,2.0,6.0,2.0,4.1,0.006,0.018,-0.804,32.0,25.9,0.0,19.0,1641.0,49.0,3.68,-0.07,-1.02,0.01,2.22,0.52,1.44,330.0,,,0.0,1.0,1.0,100.0
160,1,walk,walk,7916,,7916.0,20.0,2.0,6.0,2.0,4.12,0.006,-0.075,-0.804,32.0,25.9,0.0,19.0,1641.0,49.0,3.7,-0.07,-1.02,0.01,2.19,0.56,1.36,330.0,,,0.0,1.0,1.0,100.0
180,1,walk,walk,7917,,7917.0,20.0,2.0,6.0,2.0,4.14,0.006,-0.028,-0.79,32.0,25.9,0.0,19.0,1641.0,49.0,3.71,-0.07,-1.02,0.01,2.16,0.59,1.3,330.0,,,0.0,1.0,1.0,100.0
200,1,walk,walk,7918,,7918.0,20.0,2.0,6.0,2.0,4.16,0.006,0.022,-0.797,32.0,25.9,0.0,19.0,1641.0,49.0,3.72,-0.07,-1.02,0.01,2.13,0.63,1.25,330.0,,,0.0,1.0,1.0,100.0
200,1,walk,walk,7919,,7919.0,20.0,2.0,6.0,2.0,4.18,0.006,-0.076,-0.741,32.0,25.9,0.0,19.0,1641.0,49.0,3.73,-0.07,-1.02,0.01,2.1,0.68,1.23,330.0,,,0.0,1.0,1.0,100.0
220,1,walk,walk,7920,,7920.0,20.0,2.0,6.0,2.0,4.2,0.006,-0.019,-0.713,32.0,25.9,0.0,19.0,1641.0,49.0,3.74,-0.07,-1.02,0.01,2.06,0.72,1.22,330.0,,,0.0,1.0,1.0,100.0
380,1,walk,walk,7921,,7921.0,20.0,2.0,6.0,2.0,4.22,0.006,-0.018,-0.71,32.0,25.9,0.0,19.0,1641.0,49.0,3.76,-0.07,-1.02,0.01,2.03,0.77,1.22,330.0,,,0.0,1.0,1.0,100.0
400,1,walk,walk,7922,,7922.0,20.0,2.0,6.0,2.0,4.24,0.006,0.131,-0.702,32.0,25.9,0.0,19.0,1641.0,49.0,3.77,-0.07,-1.02,0.01,2.0,0.82,1.2,330.0,,,0.0,1.0,1.0,100.0
400,1,walk,walk,7923,,7923.0,20.0,2.0,6.0,2.0,4.25,0.006,0.003,-0.76,32.0,25.9,0.0,19.0,1641.0,49.0,3.79,-0.07,-1.02,0.01,1.97,0.87,1.17,330.0,,,0.0,1.0,1.0,100.0
400,1,walk,walk,7924,,7924.0,20.0,2.0,6.0,2.0,4.27,0.006,-0.04,-0.764,32.0,25.9,0.0,19.0,1641.0,49.0,3.81,-0.07,-1.02,0.01,1.94,0.92,1.12,330.0,,,0.0,1.0,1.0,100.0
400,1,walk,walk,7925,,7925.0,20.0,2.0,6.0,2.0,4.29,0.006,0.081,-0.801,32.0,25.9,0.0,19.0,1641.0,49.0,3.82,-0.07,-1.02,0.01,1.92,0.97,1.05,330.0,,,0.0,1.0,1.0,100.0
400,1,walk,walk,7926,,7926.0,20.0,2.0,6.0,2.0,4.3,0.006,0.064,-0.821,32.0,25.9,0.0,19.0,1641.0,49.0,3.84,-0.07,-1.02,0.01,1.89,1.01,0.95,330.0,,,0.0,1.0,1.0,100.0
400,1,walk,walk,7927,,7927.0,20.0,2.0,6.0,2.0,4.32,0.007,0.05,-0.894,32.0,25.9,0.0,19.0,1641.0,49.0,3.86,-0.07,-1.02,0.01,1.86,1.06,0.81,330.0,,,0.0,1.0,1.0,100.0
400,1,walk,walk,7928,,7928.0,20.0,2.0,6.0,2.0,4.33,0.007,-0.033,-0.934,32.0,25.9,0.0,19.0,1641.0,49.0,3.87,-0.07,-1.02,0.01,1.83,1.1,0.64,330.0,,,0.0,1.0,1.0,100.0
400,1,walk,walk,7929,,7929.0,20.0,2.0,6.0,2.0,4.34,0.007,-0.036,-0.984,32.0,25.9,0.0,19.0,1641.0,49.0,3.88,-0.07,-1.02,0.01,1.8,1.15,0.46,330.0,,,0.0,1.0,1.0,100.0
440,1,walk,walk,7930,,7930.0,20.0,2.0,6.0,2.0,4.36,0.007,0.015,-0.937,32.0,25.9,0.0,19.0,1641.0,49.0,3.88,-0.07,-1.02,0.01,1.77,1.2,0.29,330.0,,,0.0,1.0,1.0,100.0
440,1,walk,walk,7931,,7931.0,20.0,2.0,6.0,2.0,4.37,0.007,-0.05,-0.963,32.0,25.9,0.0,19.0,1641.0,49.0,3.87,-0.07,-1.02,0.01,1.76,1.26,0.14,330.0,,,0.0,1.0,1.0,100.0
460,1,walk,walk,7932,,7932.0,20.0,2.0,6.0,2.0,4.38,0.007,0.058,-0.935,32.0,25.9,0.0,19.0,1641.0,49.0,3.85,-0.07,-1.02,0.01,1.75,1.31,0.03,330.0,,,0.0,1.0,1.0,100.0
480,1,walk,walk,7933,,7933.0,20.0,2.0,6.0,2.0,4.39,0.007,0.06,-0.943,32.0,25.9,0.0,19.0,1641.0,49.0,3.82,-0.07,-1.02,0.01,1.75,1.37,-0.03,330.0,,,0.0,1.0,1.0,100.0
500,1,walk,walk,7934,,7934.0,20.0,2.0,6.0,2.0,4.39,0.007,0.019,-0.957,32.0,25.9,0.0,19.0,1641.0,49.0,3.8,-0.07,-1.02,0.01,1.74,1.4,-0.06,330.0,,,0.0,1.0,1.0,100.0
520,1,walk,walk,7935,,7935.0,20.0,2.0,6.0,2.0,4.4,0.007,-0.002,-0.939,32.0,25.9,0.0,19.0,1641.0,49.0,3.77,-0.07,-1.02,0.01,1.73,1.43,-0.04,330.0,,,0.0,1.0,1.0,100.0
540,1,walk,walk,7936,,7936.0,20.0,2.0,6.0,2.0,4.4,0.007,0.022,-0.955,32.0,25.9,0.0,19.0,1641.0,49.0,3.75,-0.07,-1.02,0.01,1.69,1.45,-0.01,330.0,,,0.0,1.0,1.0,100.0
580,1,walk,walk,7937,,7937.0,20.0,2.0,6.0,2.0,4.4,0.007,-0.046,-0.956,32.0,25.9,0.0,19.0,1641.0,49.0,3.73,-0.07,-1.02,0.01,1.66,1.47,0.04,330.0,,,0.0,1.0,1.0,100.0
600,1,walk,walk,7938,,7938.0,20.0,2.0,6.0,2.0,4.4,0.007,0.05,-0.95,32.0,25.9,0.0,19.0,1641.0,49.0,3.72,-0.07,-1.02,0.01,1.62,1.49,0.08,330.0,,,0.0,1.0,1.0,100.0
600,1,walk,walk,7939,,7939.0,20.0,2.0,6.0,2.0,4.4,0.008,0.058,-0.995,32.0,25.9,0.0,19.0,1641.0,49.0,3.72,-0.07,-1.02,0.01,1.59,1.52,0.1,330.0,,,0.0,1.0,1.0,100.0
620,1,walk,walk,7940,,7940.0,20.0,2.0,6.0,2.0,4.4,0.008,0.001,-1.073,32.0,25.86,0.0,19.0,1641.0,49.0,3.72,-0.07,-1.02,0.01,1.58,1.56,0.09,330.0,,,0.0,1.0,1.0,100.0
640,1,walk,walk,7941,,7941.0,20.0,2.0,6.0,2.0,4.39,0.009,0.089,-1.147,32.0,25.9,0.0,19.0,1641.0,49.0,3.72,-0.07,-1.02,0.01,1.58,1.6,0.04,330.0,,,0.0,1.0,1.0,100.0
660,1,walk,walk,7942,,7942.0,20.0,2.0,6.0,2.0,4.39,0.009,0.033,-1.219,32.0,25.9,0.0,19.0,1641.0,49.0,3.72,-0.07,-1.02,0.01,1.6,1.65,-0.05,330.0,,,0.0,1.0,1.0,100.0
680,1,walk,walk,7943,,7943.0,20.0,2.0,6.0,2.0,4.38,0.01,0.143,-1.328,32.0,25.86,0.0,19.0,1641.0,49.0,3.72,-0.07,-1.02,0.01,1.64,1.7,-0.17,330.0,,,0.0,1.0,1.0,100.0
700,1,walk,walk,7944,,7944.0,20.0,2.0,6.0,2.0,4.37,0.01,-0.009,-1.371,32.0,25.86,0.0,19.0,1641.0,49.0,3.71,-0.07,-1.02,0.01,1.68,1.75,-0.31,330.0,,,0.0,1.0,1.0,100.0
720,1,walk,walk,7945,,7945.0,20.0,2.0,6.0,2.0,4.37,0.011,-0.033,-1.432,32.0,25.86,0.0,19.0,1641.0,49.0,3.69,-0.07,-1.02,0.01,1.74,1.8,-0.46,330.0,,,0.0,1.0,1.0,100.0
740,1,walk,walk,7946,,7946.0,20.0,2.0,6.0,2.0,4.36,0.011,0.032,-1.461,32.0,25.86,0.0,19.0,1641.0,49.0,3.67,-0.07,-1.02,0.01,1.8,1.85,-0.61,330.0,,,0.0,1.0,1.0,100.0
760,1,walk,walk,7947,,7947.0,20.0,2.0,6.0,2.0,4.35,0.012,0.023,-1.458,32.0,25.86,0.0,19.0,1641.0,49.0,3.63,-0.06,-1.02,0.01,1.87,1.88,-0.74,330.0,,,0.0,1.0,1.0,100.0
780,1,walk,walk,7948,,7948.0,20.0,2.0,6.0,2.0,4.34,0.012,0.021,-1.475,32.0,25.86,0.0,19.0,1641.0,49.0,3.59,-0.06,-1.02,0.01,1.93,1.9,-0.82,330.0,,,0.0,1.0,1.0,100.0
800,1,walk,walk,7949,,7949.0,20.0,2.0,6.0,2.0,4.32,0.012,-0.045,-1.483,32.0,25.86,0.0,19.0,1641.0,49.0,3.55,-0.06,-1.02,0.01,1.99,1.91,-0.86,330.0,,,0.0,1.0,1.0,100.0
820,1,walk,walk,7950,,7950.0,20.0,2.0,6.0,2.0,4.31,0.012,-0.002,-1.467,32.0,25.86,0.0,19.0,1641.0,49.0,3.51,-0.06,-1.02,0.01,2.03,1.89,-0.85,330.0,,,0.0,1.0,1.0,100.0
840,1,walk,walk,7951,,7951.0,20.0,2.0,6.0,2.0,4.3,0.012,0.044,-1.49,32.0,25.86,0.0,19.0,1641.0,49.0,3.46,-0.06,-1.02,0.01,2.06,1.86,-0.79,330.0,,,0.0,1.0,1.0,100.0
860,1,walk,walk,7952,,7952.0,20.0,2.0,6.0,2.0,4.28,0.012,-0.021,-1.474,32.0,25.86,0.0,19.0,1641.0,49.0,3.42,-0.06,-1.02,0.01,2.08,1.8,-0.7,330.0,,,0.0,1.0,1.0,100.0
880,1,walk,walk,7953,,7953.0,20.0,2.0,6.0,2.0,4.26,0.012,0.013,-1.465,32.0,25.86,0.0,19.0,1641.0,49.0,3.38,-0.06,-1.02,0.01,2.1,1.73,-0.57,330.0,,,0.0,1.0,1.0,100.0
920,1,walk,walk,7954,,7954.0,20.0,2.0,6.0,2.0,4.24,0.012,-0.064,-1.484,32.0,25.86,0.0,19.0,1641.0,49.0,3.35,-0.06,-1.02,0.01,2.12,1.66,-0.44,330.0,,,0.0,1.0,1.0,100.0
920,1,walk,walk,7955,,7955.0,20.0,2.0,6.0,2.0,4.22,0.012,-0.023,-1.483,32.0,25.86,0.0,19.0,1641.0,49.0,3.33,-0.06,-1.02,0.02,2.15,1.58,-0.31,330.0,,,0.0,1.0,1.0,100.0
940,1,walk,walk,7956,,7956.0,20.0,2.0,6.0,2.0,4.2,0.012,0.048,-1.48,32.0,25.86,0.0,19.0,1641.0,49.0,3.31,-0.06,-1.02,0.02,2.18,1.5,-0.2,330.0,,,0.0,1.0,1.0,100.0
960,1,walk,walk,7957,,7957.0,20.0,2.0,6.0,2.0,4.18,0.012,-0.015,-1.465,32.0,25.86,0.0,19.0,1641.0,49.0,3.29,-0.06,-1.02,0.02,2.22,1.44,-0.1,330.0,,,0.0,1.0,1.0,100.0
980,1,walk,walk,7958,,7958.0,20.0,2.0,6.0,2.0,4.16,0.012,-0.017,-1.502,32.0,25.86,0.0,19.0,1641.0,49.0,3.29,-0.06,-1.02,0.02,2.26,1.39,-0.03,330.0,,,0.0,1.0,1.0,100.0
1000,1,walk,walk,7959,,7959.0,20.0,2.0,6.0,2.0,4.14,0.012,0.026,-1.517,32.0,25.86,0.0,19.0,1641.0,49.0,3.28,-0.06,-1.02,0.02,2.3,1.35,0.01,330.0,,,0.0,1.0,1.0,100.0
1020,1,walk,walk,7960,,7960.0,20.0,2.0,6.0,2.0,4.12,0.012,-0.001,-1.563,32.0,25.86,0.0,19.0,1641.0,49.0,3.28,-0.06,-1.02,0.02,2.33,1.33,0.02,330.0,,,0.0,1.0,1.0,100.0
1060,1,walk,walk,7961,,7961.0,20.0,2.0,6.0,2.0,4.1,0.013,0.033,-1.613,32.0,25.86,0.0,19.0,1641.0,49.0,3.28,-0.06,-1.02,0.02,2.36,1.32,0.0,330.0,,,0.0,1.0,1.0,100.0
1060,1,walk,walk,7962,,7962.0,20.0,2.0,6.0,2.0,4.08,0.013,0.119,-1.636,32.0,25.86,0.0,19.0,1641.0,49.0,3.28,-0.06,-1.02,0.02,2.38,1.33,-0.06,330.0,,,0.0,1.0,1.0,100.0
1080,1,walk,walk,7963,,7963.0,20.0,2.0,6.0,2.0,4.06,0.014,0.041,-1.764,32.0,25.86,0.0,19.0,1641.0,49.0,3.28,-0.06,-1.02,0.02,2.39,1.33,-0.15,330.0,,,0.0,1.0,1.0,100.0
1100,1,walk,walk,7964,,7964.0,20.0,2.0,6.0,2.0,4.04,0.014,0.036,-1.764,32.0,25.86,0.0,19.0,1641.0,49.0,3.27,-0.06,-1.02,0.02,2.39,1.34,-0.26,330.0,,,0.0,1.0,1.0,100.0
1120,1,walk,walk,7965,,7965.0,20.0,2.0,6.0,2.0,4.02,0.015,0.011,-1.79,32.0,25.86,0.0,19.0,1641.0,49.0,3.26,-0.06,-1.02,0.02,2.36,1.35,-0.4,330.0,,,0.0,1.0,1.0,100.0
1140,1,walk,walk,7966,,7966.0,20.0,2.0,6.0,2.0,4.0,0.015,0.107,-1.881,32.0,25.83,0.0,19.0,1641.0,49.0,3.25,-0.06,-1.02,0.02,2.33,1.36,-0.53,330.0,,,0.0,1.0,1.0,100.0
1160,1,walk,walk,7967,,7967.0,20.0,2.0,6.0,2.0,3.98,0.015,-0.034,-1.887,32.0,25.86,0.0,19.0,1641.0,49.0,3.22,-0.06,-1.02,0.02,2.27,1.36,-0.67,330.0,,,0.0,1.0,1.0,100.0
1180,1,walk,walk,7968,,7968.0,20.0,2.0,6.0,2.0,3.96,0.015,0.017,-1.906,32.0,25.86,0.0,19.0,1641.0,49.0,3.19,-0.06,-1.02,0.02,2.2,1.36,-0.78,330.0,,,0.0,1.0,1.0,100.0
1200,1,walk,walk,7969,,7969.0,20.0,2.0,6.0,2.0,3.94,0.015,-0.013,-1.939,32.0,25.83,0.0,19.0,1641.0,49.0,3.16,-0.06,-1.02,0.02,2.12,1.35,-0.86,330.0,,,0.0,1.0,1.0,100.0
1240,1,walk,walk,7970,,7970.0,20.0,2.0,6.0,2.0,3.93,0.015,-0.07,-1.927,32.0,25.83,0.0,19.0,1641.0,49.0,3.12,-0.06,-1.02,0.02,2.03,1.33,-0.9,330.0,,,0.0,1.0,1.0,100.0
1240,1,walk,walk,7971,,7971.0,20.0,2.0,6.0,2.0,3.91,0.015,-0.068,-1.934,32.0,25.86,0.0,19.0,1641.0,49.0,3.07,-0.05,-1.02,0.02,1.93,1.3,-0.89,330.0,,,0.0,1.0,1.0,100.0
1260,1,walk,walk,7972,,7972.0,20.0,2.0,6.0,2.0,3.89,0.015,-0.002,-1.945,32.0,25.83,0.0,19.0,1641.0,49.0,3.02,-0.05,-1.02,0.02,1.83,1.25,-0.83,330.0,,,0.0,1.0,1.0,100.0
1280,1,walk,walk,7973,,7973.0,20.0,2.0,6.0,2.0,3.87,0.015,0.015,-1.929,32.0,25.83,0.0,19.0,1641.0,49.0,2.97,-0.05,-1.02,0.02,1.72,1.19,-0.73,330.0,,,0.0,1.0,1.0,100.0
1300,1,walk,walk,7974,,7974.0,20.0,2.0,6.0,2.0,3.85,0.015,0.108,-1.917,32.0,25.86,0.0,19.0,1641.0,49.0,2.93,-0.05,-1.02,0.02,1.61,1.11,-0.58,330.0,,,0.0,1.0,1.0,100.0
1320,1,walk,walk,7975,,7975.0,20.0,2.0,6.0,2.0,3.82,0.015,0.011,-1.878,32.0,25.83,0.0,19.0,1641.0,49.0,2.89,-0.05,-1.02,0.02,1.49,1.01,-0.4,330.0,,,0.0,1.0,1.0,100.0
1340,1,walk,walk,7976,,7976.0,20.0,2.0,6.0,2.0,3.8,0.015,0.044,-1.873,32.0,25.83,0.0,19.0,1641.0,49.0,2.86,-0.05,-1.02,0.02,1.38,0.9,-0.19,330.0,,,0.0,1.0,1.0,100.0
1360,1,walk,walk,7977,,7977.0,20.0,2.0,6.0,2.0,3.78,0.014,-0.085,-1.789,32.0,25.86,0.0,19.0,1641.0,49.0,2.83,-0.05,-1.02,0.02,1.27,0.79,0.05,330.0,,,0.0,1.0,1.0,100.0
1400,1,walk,walk,7978,,7978.0,20.0,2.0,6.0,2.0,3.76,0.014,-0.037,-1.795,32.0,25.86,0.0,19.0,1641.0,49.0,2.81,-0.05,-1.02,0.02,1.17,0.68,0.3,330.0,,,0.0,1.0,1.0,100.0
1420,1,walk,walk,7979,,7979.0,20.0,2.0,6.0,2.0,3.73,0.014,0.096,-1.707,32.0,25.86,0.0,19.0,1641.0,49.0,2.81,-0.05,-1.02,0.02,1.07,0.59,0.55,330.0,,,0.0,1.0,1.0,100.0
1420,1,walk,walk,7980,,7980.0,20.0,2.0,6.0,2.0,3.71,0.014,-0.001,-1.713,32.0,25.86,0.0,19.0,1641.0,49.0,2.81,-0.05,-1.02,0.02,0.98,0.51,0.79,330.0,,,0.0,1.0,1.0,100.0
1440,1,walk,walk,7981,,7981.0,20.0,2.0,6.0,2.0,3.69,0.013,-0.029,-1.698,32.0,25.86,0.0,19.0,1641.0,49.0,2.82,-0.05,-1.02,0.02,0.9,0.46,1.0,330.0,,,0.0,1.0,1.0,100.0
1460,1,walk,walk,7982,,7982.0,20.0,2.0,6.0,2.0,3.67,0.013,0.005,-1.674,32.0,25.86,0.0,19.0,1641.0,49.0,2.84,-0.05,-1.02,0.02,0.83,0.44,1.18,330.0,,,0.0,1.0,1.0,100.0
1480,1,walk,walk,7983,,7983.0,20.0,2.0,6.0,2.0,3.65,0.013,-0.091,-1.671,32.0,25.86,0.0,19.0,1641.0,49.0,2.87,-0.05,-1.02,0.02,0.76,0.43,1.32,330.0,,,0.0,1.0,1.0,100.0
1500,1,walk,walk,7984,,7984.0,20.0,2.0,6.0,2.0,3.63,0.013,-0.096,-1.668,32.0,25.86,0.0,19.0,1641.0,49.0,2.9,-0.05,-1.02,0.02,0.71,0.45,1.4,330.0,,,0.0,1.0,1.0,100.0
1540,1,walk,walk,7985,,7985.0,20.0,2.0,6.0,2.0,3.62,0.013,-0.04,-1.686,32.0,25.86,0.0,19.0,1641.0,49.0,2.93,-0.05,-1.02,0.02,0.67,0.48,1.43,330.0,,,0.0,1.0,1.0,100.0
1560,1,walk,walk,7986,,7986.0,20.0,2.0,6.0,2.0,3.61,0.013,-0.038,-1.693,32.0,25.86,0.0,19.0,1641.0,49.0,2.96,-0.05,-1.02,0.02,0.64,0.52,1.42,330.0,,,0.0,1.0,1.0,100.0
1560,1,walk,walk,7987,,7987.0,20.0,2.0,6.0,2.0,3.6,0.013,0.003,-1.632,32.0,25.86,0.0,19.0,1641.0,49.0,2.99,-0.05,-1.02,0.02,0.62,0.58,1.39,330.0,,,0.0,1.0,1.0,100.0
1580,1,walk,walk,7988,,7988.0,20.0,2.0,6.0,2.0,3.59,0.013,-0.046,-1.722,32.0,25.86,0.0,19.0,1641.0,49.0,3.02,-0.05,-1.02,0.02,0.62,0.63,1.34,330.0,,,0.0,1.0,1.0,100.0
1620,1,walk,walk,7989,,7989.0,20.0,2.0,6.0,2.0,3.59,0.013,-0.014,-1.626,32.0,25.86,0.0,19.0,1641.0,49.0,3.04,-0.05,-1.02,0.02,0.64,0.68,1.28,330.0,,,0.0,1.0,1.0,100.0
1620,1,walk,walk,7990,,7990.0,20.0,2.0,6.0,2.0,3.59,0.013,-0.001,-1.658,32.0,25.86,0.0,19.0,1641.0,49.0,3.05,-0.05,-1.02,0.02,0.67,0.72,1.23,330.0,,,0.0,1.0,1.0,100.0
1660,1,walk,walk,7991,,7991.0,20.0,2.0,6.0,2.0,3.59,0.013,-0.032,-1.659,32.0,25.86,0.0,19.0,1641.0,49.0,3.06,-0.05,-1.02,0.02,0.72,0.75,1.2,330.0,,,0.0,1.0,1.0,100.0
1680,1,walk,walk,7992,,7992.0,20.0,2.0,6.0,2.0,3.59,0.013,0.011,-1.565,32.0,25.86,0.0,19.0,1641.0,49.0,3.06,-0.05,-1.02,0.02,0.79,0.78,1.19,330.0,,,0.0,1.0,1.0,100.0
1680,1,walk,walk,7993,,7993.0,20.0,2.0,6.0,2.0,3.59,0.012,-0.022,-1.529,32.0,25.86,0.0,19.0,1641.0,49.0,3.07,-0.05,-1.02,0.02,0.87,0.8,1.21,330.0,,,0.0,1.0,1.0,100.0
1720,1,walk,walk,7994,,7994.0,20.0,2.0,6.0,2.0,3.6,0.012,-0.003,-1.457,32.0,25.86,0.0,19.0,1641.0,49.0,3.07,-0.05,-1.02,0.02,0.96,0.81,1.26,330.0,,,0.0,1.0,1.0,100.0
1720,1,walk,walk,7995,,7995.0,20.0,2.0,6.0,2.0,3.61,0.012,0.057,-1.466,32.0,25.86,0.0,19.0,1641.0,49.0,3.08,-0.05,-1.02,0.02,1.05,0.81,1.33,330.0,,,0.0,1.0,1.0,100.0
1740,1,walk,walk,7996,,7996.0,20.0,2.0,6.0,2.0,3.61,0.012,0.065,-1.424,32.0,25.86,0.0,19.0,1641.0,49.0,3.09,-0.06,-1.02,0.02,1.16,0.81,1.4,330.0,,,0.0,1.0,1.0,100.0
1760,1,walk,walk,7997,,7997.0,20.0,2.0,6.0,2.0,3.62,0.011,-0.076,-1.392,32.0,25.86,0.0,19.0,1641.0,49.0,3.1,-0.06,-1.02,0.02,1.28,0.81,1.48,330.0,,,0.0,1.0,1.0,100.0
1780,1,walk,walk,7998,,7998.0,20.0,2.0,6.0,2.0,3.63,0.011,0.029,-1.404,32.0,25.86,0.0,19.0,1641.0,49.0,3.11,-0.06,-1.02,0.02,1.4,0.82,1.54,330.0,,,0.0,1.0,1.0,100.0
1800,1,walk,walk,7999,,7999.0,20.0,2.0,6.0,2.0,3.64,0.011,0.042,-1.412,32.0,25.86,0.0,19.0,1641.0,49.0,3.13,-0.06,-1.02,0.02,1.55,0.82,1.59,330.0,,,0.0,1.0,1.0,100.0
1820,1,walk,walk,8000,,8000.0,20.0,2.0,6.0,2.0,3.65,0.011,0.023,-1.397,32.0,25.86,0.0,19.0,1641.0,49.0,3.15,-0.06,-1.02,0.02,1.72,0.84,1.61,330.0,,,0.0,1.0,1.0,100.0
1860,1,walk,walk,8001,,8001.0,20.0,2.0,6.0,2.0,3.66,0.011,-0.087,-1.395,32.0,25.86,0.0,19.0,1641.0,49.0,3.18,-0.06,-1.02,0.02,1.91,0.87,1.61,330.0,,,0.0,1.0,1.0,100.0
1880,1,walk,walk,8002,,8002.0,20.0,2.0,6.0,2.0,3.68,0.011,0.066,-1.406,32.0,25.86,0.0,19.0,1641.0,49.0,3.2,-0.06,-1.02,0.02,2.12,0.91,1.59,330.0,,,0.0,1.0,1.0,100.0
1880,1,walk,walk,8003,,8003.0,20.0,2.0,6.0,2.0,3.69,0.011,-0.048,-1.417,32.0,25.86,0.0,19.0,1641.0,49.0,3.22,-0.06,-1.02,0.02,2.34,0.96,1.56,330.0,,,0.0,1.0,1.0,100.0
1900,1,walk,walk,8004,,8004.0,20.0,2.0,6.0,2.0,3.7,0.011,0.081,-1.419,32.0,25.86,0.0,19.0,1641.0,49.0,3.24,-0.06,-1.02,0.02,2.58,1.02,1.51,330.0,,,0.0,1.0,1.0,100.0
1920,1,walk,walk,8005,,8005.0,20.0,2.0,6.0,2.0,3.72,0.011,-0.005,-1.412,32.0,25.86,0.0,19.0,1641.0,49.0,3.26,-0.06,-1.02,0.02,2.82,1.09,1.47,330.0,,,0.0,1.0,1.0,100.0
1940,1,walk,walk,8006,,8006.0,20.0,2.0,6.0,2.0,3.73,0.011,0.013,-1.416,32.0,25.86,0.0,19.0,1641.0,49.0,3.27,-0.06,-1.02,0.02,3.04,1.16,1.45,330.0,,,0.0,1.0,1.0,100.0
1980,1,walk,walk,8007,,8007.0,20.0,2.0,6.0,2.0,3.75,0.011,-0.07,-1.446,32.0,25.86,0.0,19.0,1641.0,49.0,3.27,-0.06,-1.02,0.02,3.26,1.23,1.45,330.0,,,0.0,1.0,1.0,100.0
2000,1,walk,walk,8008,,8008.0,20.0,2.0,6.0,2.0,3.76,0.011,0.107,-1.457,32.0,25.86,0.0,19.0,1641.0,49.0,3.26,-0.06,-1.03,0.02,3.45,1.3,1.5,330.0,,,0.0,1.0,1.0,100.0
2060,1,walk,walk,8009,,8009.0,20.0,2.0,6.0,2.0,3.78,0.011,-0.018,-1.457,32.0,25.86,0.0,19.0,1641.0,49.0,3.25,-0.06,-1.03,0.02,3.6,1.34,1.59,330.0,,,0.0,1.0,1.0,100.0
2060,1,walk,walk,8010,,8010.0,20.0,2.0,6.0,2.0,3.8,0.012,0.087,-1.542,32.0,25.86,0.0,19.0,1641.0,49.0,3.25,-0.06,-1.03,0.02,3.67,1.33,1.73,330.0,,,0.0,1.0,1.0,100.0
2080,1,walk,walk,8011,,8011.0,20.0,2.0,6.0,2.0,3.81,0.012,0.042,-1.633,32.0,25.86,0.0,19.0,1641.0,49.0,3.24,-0.06,-1.03,0.02,3.63,1.21,1.93,330.0,,,0.0,1.0,1.0,100.0
2100,1,walk,walk,8012,,8012.0,20.0,2.0,6.0,2.0,3.83,0.014,0.156,-1.77,32.0,25.86,0.0,19.0,1641.0,49.0,3.27,-0.06,-1.03,0.02,3.27,0.57,2.22,330.0,,,0.0,1.0,1.0,100.0
2100,1,walk,walk,8013,,8013.0,20.0,2.0,6.0,2.0,3.85,0.015,0.095,-1.934,32.0,25.83,0.0,19.0,1641.0,49.0,3.4,-0.06,-1.03,0.02,2.39,-1.29,2.53,330.0,,,0.0,1.0,1.0,100.0
2100,1,walk,walk,8014,,8014.0,20.0,2.0,6.0,2.0,3.86,0.017,0.178,-2.168,32.0,25.83,0.0,19.0,1641.0,49.0,3.63,-0.07,-1.04,0.0,0.81,-5.12,2.78,330.0,,,0.0,1.0,1.0,100.0
2120,1,walk,walk,8015,,8015.0,20.0,2.0,6.0,2.0,3.88,0.018,-0.011,-2.273,32.0,25.83,0.0,19.0,1641.0,49.0,3.97,-0.07,-1.04,-0.01,-1.41,-11.72,2.97,330.0,,,0.0,1.0,1.0,100.0
2140,1,walk,walk,8016,,8016.0,20.0,2.0,6.0,2.0,3.9,0.017,-0.022,-2.014,32.0,25.83,0.0,19.0,1641.0,49.0,4.41,-0.08,-1.05,-0.03,-4.1,-21.38,3.1,330.0,,,0.0,1.0,1.0,100.0
2160,1,walk,walk,8017,,8017.0,20.0,2.0,6.0,2.0,3.93,0.014,-0.269,-1.675,32.0,25.86,0.0,19.0,1641.0,49.0,4.83,-0.09,-1.06,-0.05,-7.05,-33.64,3.25,330.0,,,0.0,1.0,1.0,100.0
2200,1,walk,walk,8018,,8018.0,20.0,2.0,6.0,2.0,3.95,0.011,-0.268,-1.302,32.0,25.86,0.0,19.0,1641.0,49.0,5.1,-0.1,-1.07,-0.07,-10.02,-47.28,3.53,330.0,,,0.0,1.0,1.0,100.0
2200,1,walk,walk,8019,,8019.0,20.0,2.0,6.0,2.0,3.98,0.008,-0.229,-0.881,32.0,25.9,0.0,19.0,1641.0,49.0,5.1,-0.1,-1.08,-0.08,-12.82,-60.61,4.08,330.0,,,0.0,1.0,1.0,100.0
2220,1,walk,walk,8020,,8020.0,20.0,2.0,6.0,2.0,4.01,0.005,-0.178,-0.537,32.0,25.9,0.0,19.0,1641.0,49.0,4.78,-0.09,-1.09,-0.08,-15.32,-71.96,4.98,330.0,,,0.0,1.0,1.0,100.0
2240,1,walk,walk,8021,,8021.0,20.0,2.0,6.0,2.0,4.05,0.004,-0.032,-0.388,32.0,25.9,0.0,19.0,1641.0,49.0,4.16,-0.08,-1.09,-0.08,-17.44,-80.06,6.21,330.0,,,0.0,1.0,1.0,100.0
2260,1,walk,walk,8022,,8022.0,20.0,2.0,6.0,2.0,4.1,0.003,-0.032,-0.33,32.0,25.9,0.0,19.0,1641.0,49.0,3.32,-0.06,-1.1,-0.06,-19.08,-84.27,7.61,330.0,,,0.0,1.0,1.0,100.0
2280,1,walk,walk,8023,,8023.0,20.0,2.0,6.0,2.0,4.14,0.002,0.03,-0.236,32.0,25.9,0.0,19.0,1641.0,49.0,2.37,-0.05,-1.09,-0.05,-20.19,-84.63,8.98,330.0,,,0.0,1.0,1.0,100.0
2300,1,walk,walk,8024,,8024.0,20.0,2.0,6.0,2.0,4.2,0.001,-0.017,-0.092,32.0,25.9,0.0,19.0,1641.0,49.0,1.42,-0.03,-1.08,-0.03,-20.67,-81.75,10.02,330.0,,,0.0,1.0,1.0,100.0
2340,1,walk,walk,8025,,8025.0,20.0,2.0,6.0,2.0,4.26,0.001,-0.068,-0.036,32.0,25.9,0.0,19.0,1641.0,49.0,0.59,-0.01,-1.07,0.0,-20.49,-76.61,10.47,330.0,,,0.0,1.0,1.0,100.0
2360,1,walk,walk,8026,,8026.0,20.0,2.0,6.0,2.0,4.33,0.0,-0.006,0.045,32.0,25.9,0.0,19.0,1641.0,49.0,-0.07,0.0,-1.05,0.02,-19.65,-70.16,10.16,330.0,,,0.0,1.0,1.0,100.0
2360,1,walk,walk,8027,,8027.0,20.0,0.0,6.0,2.0,4.4,-0.001,-0.015,0.094,32.0,25.9,0.0,17.0,1641.0,49.0,-0.52,0.01,-1.04,0.04,-18.2,-63.3,8.98,330.0,,,0.0,1.0,1.0,100.0
2380,1,walk,walk,8028,,8028.0,20.0,1.0,6.0,2.0,4.48,-0.001,-0.009,0.123,32.0,25.9,0.0,18.0,1641.0,49.0,-0.76,0.01,-1.02,0.05,-16.24,-56.74,6.88,330.0,,,0.0,1.0,1.0,100.0
2400,1,walk,walk,8029,,8029.0,20.0,1.0,6.0,2.0,4.56,-0.001,0.013,0.106,32.0,25.9,0.0,18.0,1641.0,49.0,-0.81,0.01,-1.0,0.06,-13.88,-50.94,3.88,330.0,,,0.0,1.0,1.0,100.0
2420,1,walk,walk,8030,,8030.0,20.0,1.0,6.0,2.0,4.64,-0.001,0.038,0.1,32.0,25.9,0.0,18.0,1641.0,49.0,-0.72,0.01,-0.98,0.07,-11.26,-46.1,0.1,330.0,,,0.0,1.0,1.0,100.0
2460,1,walk,walk,8031,,8031.0,20.0,1.0,6.0,2.0,4.72,-0.001,-0.005,0.0,32.0,25.9,0.0,18.0,1641.0,49.0,-0.51,0.01,-0.96,0.07,-8.53,-42.22,-4.28,330.0,,,0.0,1.0,1.0,100.0
2460,1,walk,walk,8032,,8032.0,20.0,1.0,6.0,2.0,4.78,-0.001,-0.029,0.028,32.0,25.9,0.0,18.0,1641.0,49.0,-0.21,0.0,-0.95,0.07,-5.82,-39.14,-9.01,330.0,,,0.0,1.0,1.0,100.0
2480,1,walk,walk,8033,,8033.0,20.0,1.0,0.0,5.0,4.83,0.0,0.075,-0.114,32.0,25.9,0.0,18.0,1641.0,49.0,0.16,0.0,-0.95,0.07,-3.24,-36.64,-13.83,330.0,,,0.0,1.0,1.0,100.0
2520,1,walk,walk,8034,,8034.0,20.0,0.0,0.0,6.0,4.86,0.001,0.108,-0.333,32.0,25.9,0.0,19.0,1641.0,49.0,0.58,-0.01,-0.94,0.06,-0.9,-34.55,-18.46,330.0,,,0.0,1.0,1.0,100.0
2520,1,walk,walk,8035,,8035.0,20.0,0.0,0.0,6.0,4.87,0.001,0.108,-0.333,32.0,25.9,0.0,39.0,1641.0,49.0,1.02,-0.02,-0.94,0.05,1.14,-32.87,-22.81,330.0,,,0.0,1.0,1.0,100.0
2540,1,walk,walk,8036,,8036.0,20.0,0.0,0.0,6.0,4.85,0.001,0.108,-0.333,32.0,25.9,0.0,59.0,1641.0,49.0,1.49,-0.02,-0.94,0.03,2.82,-31.68,-26.85,330.0,,,0.0,1.0,1.0,100.0
2560,1,walk,walk,8037,,8037.0,20.0,0.0,0.0,6.0,4.78,0.102,26.56,0.0,32.0,26.0,0.0,2.0,1641.0,49.0,1.98,-0.03,-0.94,0.02,4.09,-31.04,-30.54,330.0,,,0.0,1.0,1.0,100.0
2580,1,walk,walk,8038,,8038.0,20.0,0.0,0.0,6.0,4.68,0.128,1.73,0.0,32.0,25.93,0.0,2.0,1641.0,49.0,2.51,-0.04,-0.94,0.0,4.93,-31.01,-33.84,330.0,,,0.0,1.0,1.0,100.0
2600,1,walk,walk,8039,,8039.0,20.0,0.0,0.0,6.0,4.53,0.149,1.506,0.0,32.0,25.93,0.0,2.0,1641.0,49.0,3.07,-0.05,-0.95,-0.02,5.31,-31.63,-36.67,330.0,,,0.0,1.0,1.0,100.0
2620,1,walk,walk,8040,,8040.0,20.0,0.0,0.0,6.0,4.34,0.166,0.934,0.0,32.0,25.93,0.0,2.0,1641.0,49.0,3.65,-0.06,-0.95,-0.04,5.24,-32.96,-38.99,330.0,,,0.0,1.0,1.0,100.0
2640,1,walk,walk,8041,,8041.0,20.0,0.0,0.0,6.0,4.1,0.182,0.942,0.0,32.0,25.93,0.0,2.0,1641.0,49.0,4.23,-0.07,-0.95,-0.06,4.74,-35.03,-40.71,330.0,,,0.0,1.0,1.0,100.0
2680,1,walk,walk,8042,,8042.0,20.0,0.0,0.0,6.0,3.81,0.197,1.503,0.0,32.0,25.93,0.0,2.0,1641.0,49.0,4.56,-0.08,-0.96,-0.08,3.88,-37.85,-41.79,330.0,,,0.0,1.0,1.0,100.0
2680,1,walk,walk,8043,,8043.0,20.0,0.0,0.0,6.0,3.47,0.222,1.65,0.0,32.0,25.93,0.0,2.0,1641.0,49.0,4.37,-0.07,-0.97,-0.09,2.96,-40.71,-42.48,330.0,,,0.0,1.0,1.0,100.0
2700,1,walk,walk,8044,,8044.0,20.0,0.0,0.0,6.0,3.09,0.233,-0.217,0.0,32.0,25.93,0.0,2.0,1641.0,49.0,3.66,-0.06,-0.98,-0.1,2.21,-42.96,-42.85,330.0,,,0.0,1.0,1.0,100.0
2720,1,walk,walk,8045,,8045.0,20.0,0.0,0.0,7.0,2.66,0.23,0.084,0.0,32.0,25.93,0.0,2.0,1641.0,49.0,2.57,-0.04,-1.0,-0.1,1.74,-44.17,-42.64,330.0,,,0.0,1.0,1.0,100.0
2740,1,walk,walk,8046,,8046.0,20.0,0.0,0.0,7.0,2.2,0.23,0.064,0.0,32.0,25.93,0.0,2.0,1641.0,49.0,1.27,-0.02,-1.01,-0.1,1.51,-44.18,-41.73,330.0,,,0.0,1.0,1.0,100.0
2760,1,walk,walk,8047,,8047.0,20.0,0.0,0.0,7.0,1.69,0.228,-0.245,0.0,32.0,25.93,0.0,2.0,1641.0,49.0,-0.11,0.0,-1.02,-0.1,1.39,-43.08,-40.1,330.0,,,0.0,1.0,1.0,100.0
2780,1,walk,walk,8048,,8048.0,20.0,0.0,0.0,7.0,1.16,0.223,-0.495,0.0,32.0,25.93,0.0,2.0,1641.0,49.0,-1.45,0.03,-1.04,-0.09,1.21,-41.07,-37.76,330.0,,,0.0,1.0,1.0,100.0
2820,1,walk,walk,8049,,8049.0,20.0,0.0,0.0,7.0,0.6,0.214,-0.749,0.0,32.0,25.93,0.0,2.0,1641.0,49.0,-2.69,0.05,-1.04,-0.07,0.89,-38.4,-34.75,330.0,,,0.0,1.0,1.0,100.0
2840,1,walk,walk,8050,,8050.0,20.0,0.0,0.0,7.0,0.02,0.204,-0.659,0.0,32.0,25.93,0.0,2.0,1641.0,49.0,-3.81,0.07,-1.05,-0.06,0.4,-35.28,-31.1,330.0,,,0.0,1.0,1.0,100.0
2840,1,walk,walk,8051,,8051.0,20.0,0.0,0.0,7.0,-0.59,0.196,-0.44,0.0,32.0,25.93,0.0,2.0,1641.0,49.0,-4.78,0.09,-1.05,-0.06,-0.21,-31.93,-26.93,330.0,,,0.0,1.0,1.0,100.0
2860,1,walk,walk,8052,,8052.0,20.0,0.0,0.0,7.0,-1.2,0.187,-0.782,0.0,32.0,25.93,0.0,2.0,1641.0,49.0,-5.58,0.1,-1.06,-0.05,-0.88,-28.52,-22.41,330.0,,,0.0,1.0,1.0,100.0
2880,1,walk,walk,8053,,8053.0,20.0,0.0,0.0,7.0,-1.81,0.177,-0.565,0.0,32.0,25.93,0.0,2.0,1641.0,49.0,-6.22,0.11,-1.06,-0.05,-1.52,-25.17,-17.69,330.0,,,0.0,1.0,1.0,100.0
2900,1,walk,walk,8054,,8054.0,20.0,0.0,0.0,7.0,-2.42,0.17,-0.471,0.0,32.0,25.93,0.0,2.0,1641.0,49.0,-6.7,0.12,-1.05,-0.04,-2.1,-21.96,-12.93,330.0,,,0.0,1.0,1.0,100.0
2940,1,walk,walk,8055,,8055.0,20.0,0.0,0.0,7.0,-3.02,0.161,-0.726,0.0,32.0,25.93,0.0,2.0,1641.0,49.0,-7.02,0.13,-1.05,-0.04,-2.58,-18.97,-8.32,330.0,,,0.0,1.0,1.0,100.0
2960,1,walk,walk,8056,,8056.0,20.0,0.0,0.0,7.0,-3.6,0.152,-0.433,0.0,32.0,25.93,0.0,2.0,1641.0,49.0,-7.21,0.13,-1.05,-0.05,-2.95,-16.23,-3.94,330.0,,,0.0,1.0,1.0,100.0
2960,1,walk,walk,8057,,8057.0,20.0,0.0,0.0,1.0,-4.16,0.146,-0.246,0.0,32.0,25.93,0.0,2.0,1641.0,49.0,-7.28,0.13,-1.05,-0.05,-3.21,-13.75,0.07,330.0,,,0.0,1.0,1.0,100.0
3000,1,walk,walk,8058,,8058.0,20.0,0.0,0.0,1.0,-4.67,0.14,-0.539,0.0,32.0,25.93,0.0,2.0,1641.0,49.0,-7.23,0.13,-1.04,-0.05,-3.39,-11.56,3.62,330.0,,,0.0,1.0,1.0,100.0
3000,1,walk,walk,8059,,8059.0,20.0,0.0,0.0,1.0,-5.15,0.13,-0.616,0.0,32.0,25.93,0.0,2.0,1641.0,49.0,-7.1,0.13,-1.04,-0.05,-3.48,-9.61,6.71,330.0,,,0.0,1.0,1.0,100.0
3020,1,walk,walk,8060,,8060.0,20.0,0.0,0.0,1.0,-5.59,0.125,-0.3,0.0,32.0,25.93,0.0,2.0,1641.0,49.0,-6.9,0.13,-1.03,-0.06,-3.51,-7.9,9.32,330.0,,,0.0,1.0,1.0,100.0
3040,1,walk,walk,8061,,8061.0,20.0,0.0,0.0,1.0,-5.97,0.123,-0.052,0.0,32.0,25.93,0.0,2.0,1641.0,49.0,-6.63,0.12,-1.03,-0.06,-3.48,-6.43,11.4,330.0,,,0.0,1.0,1.0,100.0
3060,1,walk,walk,8062,,8062.0,20.0,0.0,0.0,1.0,-6.3,0.12,-0.326,0.0,32.0,25.93,0.0,2.0,1641.0,49.0,-6.32,0.11,-1.03,-0.06,-3.4,-5.17,12.94,330.0,,,0.0,1.0,1.0,100.0
3080,1,walk,walk,8063,,8063.0,20.0,0.0,0.0,1.0,-6.57,0.117,-0.124,0.0,32.0,25.93,0.0,2.0,1641.0,49.0,-5.97,0.11,-1.02,-0.06,-3.29,-4.1,13.94,330.0,,,0.0,1.0,1.0,100.0
3100,1,walk,walk,8064,,8064.0,20.0,0.0,0.0,1.0,-6.79,0.115,-0.179,0.0,32.0,25.93,0.0,2.0,1641.0,49.0,-5.6,0.1,-1.02,-0.07,-3.17,-3.18,14.43,330.0,,,0.0,1.0,1.0,100.0
3120,1,walk,walk,8065,,8065.0,20.0,0.0,0.0,1.0,-6.95,0.115,0.018,0.0,32.0,25.93,0.0,2.0,1641.0,49.0,-5.22,0.09,-1.02,-0.07,-3.05,-2.39,14.44,330.0,,,0.0,1.0,1.0,100.0
3160,1,walk,walk,8066,,8066.0,20.0,0.0,0.0,1.0,-7.06,0.115,-0.099,0.0,32.0,25.93,0.0,2.0,1641.0,49.0,-4.86,0.09,-1.02,-0.07,-2.95,-1.7,14.02,330.0,,,0.0,1.0,1.0,100.0
3160,1,walk,walk,8067,,8067.0,20.0,0.0,0.0,1.0,-7.12,0.115,-0.002,0.0,32.0,25.93,0.0,2.0,1641.0,49.0,-4.51,0.08,-1.02,-0.07,-2.9,-1.09,13.21,330.0,,,0.0,1.0,1.0,100.0
3180,1,walk,walk,8068,,8068.0,20.0,0.0,0.0,1.0,-7.13,0.116,0.01,0.0,32.0,25.93,0.0,2.0,1641.0,49.0,-4.19,0.07,-1.01,-0.07,-2.9,-0.55,12.07,330.0,,,0.0,1.0,1.0,100.0
3200,1,walk,walk,8069,,8069.0,20.0,0.0,0.0,1.0,-7.1,0.119,0.37,0.0,32.0,25.93,0.0,2.0,1641.0,49.0,-3.89,0.07,-1.01,-0.08,-2.96,-0.11,10.62,330.0,,,0.0,1.0,1.0,100.0
3220,1,walk,walk,8070,,8070.0,20.0,0.0,0.0,1.0,-7.03,0.124,0.339,0.0,32.0,25.93,0.0,2.0,1641.0,49.0,-3.63,0.06,-1.01,-0.08,-3.07,0.24,8.88,330.0,,,0.0,1.0,1.0,100.0
3240,1,walk,walk,8071,,8071.0,20.0,0.0,0.0,1.0,-6.92,0.13,0.528,0.0,32.0,25.93,0.0,2.0,1641.0,49.0,-3.41,0.06,-1.01,-0.08,-3.22,0.49,6.87,330.0,,,0.0,1.0,1.0,100.0
3260,1,walk,walk,8072,,8072.0,20.0,0.0,0.0,1.0,-6.8,0.138,0.677,0.0,32.0,25.93,0.0,2.0,1641.0,49.0,-3.22,0.06,-1.01,-0.08,-3.43,0.68,4.6,330.0,,,0.0,1.0,1.0,100.0
3300,1,walk,walk,8073,,8073.0,20.0,0.0,0.0,1.0,-6.65,0.15,0.601,0.0,32.0,25.93,0.0,2.0,1641.0,49.0,-3.09,0.05,-1.01,-0.08,-3.68,0.79,2.07,330.0,,,0.0,1.0,1.0,100.0
3300,1,walk,walk,8074,,8074.0,20.0,0.0,0.0,1.0,-6.49,0.156,0.422,0.0,32.0,25.93,0.0,2.0,1641.0,49.0,-3.03,0.05,-1.01,-0.08,-3.98,0.84,-0.66,330.0,,,0.0,1.0,1.0,100.0
3320,1,walk,walk,8075,,8075.0,20.0,1.0,0.0,1.0,-6.32,0.16,0.191,0.0,32.0,25.93,0.0,3.0,1641.0,49.0,-3.07,0.05,-1.01,-0.08,-4.29,0.82,-3.42,330.0,,,0.0,1.0,1.0,100.0
3340,1,walk,walk,8076,,8076.0,20.0,1.0,0.0,1.0,-6.15,0.161,0.143,0.0,32.0,25.93,0.0,3.0,1641.0,49.0,-3.21,0.06,-1.01,-0.09,-4.59,0.73,-5.98,330.0,,,0.0,1.0,1.0,100.0
3360,1,walk,walk,8077,,8077.0,20.0,1.0,0.0,1.0,-5.99,0.16,-0.064,0.0,32.0,25.93,0.0,3.0,1641.0,49.0,-3.45,0.06,-1.01,-0.09,-4.84,0.57,-8.12,330.0,,,0.0,1.0,1.0,100.0
3380,1,walk,walk,8078,,8078.0,20.0,1.0,0.0,1.0,-5.84,0.16,-0.097,0.0,32.0,25.93,0.0,3.0,1641.0,49.0,-3.76,0.07,-1.01,-0.09,-5.05,0.35,-9.72,330.0,,,0.0,1.0,1.0,100.0
3400,1,walk,walk,8079,,8079.0,20.0,1.0,0.0,1.0,-5.71,0.16,-0.092,0.0,32.0,25.93,0.0,3.0,1641.0,49.0,-4.08,0.07,-1.01,-0.09,-5.23,0.08,-10.77,330.0,,,0.0,1.0,1.0,100.0
3420,1,walk,walk,8080,,8080.0,20.0,1.0,6.0,2.0,-5.6,0.16,0.038,0.0,32.0,25.93,0.0,3.0,1641.0,49.0,-4.4,0.08,-1.01,-0.1,-5.42,-0.18,-11.37,330.0,,,0.0,1.0,1.0,100.0
3440,1,walk,walk,8081,,8081.0,20.0,0.0,6.0,2.0,-5.51,0.16,-0.072,0.02,32.0,25.93,0.0,17.0,1641.0,49.0,-4.75,0.08,-1.01,-0.1,-5.64,0.12,-11.4,330.0,,,0.0,1.0,1.0,100.0
3480,1,walk,walk,8082,,8082.0,20.0,0.0,6.0,2.0,-5.45,0.117,-2.81,-4.832,32.0,25.3,0.0,17.0,1641.0,49.0,-5.12,0.09,-1.01,-0.1,-5.86,1.26,-10.43,330.0,,,0.0,1.0,1.0,100.0
3480,1,walk,walk,8083,,8083.0,20.0,0.0,6.0,2.0,-5.41,0.083,-1.73,-5.896,32.0,25.12,0.0,17.0,1641.0,49.0,-5.5,0.1,-1.01,-0.1,-6.0,3.04,-8.39,330.0,,,0.0,1.0,1.0,100.0
3500,1,walk,walk,8084,,8084.0,20.0,0.0,6.0,2.0,-5.4,0.07,-0.493,-6.962,32.0,24.98,0.0,17.0,1641.0,49.0,-5.86,0.1,-1.01,-0.1,-6.03,5.1,-5.55,330.0,,,0.0,1.0,1.0,100.0
3520,1,walk,walk,8085,,8085.0,20.0,0.0,6.0,2.0,-5.41,0.062,-0.326,-6.811,32.0,25.02,0.0,17.0,1641.0,49.0,-6.15,0.11,-1.01,-0.11,-5.88,7.12,-2.26,330.0,,,0.0,1.0,1.0,100.0
3540,1,walk,walk,8086,,8086.0,20.0,0.0,6.0,2.0,-5.44,0.057,-0.182,-6.601,32.0,25.12,0.0,17.0,1641.0,49.0,-6.36,0.11,-1.01,-0.11,-5.56,8.84,1.15,330.0,,,0.0,1.0,1.0,100.0
3560,1,walk,walk,8087,,8087.0,20.0,1.0,6.0,2.0,-5.48,0.053,-0.33,-6.221,32.0,25.19,0.0,18.0,1641.0,49.0,-6.49,0.12,-1.01,-0.12,-5.06,10.1,4.41,330.0,,,0.0,1.0,1.0,100.0
3580,1,walk,walk,8088,,8088.0,20.0,1.0,6.0,2.0,-5.53,0.049,-0.292,-5.789,32.0,25.26,0.0,18.0,1641.0,49.0,-6.51,0.12,-1.01,-0.12,-4.41,10.86,7.39,330.0,,,0.0,1.0,1.0,100.0
3620,1,walk,walk,8089,,8089.0,20.0,1.0,6.0,2.0,-5.59,0.045,-0.32,-5.265,32.0,25.37,0.0,18.0,1641.0,49.0,-6.46,0.11,-1.01,-0.13,-3.64,11.12,9.99,330.0,,,0.0,1.0,1.0,100.0
3660,1,walk,walk,8090,,8090.0,20.0,1.0,6.0,2.0,-5.64,0.041,-0.26,-4.792,32.0,25.47,0.0,18.0,1641.0,49.0,-6.33,0.11,-1.01,-0.13,-2.76,10.93,12.22,330.0,,,0.0,1.0,1.0,100.0
3660,1,walk,walk,8091,,8091.0,20.0,1.0,6.0,2.0,-5.68,0.036,-0.363,-4.115,32.0,25.54,0.0,18.0,1641.0,49.0,-6.14,0.11,-1.01,-0.13,-1.81,10.39,14.14,330.0,,,0.0,1.0,1.0,100.0
3660,1,walk,walk,8092,,8092.0,20.0,1.0,6.0,2.0,-5.71,0.031,-0.272,-3.536,32.0,25.65,0.0,18.0,1641.0,49.0,-5.92,0.11,-1.02,-0.13,-0.8,9.58,15.83,330.0,,,0.0,1.0,1.0,100.0
3680,1,walk,walk,8093,,8093.0,20.0,1.0,6.0,2.0,-5.72,0.026,-0.31,-2.988,32.0,25.72,0.0,18.0,1641.0,49.0,-5.68,0.1,-1.02,-0.13,0.27,8.59,17.4,330.0,,,0.0,1.0,1.0,100.0
3700,1,walk,walk,8094,,8094.0,20.0,1.0,6.0,2.0,-5.71,0.022,-0.213,-2.522,32.0,25.76,0.0,18.0,1641.0,49.0,-5.4,0.1,-1.02,-0.14,1.41,7.48,18.91,330.0,,,0.0,1.0,1.0,100.0
3720,1,walk,walk,8095,,8095.0,20.0,1.0,6.0,2.0,-5.67,0.018,-0.249,-2.081,32.0,25.83,0.0,18.0,1641.0,49.0,-5.09,0.09,-1.02,-0.14,2.6,6.31,20.4,330.0,,,0.0,1.0,1.0,100.0
3740,1,walk,walk,8096,,8096.0,20.0,1.0,6.0,2.0,-5.6,0.014,-0.315,-1.503,32.0,25.86,0.0,18.0,1641.0,49.0,-4.74,0.08,-1.02,-0.14,3.82,5.11,21.91,330.0,,,0.0,1.0,1.0,100.0
3780,1,walk,walk,8097,,8097.0,20.0,1.0,6.0,2.0,-5.5,0.009,-0.41,-0.826,32.0,25.9,0.0,18.0,1641.0,49.0,-4.37,0.08,-1.03,-0.13,5.06,3.89,23.5,330.0,,,0.0,1.0,1.0,100.0
3800,1,walk,walk,8098,,8098.0,20.0,1.0,6.0,2.0,-5.37,0.003,-0.287,-0.054,32.0,25.9,0.0,18.0,1641.0,49.0,-4.0,0.07,-1.03,-0.13,6.26,2.66,25.26,330.0,,,0.0,1.0,1.0,100.0
3800,1,walk,walk,8099,,8099.0,20.0,1.0,6.0,2.0,-5.21,-0.001,-0.281,0.465,32.0,25.9,0.0,18.0,1641.0,49.0,-3.65,0.07,-1.03,-0.13,7.34,1.33,27.29,330.0,,,0.0,1.0,1.0,100.0
3820,1,walk,walk,8100,,8100.0,20.0,1.0,6.0,2.0,-5.01,-0.003,-0.117,0.633,32.0,25.9,0.0,18.0,1641.0,49.0,-3.36,0.06,-1.04,-0.13,8.23,-0.12,29.7,330.0,,,0.0,1.0,1.0,100.0
3840,1,walk,walk,8101,,8101.0,20.0,1.0,6.0,2.0,-4.79,-0.005,-0.119,0.684,32.0,25.9,0.0,18.0,1641.0,49.0,-3.14,0.06,-1.04,-0.12,8.89,-1.67,32.6,330.0,,,0.0,1.0,1.0,100.0
3860,1,walk,walk,8102,,8102.0,20.0,1.0,6.0,2.0,-4.52,-0.006,0.017,0.774,32.0,25.9,0.0,18.0,1641.0,49.0,-3.0,0.06,-1.06,-0.12,9.25,-3.27,36.09,330.0,,,0.0,1.0,1.0,100.0
3880,1,walk,walk,8103,,8103.0,20.0,1.0,6.0,2.0,-4.23,-0.006,0.053,0.686,32.0,25.9,0.0,18.0,1641.0,49.0,-2.89,0.05,-1.07,-0.12,9.27,-4.87,40.23,330.0,,,0.0,1.0,1.0,100.0
3900,1,walk,walk,8104,,8104.0,20.0,1.0,6.0,2.0,-3.9,-0.005,0.108,0.491,32.0,25.9,0.0,18.0,1641.0,49.0,-2.77,0.05,-1.09,-0.11,8.92,-6.45,45.01,330.0,,,0.0,1.0,1.0,100.0
3960,1,walk,walk,8105,,8105.0,20.0,1.0,6.0,2.0,-3.53,-0.004,0.179,0.198,32.0,25.9,0.0,18.0,1641.0,49.0,-2.59,0.05,-1.1,-0.11,8.18,-8.05,50.27,330.0,,,0.0,1.0,1.0,100.0
3960,1,walk,walk,8106,,8106.0,20.0,1.0,6.0,2.0,-3.12,-0.002,0.24,-0.151,32.0,25.9,0.0,18.0,1641.0,49.0,-2.33,0.05,-1.11,-0.1,7.1,-9.75,55.72,330.0,,,0.0,1.0,1.0,100.0
3960,1,walk,walk,8107,,8107.0,20.0,1.0,6.0,2.0,-2.66,0.0,0.097,-0.238,32.0,25.9,0.0,18.0,1641.0,49.0,-2.01,0.04,-1.13,-0.1,5.78,-11.63,60.85,330.0,,,0.0,1.0,1.0,100.0
3980,1,walk,walk,8108,,8108.0,20.0,1.0,6.0,2.0,-2.16,0.0,-0.077,-0.014,32.0,25.9,0.0,18.0,1641.0,49.0,-1.68,0.03,-1.13,-0.1,4.41,-13.77,64.95,330.0,,,0.0,1.0,1.0,100.0
4000,1,walk,walk,8109,,8109.0,20.0,1.0,6.0,2.0,-1.61,-0.001,-0.011,0.032,32.0,25.9,0.0,18.0,1641.0,49.0,-1.42,0.03,-1.13,-0.09,3.14,-16.26,67.4,330.0,,,0.0,1.0,1.0,100.0
4020,1,walk,walk,8110,,8110.0,20.0,1.0,6.0,2.0,-1.0,-0.002,-0.126,0.369,32.0,25.9,0.0,18.0,1641.0,49.0,-1.31,0.03,-1.12,-0.09,2.1,-19.02,67.71,330.0,,,0.0,1.0,1.0,100.0
4040,1,walk,walk,8111,,8111.0,20.0,0.0,6.0,2.0,-0.34,-0.003,-0.083,0.511,32.0,25.9,0.0,17.0,1641.0,49.0,-1.38,0.03,-1.11,-0.08,1.35,-21.85,65.6,330.0,,,0.0,1.0,1.0,100.0
4060,1,walk,walk,8112,,8112.0,20.0,1.0,6.0,2.0,0.37,-0.004,-0.045,0.568,32.0,25.9,0.0,18.0,1641.0,49.0,-1.67,0.03,-1.09,-0.07,0.92,-24.43,60.98,330.0,,,0.0,1.0,1.0,100.0
4080,1,walk,walk,8113,,8113.0,20.0,1.0,6.0,2.0,1.13,-0.005,0.002,0.684,32.0,25.9,0.0,18.0,1641.0,49.0,-2.16,0.04,-1.06,-0.07,0.77,-26.32,53.97,330.0,,,0.0,1.0,1.0,100.0
4120,1,walk,walk,8114,,8114.0,20.0,1.0,1.0,5.0,1.93,-0.006,-0.089,0.722,32.0,25.9,0.0,18.0,1641.0,50.0,-2.81,0.05,-1.03,-0.06,0.84,-27.06,44.86,330.0,,,0.0,1.0,1.0,100.0
4120,1,walk,walk,8115,,8115.0,20.0,0.0,1.0,5.0,2.75,-0.006,-0.109,0.678,32.0,25.86,0.0,19.0,1641.0,50.0,-3.5,0.06,-1.0,-0.06,1.14,-26.12,34.26,330.0,,,0.0,1.0,1.0,100.0
4140,1,walk,walk,8116,,8116.0,20.0,0.0,1.0,5.0,3.59,-0.047,-3.414,-0.856,32.0,25.83,0.0,19.0,1641.0,50.0,-4.07,0.07,-0.97,-0.06,1.73,-23.31,22.93,330.0,,,0.0,1.0,1.0,100.0
4160,1,walk,walk,8117,,8117.0,20.0,0.0,1.0,5.0,4.43,-0.094,-2.794,-1.794,32.0,25.76,0.0,19.0,1641.0,50.0,-4.38,0.07,-0.95,-0.05,2.68,-18.71,11.42,330.0,,,0.0,1.0,1.0,100.0
4180,1,walk,walk,8118,,8118.0,20.0,0.0,1.0,5.0,5.24,-0.131,-2.287,-2.69,32.0,25.65,0.0,19.0,1641.0,50.0,-4.29,0.07,-0.93,-0.06,3.93,-12.76,0.12,330.0,,,0.0,1.0,1.0,100.0
4220,1,walk,walk,8119,,8119.0,20.0,0.0,1.0,6.0,6.01,-0.16,-1.685,-3.396,32.0,25.58,0.0,19.0,1641.0,50.0,-3.67,0.06,-0.91,-0.06,5.38,-6.17,-10.69,330.0,,,0.0,1.0,1.0,100.0
4220,1,walk,walk,8120,,8120.0,20.0,0.0,1.0,6.0,6.72,-0.181,-1.209,-4.136,32.0,25.51,0.0,19.0,1641.0,50.0,-2.48,0.04,-0.9,-0.07,6.86,0.27,-20.76,330.0,,,0.0,1.0,1.0,100.0
4280,1,walk,walk,8121,,8121.0,20.0,0.0,1.0,6.0,7.35,-0.194,-0.818,-4.899,32.0,25.37,0.0,19.0,1641.0,50.0,-0.73,0.01,-0.9,-0.09,8.11,5.87,-29.86,330.0,,,0.0,1.0,1.0,100.0
4280,1,walk,walk,8122,,8122.0,20.0,0.0,1.0,6.0,7.88,-0.205,-0.601,-5.364,32.0,25.3,0.0,19.0,1641.0,50.0,1.51,-0.02,-0.9,-0.1,8.89,10.16,-37.78,330.0,,,0.0,1.0,1.0,100.0
4280,1,walk,walk,8123,,8123.0,20.0,0.0,1.0,6.0,8.31,-0.212,-0.292,-5.89,32.0,25.23,0.0,19.0,1641.0,50.0,4.13,-0.07,-0.91,-0.12,9.09,12.92,-44.21,330.0,,,0.0,1.0,1.0,100.0
4300,1,walk,walk,8124,,8124.0,20.0,0.0,1.0,6.0,8.62,-0.215,-0.108,-6.339,32.0,25.16,0.0,19.0,1641.0,50.0,6.99,-0.11,-0.92,-0.14,8.63,14.1,-48.95,330.0,,,0.0,1.0,1.0,100.0
4320,1,walk,walk,8125,,8125.0,20.0,0.0,1.0,6.0,8.81,-0.216,0.036,-6.725,32.0,25.09,0.0,19.0,1641.0,50.0,9.83,-0.16,-0.93,-0.15,7.76,14.3,-51.61,330.0,,,0.0,1.0,1.0,100.0
4340,1,walk,walk,8126,,8126.0,20.0,0.0,1.0,6.0,8.88,-0.21,0.463,-7.824,32.0,24.84,0.0,19.0,1641.0,50.0,12.39,-0.21,-0.94,-0.16,6.8,14.44,-51.87,330.0,,,0.0,1.0,1.0,100.0
4360,1,walk,walk,8127,,8127.0,20.0,0.0,3.0,7.0,8.83,-0.207,0.229,-7.56,32.0,24.88,0.0,19.0,1641.0,50.0,14.44,-0.25,-0.96,-0.16,5.96,15.2,-49.77,330.0,,,0.0,1.0,1.0,100.0
4380,1,walk,walk,8128,,8128.0,20.0,0.0,3.0,7.0,8.68,-0.202,0.385,-8.092,32.0,24.74,0.0,19.0,1641.0,50.0,15.9,-0.28,-0.98,-0.14,5.28,16.71,-45.63,330.0,,,0.0,1.0,1.0,100.0
4400,1,walk,walk,8129,,8129.0,20.0,0.0,3.0,7.0,8.43,-0.192,0.648,-8.809,32.0,24.56,0.0,19.0,1641.0,50.0,16.83,-0.3,-0.99,-0.12,4.7,18.72,-39.92,330.0,,,0.0,1.0,1.0,100.0
4440,1,walk,walk,8130,,8130.0,20.0,0.0,3.0,7.0,8.1,-0.178,0.754,-9.275,32.0,24.53,0.0,19.0,1641.0,50.0,17.32,-0.31,-1.01,-0.1,4.12,20.68,-33.26,330.0,,,0.0,1.0,1.0,100.0
4440,1,walk,walk,8131,,8131.0,20.0,0.0,3.0,7.0,7.71,-0.156,1.456,-9.696,32.0,24.49,0.0,19.0,1641.0,50.0,17.46,-0.32,-1.02,-0.08,3.44,22.03,-26.28,330.0,,,0.0,1.0,1.0,100.0
4460,1,walk,walk,8132,,8132.0,20.0,0.0,3.0,7.0,7.27,-0.132,1.642,-9.063,32.0,24.7,0.0,19.0,1641.0,50.0,17.33,-0.32,-1.03,-0.05,2.58,22.46,-19.52,330.0,,,0.0,1.0,1.0,100.0
4480,1,walk,walk,8133,,8133.0,20.0,0.0,3.0,7.0,6.8,-0.102,1.568,-7.685,33.0,25.09,0.0,19.0,1641.0,50.0,17.02,-0.32,-1.04,-0.04,1.58,21.87,-13.34,330.0,,,0.0,1.0,1.0,100.0
4500,1,walk,walk,8134,,8134.0,20.0,1.0,3.0,7.0,6.33,-0.082,1.052,-5.663,33.0,25.44,0.0,20.0,1641.0,50.0,16.61,-0.31,-1.05,-0.03,0.52,20.3,-7.94,330.0,,,0.0,1.0,1.0,100.0
4520,1,walk,walk,8135,,8135.0,20.0,0.0,3.0,7.0,5.86,-0.068,0.687,-3.625,33.0,25.72,0.0,19.0,1641.0,50.0,16.17,-0.31,-1.06,-0.02,-0.5,17.96,-3.44,330.0,,,0.0,1.0,1.0,100.0
4560,1,walk,walk,8136,,8136.0,20.0,0.0,0.0,1.0,5.42,-0.057,0.583,-2.122,33.0,25.86,0.0,19.0,1641.0,50.0,15.71,-0.3,-1.06,-0.02,-1.41,15.08,0.2,330.0,,,0.0,1.0,1.0,100.0
4580,1,walk,walk,8137,,8137.0,20.0,0.0,0.0,1.0,5.02,-0.051,0.173,-0.716,33.0,25.86,0.0,19.0,1641.0,50.0,15.27,-0.29,-1.06,-0.02,-2.14,12.08,2.98,330.0,,,0.0,1.0,1.0,100.0
4580,1,walk,walk,8138,,8138.0,20.0,0.0,0.0,1.0,4.66,-0.051,0.173,-0.716,33.0,25.86,0.0,39.0,1641.0,50.0,14.83,-0.28,-1.07,-0.02,-2.69,9.27,5.07,330.0,,,0.0,1.0,1.0,100.0
4620,1,walk,walk,8139,,8139.0,20.0,0.0,0.0,1.0,4.36,-0.051,0.173,-0.716,33.0,25.86,0.0,59.0,1641.0,50.0,14.4,-0.27,-1.06,-0.03,-3.07,6.83,6.67,330.0,,,0.0,1.0,1.0,100.0
4620,1,walk,walk,8140,,8140.0,20.0,0.0,0.0,1.0,4.11,-0.054,-0.285,0.0,33.0,26.0,0.0,7.0,1641.0,50.0,14.0,-0.26,-1.06,-0.03,-3.31,4.81,7.82,330.0,,,0.0,1.0,1.0,100.0
4640,1,walk,walk,8141,,8141.0,20.0,0.0,0.0,1.0,3.93,-0.053,0.042,0.0,33.0,25.9,0.0,7.0,1641.0,50.0,13.61,-0.26,-1.06,-0.03,-3.47,3.23,8.46,330.0,,,0.0,1.0,1.0,100.0
4660,1,walk,walk,8142,,8142.0,20.0,0.0,0.0,1.0,3.8,-0.052,0.199,0.0,33.0,25.93,0.0,7.0,1641.0,50.0,13.24,-0.25,-1.05,-0.04,-3.59,2.05,8.53,330.0,,,0.0,1.0,1.0,100.0
4680,1,walk,walk,8143,,8143.0,20.0,0.0,0.0,1.0,3.73,-0.047,0.461,0.0,33.0,25.93,0.0,7.0,1641.0,50.0,12.89,-0.24,-1.05,-0.04,-3.67,1.24,7.94,330.0,,,0.0,1.0,1.0,100.0
4700,1,walk,walk,8144,,8144.0,20.0,0.0,0.0,1.0,3.72,-0.037,0.88,0.0,33.0,25.93,0.0,7.0,1641.0,50.0,12.55,-0.23,-1.04,-0.04,-3.75,0.69,6.6,330.0,,,0.0,1.0,1.0,100.0
4720,1,walk,walk,8145,,8145.0,20.0,0.0,0.0,1.0,3.75,-0.025,0.692,0.0,33.0,25.93,0.0,7.0,1641.0,50.0,12.19,-0.22,-1.04,-0.05,-3.83,0.37,4.52,330.0,,,0.0,1.0,1.0,100.0
4780,1,walk,walk,8146,,8146.0,20.0,0.0,0.0,1.0,3.82,-0.012,1.16,0.0,33.0,25.9,0.0,7.0,1641.0,50.0,11.8,-0.22,-1.03,-0.05,-3.93,0.18,1.71,330.0,,,0.0,1.0,1.0,100.0
4780,1,walk,walk,8147,,8147.0,20.0,1.0,0.0,1.0,3.93,0.005,1.133,0.0,33.0,25.93,0.0,8.0,1641.0,50.0,11.35,-0.21,-1.02,-0.05,-4.04,0.09,-1.76,330.0,,,0.0,1.0,1.0,100.0
4780,1,walk,walk,8148,,8148.0,20.0,1.0,0.0,1.0,4.06,0.027,1.309,0.0,33.0,25.93,0.0,8.0,1641.0,50.0,10.83,-0.2,-1.02,-0.06,-4.14,0.05,-5.81,330.0,,,0.0,1.0,1.0,100.0
4800,1,walk,walk,8149,,8149.0,20.0,1.0,0.0,1.0,4.21,0.053,1.816,0.0,33.0,25.93,0.0,8.0,1641.0,50.0,10.26,-0.18,-1.02,-0.06,-4.24,0.03,-10.41,330.0,,,0.0,1.0,1.0,100.0
4820,1,walk,walk,8150,,8150.0,20.0,1.0,0.0,1.0,4.37,0.082,2.036,0.0,33.0,25.93,0.0,8.0,1641.0,50.0,9.63,-0.17,-1.02,-0.06,-4.32,0.04,-15.5,330.0,,,0.0,1.0,1.0,100.0
4840,1,walk,walk,8151,,8151.0,20.0,1.0,0.0,1.0,4.52,0.111,1.728,0.0,33.0,25.93,0.0,8.0,1641.0,50.0,8.92,-0.16,-1.01,-0.07,-4.42,0.08,-20.91,330.0,,,0.0,1.0,1.0,100.0
4860,1,walk,walk,8152,,8152.0,20.0,1.0,0.0,1.0,4.66,0.131,0.702,0.0,33.0,25.9,0.0,8.0,1641.0,50.0,8.1,-0.14,-1.01,-0.07,-4.52,0.12,-26.14,330.0,,,0.0,1.0,1.0,100.0
4880,1,walk,walk,8153,,8153.0,20.0,1.0,6.0,2.0,4.77,0.131,-0.195,0.0,33.0,25.93,0.0,8.0,1641.0,50.0,7.11,-0.13,-1.01,-0.07,-4.57,0.19,-30.48,330.0,,,0.0,1.0,1.0,100.0
4920,1,walk,walk,8154,,8154.0,20.0,0.0,6.0,2.0,4.85,0.13,-0.209,0.08,33.0,25.9,0.0,18.0,1641.0,50.0,5.93,-0.11,-1.01,-0.08,-4.5,0.21,-33.0,330.0,,,0.0,1.0,1.0,100.0
4920,1,walk,walk,8155,,8155.0,20.0,0.0,6.0,2.0,4.89,0.089,-2.694,-2.661,33.0,25.65,0.0,18.0,1641.0,50.0,4.63,-0.08,-1.02,-0.08,-4.26,0.26,-33.16,330.0,,,0.0,1.0,1.0,100.0
4940,1,walk,walk,8156,,8156.0,20.0,0.0,6.0,2.0,4.88,0.057,-1.77,-3.082,33.0,25.65,0.0,18.0,1641.0,50.0,3.31,-0.06,-1.02,-0.08,-3.88,0.32,-31.08,330.0,,,0.0,1.0,1.0,100.0
4960,1,walk,walk,8157,,8157.0,20.0,1.0,6.0,2.0,4.81,0.041,-0.793,-3.397,33.0,25.65,0.0,19.0,1641.0,50.0,2.05,-0.04,-1.02,-0.09,-3.37,0.38,-27.18,330.0,,,0.0,1.0,1.0,100.0
4980,1,walk,walk,8158,,8158.0,20.0,0.0,6.0,2.0,4.7,0.031,-0.737,-2.726,33.0,25.72,0.0,18.0,1641.0,50.0,0.91,-0.02,-1.02,-0.09,-2.71,0.38,-21.96,330.0,,,0.0,1.0,1.0,100.0
5000,1,walk,walk,8159,,8159.0,20.0,1.0,6.0,2.0,4.53,0.022,-0.504,-2.162,33.0,25.79,0.0,19.0,1641.0,50.0,-0.08,0.0,-1.03,-0.09,-1.9,0.24,-15.89,330.0,,,0.0,1.0,1.0,100.0
5020,1,walk,walk,8160,,8160.0,20.0,1.0,6.0,2.0,4.32,0.014,-0.487,-1.413,33.0,25.86,0.0,19.0,1641.0,50.0,-0.91,0.02,-1.03,-0.1,-0.91,-0.08,-9.26,330.0,,,0.0,1.0,1.0,100.0
5040,1,walk,walk,8161,,8161.0,20.0,1.0,6.0,2.0,4.07,0.005,-0.722,-0.079,33.0,25.9,0.0,19.0,1641.0,50.0,-1.59,0.03,-1.03,-0.1,0.22,-0.58,-2.26,330.0,,,0.0,1.0,1.0,100.0
5100,1,walk,walk,8162,,8162.0,20.0,1.0,6.0,2.0,3.8,-0.002,-0.48,1.053,33.0,25.9,0.0,19.0,1641.0,50.0,-2.12,0.04,-1.04,-0.1,1.45,-1.24,4.98,330.0,,,0.0,1.0,1.0,100.0
5100,1,walk,walk,8163,,8163.0,20.0,1.0,6.0,2.0,3.52,-0.01,-0.535,1.724,33.0,25.86,0.0,19.0,1641.0,50.0,-2.56,0.05,-1.05,-0.1,2.68,-2.04,12.39,330.0,,,0.0,1.0,1.0,100.0
5100,1,walk,walk,8164,,8164.0,20.0,1.0,6.0,2.0,3.23,-0.012,0.029,1.408,33.0,25.86,0.0,19.0,1641.0,50.0,-2.95,0.05,-1.06,-0.1,3.81,-2.89,20.02,330.0,,,0.0,1.0,1.0,100.0
5120,1,walk,walk,8165,,8165.0,20.0,1.0,6.0,2.0,2.96,-0.01,0.166,1.227,33.0,25.86,0.0,19.0,1641.0,50.0,-3.29,0.06,-1.07,-0.1,4.74,-3.7,27.91,330.0,,,0.0,1.0,1.0,100.0
5140,1,walk,walk,8166,,8166.0,20.0,1.0,6.0,2.0,2.72,-0.008,0.246,0.863,33.0,25.9,0.0,19.0,1641.0,50.0,-3.56,0.07,-1.09,-0.1,5.4,-4.43,36.05,330.0,,,0.0,1.0,1.0,100.0
5160,1,walk,walk,8167,,8167.0,20.0,1.0,6.0,2.0,2.51,-0.006,0.139,0.429,33.0,25.9,0.0,19.0,1641.0,50.0,-3.72,0.07,-1.11,-0.1,5.73,-5.08,44.32,330.0,,,0.0,1.0,1.0,100.0
5180,1,walk,walk,8168,,8168.0,20.0,1.0,6.0,2.0,2.36,-0.003,0.198,0.104,33.0,25.9,0.0,19.0,1641.0,50.0,-3.74,0.07,-1.13,-0.09,5.75,-5.71,52.42,330.0,,,0.0,1.0,1.0,100.0
5200,1,walk,walk,8169,,8169.0,20.0,1.0,6.0,2.0,2.28,-0.001,0.044,-0.138,33.0,25.9,0.0,19.0,1641.0,50.0,-3.64,0.07,-1.15,-0.09,5.53,-6.38,59.79,330.0,,,0.0,1.0,1.0,100.0
5220,1,walk,walk,8170,,8170.0,20.0,1.0,6.0,2.0,2.27,-0.001,0.013,0.057,33.0,25.9,0.0,19.0,1641.0,50.0,-3.49,0.07,-1.16,-0.08,5.17,-7.18,65.76,330.0,,,0.0,1.0,1.0,100.0
5260,1,walk,walk,8171,,8171.0,20.0,1.0,6.0,2.0,2.34,-0.002,-0.144,0.335,33.0,25.9,0.0,19.0,1641.0,50.0,-3.35,0.07,-1.17,-0.08,4.77,-8.18,69.71,330.0,,,0.0,1.0,1.0,100.0
5260,1,walk,walk,8172,,8172.0,20.0,1.0,6.0,2.0,2.51,-0.004,-0.116,0.678,33.0,25.9,0.0,19.0,1641.0,50.0,-3.3,0.07,-1.17,-0.07,4.41,-9.36,71.16,330.0,,,0.0,1.0,1.0,100.0
5280,1,walk,walk,8173,,8173.0,20.0,0.0,6.0,2.0,2.77,-0.006,-0.124,0.972,33.0,25.9,0.0,18.0,1641.0,50.0,-3.37,0.07,-1.15,-0.07,4.16,-10.62,69.83,330.0,,,0.0,1.0,1.0,100.0
5300,1,walk,walk,8174,,8174.0,20.0,1.0,6.0,2.0,3.12,-0.009,-0.186,1.218,33.0,25.9,0.0,19.0,1641.0,50.0,-3.61,0.07,-1.14,-0.07,4.04,-11.7,65.65,330.0,,,0.0,1.0,1.0,100.0
5340,1,walk,walk,8175,,8175.0,20.0,1.0,6.0,2.0,3.56,-0.011,-0.158,1.422,33.0,25.86,0.0,19.0,1641.0,50.0,-4.0,0.08,-1.11,-0.06,4.07,-12.29,58.8,330.0,,,0.0,1.0,1.0,100.0
5360,1,walk,walk,8176,,8176.0,20.0,1.0,1.0,5.0,4.08,-0.013,-0.084,1.646,33.0,25.86,0.0,19.0,1641.0,51.0,-4.48,0.08,-1.08,-0.06,4.23,-12.08,49.64,330.0,,,0.0,1.0,1.0,100.0
5360,1,walk,walk,8177,,8177.0,20.0,0.0,1.0,5.0,4.67,-0.015,-0.113,1.869,33.0,25.9,0.0,19.0,1641.0,51.0,-4.94,0.09,-1.05,-0.06,4.48,-10.7,39.03,330.0,,,0.0,1.0,1.0,100.0
5420,1,walk,walk,8178,,8178.0,20.0,0.0,1.0,5.0,5.31,-0.061,-3.75,0.262,33.0,25.9,0.0,19.0,1641.0,51.0,-5.23,0.09,-1.03,-0.06,4.9,-7.95,27.77,330.0,,,0.0,1.0,1.0,100.0
5420,1,walk,walk,8179,,8179.0,20.0,0.0,1.0,5.0,5.98,-0.112,-2.874,-0.765,33.0,25.83,0.0,19.0,1641.0,51.0,-5.22,0.09,-1.0,-0.06,5.6,-4.05,16.43,330.0,,,0.0,1.0,1.0,100.0
5420,1,walk,walk,8180,,8180.0,20.0,0.0,1.0,5.0,6.65,-0.15,-2.496,-1.508,33.0,25.76,0.0,19.0,1641.0,51.0,-4.77,0.08,-0.98,-0.07,6.56,0.59,5.47,330.0,,,0.0,1.0,1.0,100.0
5440,1,walk,walk,8181,,8181.0,20.0,0.0,1.0,6.0,7.31,-0.183,-1.889,-2.091,33.0,25.72,0.0,19.0,1641.0,51.0,-3.81,0.06,-0.96,-0.07,7.7,5.33,-4.8,330.0,,,0.0,1.0,1.0,100.0
5460,1,walk,walk,8182,,8182.0,20.0,0.0,1.0,6.0,7.94,-0.207,-1.44,-2.873,33.0,25.69,0.0,19.0,1641.0,51.0,-2.31,0.04,-0.95,-0.08,8.89,9.52,-14.22,330.0,,,0.0,1.0,1.0,100.0
5500,1,walk,walk,8183,,8183.0,20.0,0.0,1.0,6.0,8.51,-0.225,-1.166,-3.426,33.0,25.62,0.0,19.0,1641.0,51.0,-0.29,0.0,-0.93,-0.09,9.96,12.74,-22.63,330.0,,,0.0,1.0,1.0,100.0
5500,1,walk,walk,8184,,8184.0,20.0,0.0,1.0,6.0,9.0,-0.239,-0.767,-3.912,33.0,25.54,0.0,19.0,1641.0,51.0,2.14,-0.03,-0.92,-0.11,10.65,14.77,-29.97,330.0,,,0.0,1.0,1.0,100.0
5520,1,walk,walk,8185,,8185.0,20.0,0.0,1.0,6.0,9.41,-0.249,-0.553,-4.481,33.0,25.47,0.0,19.0,1641.0,51.0,4.86,-0.08,-0.91,-0.12,10.8,15.58,-36.07,330.0,,,0.0,1.0,1.0,100.0
5540,1,walk,walk,8186,,8186.0,20.0,0.0,1.0,6.0,9.72,-0.256,-0.418,-4.819,33.0,25.44,0.0,19.0,1641.0,51.0,7.73,-0.12,-0.9,-0.13,10.37,15.3,-40.85,330.0,,,0.0,1.0,1.0,100.0
5580,1,walk,walk,8187,,8187.0,20.0,0.0,1.0,6.0,9.93,-0.259,-0.198,-5.267,33.0,25.37,0.0,19.0,1641.0,51.0,10.62,-0.17,-0.89,-0.14,9.45,14.16,-44.27,330.0,,,0.0,1.0,1.0,100.0
5580,1,walk,walk,8188,,8188.0,20.0,0.0,1.0,6.0,10.04,-0.261,-0.143,-5.493,33.0,25.33,0.0,19.0,1641.0,51.0,13.42,-0.21,-0.88,-0.15,8.12,12.39,-46.37,330.0,,,0.0,1.0,1.0,100.0
5600,1,walk,walk,8189,,8189.0,20.0,0.0,1.0,6.0,10.04,-0.262,-0.087,-5.686,33.0,25.33,0.0,19.0,1641.0,51.0,16.05,-0.25,-0.88,-0.15,6.45,10.22,-47.16,330.0,,,0.0,1.0,1.0,100.0
5620,1,walk,walk,8190,,8190.0,20.0,0.0,3.0,7.0,9.94,-0.261,0.058,-5.779,33.0,25.3,0.0,19.0,1641.0,51.0,18.42,-0.29,-0.87,-0.15,4.57,7.8,-46.7,330.0,,,0.0,1.0,1.0,100.0
5640,1,walk,walk,8191,,8191.0,20.0,0.0,3.0,7.0,9.75,-0.261,0.005,-5.837,33.0,25.3,0.0,19.0,1641.0,51.0,20.5,-0.32,-0.87,-0.15,2.55,5.25,-45.09,330.0,,,0.0,1.0,1.0,100.0
5660,1,walk,walk,8192,,8192.0,20.0,0.0,3.0,7.0,9.49,-0.26,0.075,-5.973,33.0,25.26,0.0,19.0,1641.0,51.0,22.06,-0.35,-0.87,-0.15,0.65,2.95,-42.49,330.0,,,0.0,1.0,1.0,100.0
5680,1,walk,walk,8193,,8193.0,20.0,0.0,3.0,7.0,9.16,-0.254,0.918,-7.117,33.0,25.09,0.0,19.0,1641.0,51.0,22.72,-0.37,-0.88,-0.14,-0.9,1.2,-39.13,330.0,,,0.0,1.0,1.0,100.0
5740,1,walk,walk,8194,,8194.0,20.0,0.0,3.0,7.0,8.78,-0.238,1.239,-8.033,33.0,24.91,0.0,19.0,1641.0,51.0,22.41,-0.37,-0.9,-0.12,-1.82,0.29,-35.16,330.0,,,0.0,1.0,1.0,100.0
5740,1,walk,walk,8195,,8195.0,20.0,0.0,3.0,7.0,8.35,-0.212,1.895,-9.322,33.0,24.63,0.0,19.0,1641.0,51.0,21.3,-0.36,-0.93,-0.1,-2.09,0.27,-30.78,330.0,,,0.0,1.0,1.0,100.0
5740,1,walk,walk,8196,,8196.0,20.0,1.0,3.0,7.0,7.91,-0.184,1.867,-9.187,33.0,24.67,0.0,20.0,1641.0,51.0,19.67,-0.34,-0.96,-0.08,-1.89,1.07,-26.19,330.0,,,0.0,1.0,1.0,100.0
5760,1,walk,walk,8197,,8197.0,20.0,1.0,3.0,7.0,7.45,-0.154,1.823,-8.83,33.0,24.81,0.0,20.0,1641.0,51.0,17.81,-0.32,-0.99,-0.06,-1.39,2.46,-21.58,330.0,,,0.0,1.0,1.0,100.0
5780,1,walk,walk,8198,,8198.0,20.0,0.0,3.0,7.0,6.99,-0.126,1.752,-7.927,33.0,25.05,0.0,19.0,1641.0,51.0,15.93,-0.29,-1.02,-0.04,-0.8,4.01,-17.07,330.0,,,0.0,1.0,1.0,100.0
5820,1,walk,walk,8199,,8199.0,20.0,0.0,3.0,7.0,6.54,-0.097,1.811,-6.711,33.0,25.3,0.0,19.0,1641.0,51.0,14.17,-0.26,-1.04,-0.03,-0.23,5.28,-12.77,330.0,,,0.0,1.0,1.0,100.0
5820,1,walk,walk,8200,,8200.0,20.0,0.0,3.0,7.0,6.11,-0.072,1.476,-5.31,33.0,25.54,0.0,19.0,1641.0,51.0,12.64,-0.24,-1.06,-0.02,0.21,6.11,-8.71,330.0,,,0.0,1.0,1.0,100.0
5840,1,walk,walk,8201,,8201.0,20.0,0.0,3.0,7.0,5.71,-0.053,0.926,-3.65,33.0,25.72,0.0,19.0,1641.0,51.0,11.42,-0.22,-1.08,-0.01,0.49,6.4,-4.97,330.0,,,0.0,1.0,1.0,100.0
5860,1,walk,walk,8202,,8202.0,20.0,0.0,0.0,1.0,5.34,-0.043,0.515,-2.296,33.0,25.83,0.0,19.0,1641.0,51.0,10.53,-0.2,-1.09,-0.01,0.6,6.08,-1.61,330.0,,,0.0,1.0,1.0,100.0
5900,1,walk,walk,8203,,8203.0,20.0,0.0,0.0,1.0,5.01,-0.034,0.304,-1.231,33.0,25.83,0.0,19.0,1641.0,51.0,9.94,-0.19,-1.1,-0.01,0.57,5.19,1.29,330.0,,,0.0,1.0,1.0,100.0
5920,1,walk,walk,8204,,8204.0,20.0,0.0,0.0,1.0,4.71,-0.034,0.304,-1.231,33.0,25.83,0.0,39.0,1641.0,51.0,9.57,-0.19,-1.1,-0.01,0.41,3.8,3.68,330.0,,,0.0,1.0,1.0,100.0
5920,1,walk,walk,8205,,8205.0,20.0,0.0,0.0,1.0,4.46,-0.034,0.304,-1.231,33.0,25.83,0.0,59.0,1641.0,51.0,9.35,-0.18,-1.1,-0.01,0.19,2.16,5.7,330.0,,,0.0,1.0,1.0,100.0
5940,1,walk,walk,8206,,8206.0,20.0,0.0,0.0,1.0,4.25,-0.033,0.504,0.0,33.0,25.97,0.0,4.0,1641.0,51.0,9.22,-0.18,-1.09,-0.02,-0.04,0.56,7.42,330.0,,,0.0,1.0,1.0,100.0
5960,1,walk,walk,8207,,8207.0,20.0,0.0,0.0,1.0,4.09,-0.033,0.01,0.0,34.0,25.93,0.0,4.0,1641.0,51.0,9.15,-0.18,-1.09,-0.02,-0.25,-0.86,8.79,330.0,,,0.0,1.0,1.0,100.0
5980,1,walk,walk,8208,,8208.0,20.0,0.0,0.0,1.0,3.97,-0.033,-0.103,0.0,34.0,25.9,0.0,4.0,1641.0,51.0,9.1,-0.17,-1.08,-0.02,-0.43,-2.01,9.76,330.0,,,0.0,1.0,1.0,100.0
6020,1,walk,walk,8209,,8209.0,20.0,0.0,0.0,1.0,3.89,-0.032,0.045,0.0,34.0,25.93,0.0,4.0,1641.0,51.0,9.06,-0.17,-1.07,-0.03,-0.6,-2.82,10.24,330.0,,,0.0,1.0,1.0,100.0
6040,1,walk,walk,8210,,8210.0,20.0,0.0,0.0,1.0,3.86,-0.031,0.297,0.0,34.0,25.93,0.0,4.0,1641.0,51.0,9.01,-0.17,-1.07,-0.03,-0.74,-3.31,10.2,330.0,,,0.0,1.0,1.0,100.0
6060,1,walk,walk,8211,,8211.0,20.0,0.0,0.0,1.0,3.87,-0.026,0.33,0.0,34.0,25.93,0.0,4.0,1641.0,51.0,8.95,-0.17,-1.06,-0.04,-0.88,-3.49,9.57,330.0,,,0.0,1.0,1.0,100.0
6060,1,walk,walk,8212,,8212.0,20.0,0.0,0.0,1.0,3.91,-0.021,0.475,0.0,34.0,25.93,0.0,4.0,1641.0,51.0,8.85,-0.16,-1.05,-0.04,-1.02,-3.43,8.36,330.0,,,0.0,1.0,1.0,100.0
6080,1,walk,walk,8213,,8213.0,20.0,0.0,0.0,1.0,3.98,-0.011,0.867,0.0,34.0,25.9,0.0,4.0,1641.0,51.0,8.72,-0.16,-1.04,-0.04,-1.18,-3.2,6.58,330.0,,,0.0,1.0,1.0,100.0
6100,1,walk,walk,8214,,8214.0,20.0,0.0,0.0,1.0,4.08,-0.001,0.73,0.0,34.0,25.9,0.0,4.0,1641.0,51.0,8.52,-0.16,-1.04,-0.05,-1.36,-2.87,4.24,330.0,,,0.0,1.0,1.0,100.0
6120,1,walk,walk,8215,,8215.0,20.0,0.0,0.0,1.0,4.21,0.016,1.483,0.0,34.0,25.9,0.0,4.0,1641.0,51.0,8.26,-0.15,-1.03,-0.05,-1.57,-2.46,1.39,330.0,,,0.0,1.0,1.0,100.0
6140,1,walk,walk,8216,,8216.0,20.0,1.0,0.0,1.0,4.35,0.038,1.729,0.0,34.0,25.93,0.0,5.0,1641.0,51.0,7.92,-0.14,-1.03,-0.05,-1.76,-1.99,-1.99,330.0,,,0.0,1.0,1.0,100.0
6160,1,walk,walk,8217,,8217.0,20.0,1.0,0.0,1.0,4.5,0.065,1.815,0.0,34.0,25.9,0.0,5.0,1641.0,51.0,7.5,-0.13,-1.02,-0.06,-1.94,-1.49,-5.94,330.0,,,0.0,1.0,1.0,100.0
6180,1,walk,walk,8218,,8218.0,20.0,1.0,0.0,1.0,4.65,0.091,1.464,0.0,34.0,25.93,0.0,5.0,1641.0,51.0,6.99,-0.13,-1.02,-0.06,-2.09,-0.98,-10.45,330.0,,,0.0,1.0,1.0,100.0
6220,1,walk,walk,8219,,8219.0,20.0,1.0,0.0,1.0,4.79,0.107,0.146,0.0,34.0,25.93,0.0,5.0,1641.0,51.0,6.36,-0.11,-1.02,-0.06,-2.21,-0.48,-15.3,330.0,,,0.0,1.0,1.0,100.0
6220,1,walk,walk,8220,,8220.0,20.0,1.0,0.0,1.0,4.92,0.105,-0.19,0.0,34.0,25.93,0.0,5.0,1641.0,51.0,5.56,-0.1,-1.02,-0.07,-2.27,-0.04,-19.87,330.0,,,0.0,1.0,1.0,100.0
6240,1,walk,walk,8221,,8221.0,20.0,1.0,0.0,1.0,5.03,0.092,-1.217,0.0,34.0,25.9,0.0,5.0,1641.0,51.0,4.62,-0.08,-1.02,-0.07,-2.19,0.27,-23.44,330.0,,,0.0,1.0,1.0,100.0
6260,1,walk,walk,8222,,8222.0,20.0,1.0,0.0,1.0,5.1,0.07,-1.356,0.0,34.0,25.93,0.0,5.0,1641.0,51.0,3.56,-0.06,-1.02,-0.07,-1.93,0.51,-25.38,330.0,,,0.0,1.0,1.0,100.0
6280,1,walk,walk,8223,,8223.0,20.0,1.0,6.0,2.0,5.14,0.047,-1.54,0.0,34.0,25.93,0.0,5.0,1641.0,51.0,2.45,-0.04,-1.02,-0.08,-1.48,0.74,-25.33,330.0,,,0.0,1.0,1.0,100.0
6300,1,walk,walk,8224,,8224.0,20.0,0.0,6.0,2.0,5.14,0.04,-1.824,0.314,34.0,25.9,0.0,17.0,1641.0,51.0,1.37,-0.02,-1.03,-0.08,-0.86,0.95,-23.27,330.0,,,0.0,1.0,1.0,100.0
6320,1,walk,walk,8225,,8225.0,20.0,0.0,6.0,2.0,5.09,0.019,-1.357,0.486,34.0,25.9,0.0,17.0,1641.0,51.0,0.36,-0.01,-1.03,-0.08,-0.03,1.13,-19.34,330.0,,,0.0,1.0,1.0,100.0
6360,1,walk,walk,8226,,8226.0,20.0,0.0,6.0,2.0,5.0,0.004,-1.053,1.467,34.0,25.86,0.0,17.0,1641.0,51.0,-0.53,0.01,-1.04,-0.09,1.02,1.16,-13.79,330.0,,,0.0,1.0,1.0,100.0
6380,1,walk,walk,8227,,8227.0,20.0,1.0,6.0,2.0,4.87,-0.01,-0.761,2.36,34.0,25.83,0.0,18.0,1641.0,51.0,-1.32,0.02,-1.04,-0.09,2.26,0.83,-6.9,330.0,,,0.0,1.0,1.0,100.0
6400,1,walk,walk,8228,,8228.0,20.0,0.0,6.0,2.0,4.7,-0.021,-0.687,3.22,34.0,25.76,0.0,17.0,1641.0,51.0,-1.99,0.04,-1.05,-0.09,3.53,0.09,1.01,330.0,,,0.0,1.0,1.0,100.0
6420,1,walk,walk,8229,,8229.0,20.0,1.0,6.0,2.0,4.5,-0.023,0.143,2.593,34.0,25.76,0.0,18.0,1641.0,51.0,-2.57,0.05,-1.06,-0.09,4.67,-0.95,9.59,330.0,,,0.0,1.0,1.0,100.0
6420,1,walk,walk,8230,,8230.0,20.0,1.0,6.0,2.0,4.29,-0.016,0.502,1.512,34.0,25.86,0.0,18.0,1641.0,51.0,-3.04,0.06,-1.08,-0.09,5.56,-2.12,18.58,330.0,,,0.0,1.0,1.0,100.0
6440,1,walk,walk,8231,,8231.0,20.0,1.0,6.0,2.0,4.08,-0.009,0.508,0.737,34.0,25.9,0.0,18.0,1641.0,51.0,-3.37,0.06,-1.1,-0.09,6.11,-3.31,27.71,330.0,,,0.0,1.0,1.0,100.0
6460,1,walk,walk,8232,,8232.0,20.0,1.0,6.0,2.0,3.88,-0.004,0.258,0.136,34.0,25.9,0.0,18.0,1641.0,51.0,-3.51,0.07,-1.12,-0.08,6.28,-4.43,36.79,330.0,,,0.0,1.0,1.0,100.0
6480,1,walk,walk,8233,,8233.0,20.0,1.0,6.0,2.0,3.7,-0.001,0.26,-0.381,34.0,25.9,0.0,18.0,1641.0,51.0,-3.44,0.07,-1.14,-0.08,6.08,-5.45,45.58,330.0,,,0.0,1.0,1.0,100.0
6500,1,walk,walk,8234,,8234.0,20.0,1.0,6.0,2.0,3.57,0.002,0.249,-0.698,34.0,25.9,0.0,18.0,1641.0,51.0,-3.16,0.06,-1.15,-0.08,5.58,-6.44,53.77,330.0,,,0.0,1.0,1.0,100.0
6520,1,walk,walk,8235,,8235.0,20.0,1.0,6.0,2.0,3.5,0.003,0.022,-0.41,34.0,25.9,0.0,18.0,1641.0,51.0,-2.75,0.06,-1.16,-0.07,4.86,-7.46,60.8,330.0,,,0.0,1.0,1.0,100.0
6580,1,walk,walk,8236,,8236.0,20.0,1.0,6.0,2.0,3.49,0.002,0.026,-0.311,34.0,25.9,0.0,18.0,1641.0,51.0,-2.29,0.05,-1.16,-0.07,4.07,-8.66,66.1,330.0,,,0.0,1.0,1.0,100.0
6580,1,walk,walk,8237,,8237.0,20.0,1.0,6.0,2.0,3.56,0.001,-0.13,0.03,34.0,25.9,0.0,18.0,1641.0,51.0,-1.87,0.04,-1.16,-0.06,3.31,-10.14,69.2,330.0,,,0.0,1.0,1.0,100.0
6580,1,walk,walk,8238,,8238.0,20.0,1.0,6.0,2.0,3.72,-0.001,-0.151,0.325,34.0,25.9,0.0,18.0,1641.0,51.0,-1.55,0.03,-1.14,-0.06,2.66,-11.89,69.74,330.0,,,0.0,1.0,1.0,100.0
6600,1,walk,walk,8239,,8239.0,20.0,0.0,6.0,2.0,3.98,-0.002,-0.15,0.458,34.0,25.9,0.0,17.0,1641.0,51.0,-1.39,0.03,-1.12,-0.05,2.18,-13.8,67.57,330.0,,,0.0,1.0,1.0,100.0
6620,1,walk,walk,8240,,8240.0,20.0,1.0,6.0,2.0,4.32,-0.004,-0.096,0.639,34.0,25.9,0.0,18.0,1641.0,51.0,-1.42,0.03,-1.09,-0.05,1.89,-15.57,62.78,330.0,,,0.0,1.0,1.0,100.0
6680,1,walk,walk,8241,,8241.0,20.0,1.0,6.0,2.0,4.75,-0.005,-0.013,0.703,34.0,25.9,0.0,18.0,1641.0,51.0,-1.61,0.03,-1.06,-0.04,1.78,-16.78,55.67,330.0,,,0.0,1.0,1.0,100.0
6700,1,walk,walk,8242,,8242.0,20.0,1.0,1.0,5.0,5.26,-0.005,0.077,0.564,34.0,25.9,0.0,18.0,1641.0,52.0,-1.92,0.03,-1.03,-0.04,1.84,-17.01,46.69,330.0,,,0.0,1.0,1.0,100.0
6700,1,walk,walk,8243,,8243.0,20.0,0.0,1.0,5.0,5.84,-0.005,0.069,0.513,34.0,25.83,0.0,19.0,1641.0,52.0,-2.19,0.04,-1.0,-0.04,2.01,-15.68,36.43,330.0,,,0.0,1.0,1.0,100.0
6720,1,walk,walk,8244,,8244.0,20.0,0.0,1.0,5.0,6.46,-0.044,-3.304,-1.242,34.0,25.79,0.0,19.0,1641.0,52.0,-2.28,0.04,-0.97,-0.04,2.34,-12.68,25.77,330.0,,,0.0,1.0,1.0,100.0
6720,1,walk,walk,8245,,8245.0,20.0,0.0,1.0,5.0,7.12,-0.091,-2.743,-2.04,34.0,25.72,0.0,19.0,1641.0,52.0,-2.04,0.03,-0.94,-0.04,2.98,-8.24,15.36,330.0,,,0.0,1.0,1.0,100.0
6740,1,walk,walk,8246,,8246.0,20.0,0.0,1.0,5.0,7.78,-0.128,-2.29,-2.804,34.0,25.62,0.0,19.0,1641.0,52.0,-1.37,0.02,-0.93,-0.05,4.0,-2.95,5.58,330.0,,,0.0,1.0,1.0,100.0
6780,1,walk,walk,8247,,8247.0,20.0,0.0,1.0,6.0,8.43,-0.157,-1.742,-3.343,34.0,25.58,0.0,19.0,1641.0,52.0,-0.23,0.0,-0.91,-0.06,5.31,2.5,-3.36,330.0,,,0.0,1.0,1.0,100.0
6780,1,walk,walk,8248,,8248.0,20.0,0.0,1.0,6.0,9.04,-0.178,-1.244,-4.198,34.0,25.51,0.0,19.0,1641.0,52.0,1.33,-0.02,-0.9,-0.07,6.75,7.4,-11.35,330.0,,,0.0,1.0,1.0,100.0
6800,1,walk,walk,8249,,8249.0,20.0,0.0,1.0,6.0,9.61,-0.192,-0.6,-4.934,34.0,25.37,0.0,19.0,1641.0,52.0,3.26,-0.05,-0.89,-0.08,8.12,11.27,-18.38,330.0,,,0.0,1.0,1.0,100.0
6820,1,walk,walk,8250,,8250.0,20.0,0.0,1.0,6.0,10.1,-0.203,-0.714,-5.397,34.0,25.3,0.0,19.0,1641.0,52.0,5.43,-0.08,-0.89,-0.1,9.27,13.8,-24.41,330.0,,,0.0,1.0,1.0,100.0
6840,1,walk,walk,8251,,8251.0,20.0,0.0,1.0,6.0,10.52,-0.21,-0.426,-5.87,34.0,25.23,0.0,19.0,1641.0,52.0,7.74,-0.12,-0.88,-0.11,9.93,14.9,-29.48,330.0,,,0.0,1.0,1.0,100.0
6860,1,walk,walk,8252,,8252.0,20.0,0.0,1.0,6.0,10.85,-0.213,-0.049,-6.499,34.0,25.12,0.0,19.0,1641.0,52.0,10.08,-0.16,-0.88,-0.13,9.93,14.77,-33.58,330.0,,,0.0,1.0,1.0,100.0
6900,1,walk,walk,8253,,8253.0,20.0,0.0,1.0,6.0,11.09,-0.213,-0.017,-6.845,34.0,25.05,0.0,19.0,1641.0,52.0,12.37,-0.19,-0.87,-0.14,9.25,13.74,-36.73,330.0,,,0.0,1.0,1.0,100.0
6900,1,walk,walk,8254,,8254.0,20.0,0.0,1.0,6.0,11.23,-0.212,0.041,-7.054,34.0,24.98,0.0,19.0,1641.0,52.0,14.58,-0.23,-0.87,-0.15,7.91,12.03,-38.96,330.0,,,0.0,1.0,1.0,100.0
6920,1,walk,walk,8255,,8255.0,20.0,0.0,1.0,6.0,11.29,-0.211,0.095,-7.195,34.0,24.95,0.0,19.0,1641.0,52.0,16.48,-0.26,-0.87,-0.16,6.07,9.93,-40.2,330.0,,,0.0,1.0,1.0,100.0
6940,1,walk,walk,8256,,8256.0,20.0,0.0,3.0,7.0,11.25,-0.203,1.061,-8.798,34.0,24.6,0.0,19.0,1641.0,52.0,17.88,-0.29,-0.88,-0.16,4.25,8.24,-40.06,330.0,,,0.0,1.0,1.0,100.0
6960,1,walk,walk,8257,,8257.0,20.0,0.0,3.0,7.0,11.13,-0.193,0.524,-8.59,34.0,24.56,0.0,19.0,1641.0,52.0,18.7,-0.31,-0.91,-0.14,2.85,7.49,-38.41,330.0,,,0.0,1.0,1.0,100.0
6980,1,walk,walk,8258,,8258.0,20.0,1.0,3.0,7.0,10.95,-0.181,0.765,-9.721,34.0,24.28,0.0,20.0,1641.0,52.0,19.02,-0.32,-0.93,-0.12,2.01,7.74,-35.26,330.0,,,0.0,1.0,1.0,100.0
7000,1,walk,walk,8259,,8259.0,20.0,0.0,3.0,7.0,10.7,-0.168,0.981,-9.851,34.0,24.25,0.0,19.0,1641.0,52.0,18.98,-0.33,-0.96,-0.1,1.61,8.66,-30.86,330.0,,,0.0,1.0,1.0,100.0
7020,1,walk,walk,8260,,8260.0,20.0,0.0,3.0,7.0,10.4,-0.153,1.01,-9.741,34.0,24.32,0.0,19.0,1641.0,52.0,18.73,-0.34,-0.99,-0.07,1.45,9.84,-25.56,330.0,,,0.0,1.0,1.0,100.0
7060,1,walk,walk,8261,,8261.0,20.0,0.0,3.0,7.0,10.06,-0.141,0.538,-8.375,34.0,24.7,0.0,19.0,1641.0,52.0,18.35,-0.34,-1.02,-0.04,1.33,10.82,-19.76,330.0,,,0.0,1.0,1.0,100.0
7060,1,walk,walk,8262,,8262.0,20.0,0.0,3.0,7.0,9.7,-0.132,0.587,-7.252,34.0,25.05,0.0,19.0,1641.0,52.0,17.91,-0.34,-1.04,-0.02,1.12,11.33,-13.83,330.0,,,0.0,1.0,1.0,100.0
7080,1,walk,walk,8263,,8263.0,20.0,1.0,3.0,7.0,9.33,-0.121,0.723,-5.897,34.0,25.37,0.0,20.0,1641.0,52.0,17.47,-0.33,-1.05,0.0,0.75,11.17,-8.12,330.0,,,0.0,1.0,1.0,100.0
7100,1,walk,walk,8264,,8264.0,20.0,0.0,3.0,7.0,8.96,-0.108,0.817,-4.333,34.0,25.62,0.0,19.0,1641.0,52.0,17.09,-0.33,-1.07,0.01,0.2,10.28,-3.01,330.0,,,0.0,1.0,1.0,100.0
7120,1,walk,walk,8265,,8265.0,20.0,0.0,0.0,1.0,8.6,-0.095,0.805,-2.733,34.0,25.79,0.0,19.0,1641.0,52.0,16.76,-0.32,-1.07,0.01,-0.48,8.68,1.15,330.0,,,0.0,1.0,1.0,100.0
7140,1,walk,walk,8266,,8266.0,20.0,0.0,0.0,1.0,8.28,-0.077,1.557,-1.119,34.0,25.79,0.0,19.0,1641.0,52.0,16.52,-0.32,-1.08,0.02,-1.21,6.48,3.93,330.0,,,0.0,1.0,1.0,100.0
7160,1,walk,walk,8267,,8267.0,20.0,0.0,0.0,1.0,7.98,-0.077,1.557,-1.119,34.0,25.79,0.0,39.0,1641.0,52.0,16.31,-0.31,-1.07,0.01,-1.9,3.9,5.38,330.0,,,0.0,1.0,1.0,100.0
7200,1,walk,walk,8268,,8268.0,20.0,0.0,0.0,1.0,7.73,-0.077,1.557,-1.119,34.0,25.79,0.0,59.0,1641.0,52.0,16.06,-0.31,-1.07,0.01,-2.45,1.24,5.89,330.0,,,0.0,1.0,1.0,100.0
7200,1,walk,walk,8269,,8269.0,20.0,0.0,0.0,1.0,7.52,-0.052,7.98,0.0,34.0,25.93,0.0,5.0,1641.0,52.0,15.77,-0.3,-1.07,0.0,-2.81,-1.19,5.73,330.0,,,0.0,1.0,1.0,100.0
7220,1,walk,walk,8270,,8270.0,20.0,0.0,0.0,1.0,7.37,-0.052,0.164,0.0,34.0,25.9,0.0,5.0,1641.0,52.0,15.44,-0.29,-1.06,0.0,-3.0,-3.19,5.11,330.0,,,0.0,1.0,1.0,100.0
7240,1,walk,walk,8271,,8271.0,20.0,0.0,0.0,1.0,7.26,-0.05,0.186,0.0,34.0,25.9,0.0,5.0,1641.0,52.0,15.07,-0.28,-1.06,-0.01,-3.06,-4.67,4.16,330.0,,,0.0,1.0,1.0,100.0
7260,1,walk,walk,8272,,8272.0,20.0,0.0,0.0,1.0,7.19,-0.046,0.366,0.0,34.0,25.9,0.0,5.0,1641.0,52.0,14.66,-0.27,-1.05,-0.01,-3.05,-5.61,2.89,330.0,,,0.0,1.0,1.0,100.0
7280,1,walk,walk,8273,,8273.0,20.0,0.0,0.0,1.0,7.17,-0.038,0.526,0.0,34.0,25.9,0.0,5.0,1641.0,52.0,14.22,-0.26,-1.04,-0.02,-3.0,-6.12,1.3,330.0,,,0.0,1.0,1.0,100.0
7320,1,walk,walk,8274,,8274.0,20.0,0.0,0.0,1.0,7.19,-0.031,0.318,0.0,34.0,25.9,0.0,5.0,1641.0,52.0,13.76,-0.25,-1.04,-0.02,-2.96,-6.28,-0.61,330.0,,,0.0,1.0,1.0,100.0
7340,1,walk,walk,8275,,8275.0,20.0,1.0,0.0,1.0,7.23,-0.025,0.41,0.0,34.0,25.9,0.0,6.0,1641.0,52.0,13.25,-0.24,-1.03,-0.03,-2.94,-6.16,-2.78,330.0,,,0.0,1.0,1.0,100.0
7380,1,walk,walk,8276,,8276.0,20.0,1.0,0.0,1.0,7.3,-0.017,0.749,0.0,34.0,25.9,0.0,6.0,1641.0,52.0,12.69,-0.23,-1.02,-0.03,-2.93,-5.81,-5.15,330.0,,,0.0,1.0,1.0,100.0
7380,1,walk,walk,8277,,8277.0,20.0,1.0,0.0,1.0,7.39,-0.002,0.818,0.0,34.0,25.9,0.0,6.0,1641.0,52.0,12.09,-0.22,-1.02,-0.04,-2.9,-5.3,-7.71,330.0,,,0.0,1.0,1.0,100.0
7380,1,walk,walk,8278,,8278.0,20.0,1.0,0.0,1.0,7.48,0.011,1.131,0.0,34.0,25.93,0.0,6.0,1641.0,52.0,11.43,-0.21,-1.02,-0.04,-2.85,-4.66,-10.44,330.0,,,0.0,1.0,1.0,100.0
7400,1,walk,walk,8279,,8279.0,20.0,1.0,0.0,1.0,7.57,0.028,1.099,0.0,34.0,25.9,0.0,6.0,1641.0,52.0,10.74,-0.19,-1.02,-0.04,-2.76,-3.94,-13.33,330.0,,,0.0,1.0,1.0,100.0
7420,1,walk,walk,8280,,8280.0,20.0,1.0,0.0,1.0,7.66,0.048,1.209,0.0,34.0,25.9,0.0,6.0,1641.0,52.0,10.01,-0.18,-1.02,-0.05,-2.63,-3.23,-16.37,330.0,,,0.0,1.0,1.0,100.0
7440,1,walk,walk,8281,,8281.0,20.0,1.0,0.0,1.0,7.73,0.066,1.388,0.0,34.0,25.9,0.0,6.0,1641.0,52.0,9.26,-0.17,-1.02,-0.05,-2.46,-2.56,-19.53,330.0,,,0.0,1.0,1.0,100.0
7460,1,walk,walk,8282,,8282.0,20.0,1.0,0.0,1.0,7.78,0.079,0.437,0.0,34.0,25.9,0.0,6.0,1641.0,52.0,8.45,-0.15,-1.02,-0.05,-2.27,-1.96,-22.58,330.0,,,0.0,1.0,1.0,100.0
7500,1,walk,walk,8283,,8283.0,20.0,1.0,6.0,2.0,7.81,0.079,-0.156,0.0,34.0,25.9,0.0,6.0,1641.0,52.0,7.55,-0.13,-1.02,-0.06,-2.03,-1.45,-25.1,330.0,,,0.0,1.0,1.0,100.0
7520,1,walk,walk,8284,,8284.0,20.0,0.0,6.0,2.0,7.8,0.079,-0.062,0.057,34.0,25.9,0.0,17.0,1641.0,52.0,6.55,-0.12,-1.02,-0.06,-1.72,-0.76,-26.47,330.0,,,0.0,1.0,1.0,100.0
7520,1,walk,walk,8285,,8285.0,20.0,0.0,6.0,2.0,7.75,0.05,-1.948,-1.031,34.0,25.83,0.0,17.0,1641.0,52.0,5.46,-0.1,-1.02,-0.06,-1.3,0.11,-26.12,330.0,,,0.0,1.0,1.0,100.0
7540,1,walk,walk,8286,,8286.0,20.0,0.0,6.0,2.0,7.67,0.025,-1.623,-0.361,34.0,25.9,0.0,17.0,1641.0,52.0,4.32,-0.08,-1.03,-0.07,-0.71,1.03,-23.83,330.0,,,0.0,1.0,1.0,100.0
7560,1,walk,walk,8287,,8287.0,20.0,1.0,6.0,2.0,7.54,0.008,-0.914,0.392,34.0,25.9,0.0,18.0,1641.0,52.0,3.18,-0.06,-1.03,-0.07,0.09,1.77,-19.61,330.0,,,0.0,1.0,1.0,100.0
7580,1,walk,walk,8288,,8288.0,20.0,0.0,6.0,2.0,7.38,-0.005,-0.825,1.858,34.0,25.86,0.0,17.0,1641.0,52.0,2.08,-0.04,-1.04,-0.07,1.06,2.07,-13.65,330.0,,,0.0,1.0,1.0,100.0
7600,1,walk,walk,8289,,8289.0,20.0,1.0,6.0,2.0,7.18,-0.017,-0.728,2.948,34.0,25.79,0.0,18.0,1641.0,52.0,1.04,-0.02,-1.05,-0.08,2.05,1.84,-6.23,330.0,,,0.0,1.0,1.0,100.0
7640,1,walk,walk,8290,,8290.0,20.0,1.0,6.0,2.0,6.95,-0.023,0.025,2.869,34.0,25.72,0.0,18.0,1641.0,52.0,0.05,0.0,-1.06,-0.08,2.9,1.13,2.33,330.0,,,0.0,1.0,1.0,100.0
7660,1,walk,walk,8291,,8291.0,20.0,1.0,6.0,2.0,6.71,-0.02,0.455,1.976,34.0,25.83,0.0,18.0,1641.0,52.0,-0.84,0.02,-1.08,-0.08,3.46,0.03,11.7,330.0,,,0.0,1.0,1.0,100.0
7700,1,walk,walk,8292,,8292.0,20.0,1.0,6.0,2.0,6.45,-0.012,0.522,1.001,34.0,25.86,0.0,18.0,1641.0,52.0,-1.58,0.03,-1.1,-0.08,3.63,-1.35,21.54,330.0,,,0.0,1.0,1.0,100.0
7700,1,walk,walk,8293,,8293.0,20.0,1.0,6.0,2.0,6.21,-0.005,0.365,0.304,34.0,25.9,0.0,18.0,1641.0,52.0,-2.08,0.04,-1.12,-0.08,3.39,-3.03,31.43,330.0,,,0.0,1.0,1.0,100.0
7700,1,walk,walk,8294,,8294.0,20.0,1.0,6.0,2.0,5.98,-0.002,0.199,-0.118,34.0,25.9,0.0,18.0,1641.0,52.0,-2.35,0.05,-1.14,-0.07,2.79,-4.94,40.86,330.0,,,0.0,1.0,1.0,100.0
7720,1,walk,walk,8295,,8295.0,20.0,1.0,6.0,2.0,5.79,-0.001,-0.101,0.071,34.0,25.9,0.0,18.0,1641.0,52.0,-2.41,0.05,-1.16,-0.07,1.98,-6.97,49.12,330.0,,,0.0,1.0,1.0,100.0
7740,1,walk,walk,8296,,8296.0,20.0,1.0,6.0,2.0,5.65,-0.002,-0.023,0.16,34.0,25.9,0.0,18.0,1641.0,52.0,-2.35,0.05,-1.17,-0.06,1.1,-9.03,55.62,330.0,,,0.0,1.0,1.0,100.0
7760,1,walk,walk,8297,,8297.0,20.0,1.0,6.0,2.0,5.57,-0.003,-0.142,0.424,34.0,25.9,0.0,18.0,1641.0,52.0,-2.24,0.05,-1.17,-0.06,0.3,-11.05,59.88,330.0,,,0.0,1.0,1.0,100.0
7780,1,walk,walk,8298,,8298.0,20.0,1.0,6.0,2.0,5.56,-0.004,-0.108,0.634,34.0,25.9,0.0,18.0,1641.0,52.0,-2.17,0.04,-1.16,-0.05,-0.33,-12.9,61.58,330.0,,,0.0,1.0,1.0,100.0
7800,1,walk,walk,8299,,8299.0,20.0,0.0,6.0,2.0,5.64,-0.006,-0.126,0.854,34.0,25.9,0.0,17.0,1641.0,52.0,-2.18,0.04,-1.15,-0.05,-0.71,-14.43,60.59,330.0,,,0.0,1.0,1.0,100.0
7820,1,walk,walk,8300,,8300.0,20.0,0.0,6.0,2.0,5.8,-0.007,-0.095,1.015,34.0,25.9,0.0,17.0,1641.0,52.0,-2.29,0.05,-1.12,-0.04,-0.82,-15.44,57.0,330.0,,,0.0,1.0,1.0,100.0
7860,1,walk,walk,8301,,8301.0,20.0,1.0,6.0,2.0,6.04,-0.009,-0.127,1.118,34.0,25.9,0.0,18.0,1641.0,52.0,-2.5,0.05,-1.1,-0.04,-0.66,-15.7,51.09,330.0,,,0.0,1.0,1.0,100.0
7860,1,walk,walk,8302,,8302.0,20.0,1.0,6.0,2.0,6.36,-0.009,0.083,1.113,34.0,25.86,0.0,18.0,1641.0,52.0,-2.76,0.05,-1.07,-0.04,-0.26,-14.99,43.26,330.0,,,0.0,1.0,1.0,100.0
7880,1,walk,walk,8303,,8303.0,20.0,1.0,1.0,5.0,6.75,-0.009,-0.03,1.107,34.0,25.86,0.0,18.0,1641.0,53.0,-3.01,0.05,-1.04,-0.04,0.38,-13.16,34.03,330.0,,,0.0,1.0,1.0,100.0
7900,1,walk,walk,8304,,8304.0,20.0,0.0,1.0,5.0,7.19,-0.009,-0.037,1.087,34.0,25.86,0.0,19.0,1641.0,53.0,-3.11,0.05,-1.01,-0.04,1.22,-10.13,24.2,330.0,,,0.0,1.0,1.0,100.0
7940,1,walk,walk,8305,,8305.0,20.0,0.0,1.0,5.0,7.67,-0.052,-3.563,-0.474,34.0,25.83,0.0,19.0,1641.0,53.0,-2.93,0.05,-0.99,-0.04,2.24,-5.97,14.54,330.0,,,0.0,1.0,1.0,100.0
7960,1,walk,walk,8306,,8306.0,20.0,0.0,1.0,5.0,8.17,-0.1,-2.885,-1.348,34.0,25.79,0.0,19.0,1641.0,53.0,-2.39,0.04,-0.97,-0.05,3.42,-0.98,5.55,330.0,,,0.0,1.0,1.0,100.0
7960,1,walk,walk,8307,,8307.0,20.0,0.0,1.0,6.0,8.66,-0.138,-2.441,-2.169,34.0,25.72,0.0,19.0,1641.0,53.0,-1.43,0.02,-0.95,-0.05,4.63,4.36,-2.48,330.0,,,0.0,1.0,1.0,100.0
7980,1,walk,walk,8308,,8308.0,20.0,0.0,1.0,6.0,9.13,-0.168,-1.702,-3.089,34.0,25.62,0.0,19.0,1641.0,53.0,-0.07,0.0,-0.94,-0.07,5.81,9.43,-9.44,330.0,,,0.0,1.0,1.0,100.0
8020,1,walk,walk,8309,,8309.0,20.0,0.0,1.0,6.0,9.57,-0.19,-1.272,-3.693,34.0,25.54,0.0,19.0,1641.0,53.0,1.64,-0.03,-0.93,-0.08,6.82,13.66,-15.4,330.0,,,0.0,1.0,1.0,100.0
8020,1,walk,walk,8310,,8310.0,20.0,0.0,1.0,6.0,9.95,-0.207,-0.945,-4.297,34.0,25.51,0.0,19.0,1641.0,53.0,3.63,-0.06,-0.91,-0.1,7.52,16.67,-20.5,330.0,,,0.0,1.0,1.0,100.0
8060,1,walk,walk,8311,,8311.0,20.0,0.0,1.0,6.0,10.27,-0.218,-0.668,-4.82,34.0,25.4,0.0,19.0,1641.0,53.0,5.79,-0.09,-0.9,-0.11,7.78,18.34,-24.86,330.0,,,0.0,1.0,1.0,100.0
8060,1,walk,walk,8312,,8312.0,20.0,0.0,1.0,6.0,10.52,-0.227,-0.532,-5.145,34.0,25.37,0.0,19.0,1641.0,53.0,8.03,-0.13,-0.89,-0.13,7.52,18.77,-28.56,330.0,,,0.0,1.0,1.0,100.0
8080,1,walk,walk,8313,,8313.0,20.0,0.0,1.0,6.0,10.69,-0.232,-0.299,-5.5,34.0,25.3,0.0,19.0,1641.0,53.0,10.26,-0.16,-0.88,-0.14,6.7,18.14,-31.69,330.0,,,0.0,1.0,1.0,100.0
8100,1,walk,walk,8314,,8314.0,20.0,0.0,1.0,6.0,10.78,-0.234,-0.053,-6.024,34.0,25.19,0.0,19.0,1641.0,53.0,12.43,-0.19,-0.87,-0.16,5.35,16.66,-34.31,330.0,,,0.0,1.0,1.0,100.0
8120,1,walk,walk,8315,,8315.0,20.0,0.0,1.0,6.0,10.8,-0.234,-0.018,-6.286,34.0,25.12,0.0,19.0,1641.0,53.0,14.52,-0.22,-0.86,-0.17,3.49,14.51,-36.5,330.0,,,0.0,1.0,1.0,100.0
8160,1,walk,walk,8316,,8316.0,20.0,0.0,1.0,6.0,10.74,-0.234,-0.095,-6.459,34.0,25.09,0.0,19.0,1641.0,53.0,16.49,-0.25,-0.85,-0.17,1.2,11.79,-38.26,330.0,,,0.0,1.0,1.0,100.0
8160,1,walk,walk,8317,,8317.0,20.0,0.0,1.0,6.0,10.61,-0.233,0.225,-6.737,34.0,25.05,0.0,19.0,1641.0,53.0,18.04,-0.28,-0.85,-0.17,-1.02,9.29,-39.24,330.0,,,0.0,1.0,1.0,100.0
8180,1,walk,walk,8318,,8318.0,20.0,0.0,3.0,7.0,10.41,-0.219,1.263,-9.104,34.0,24.53,0.0,19.0,1641.0,53.0,18.97,-0.3,-0.86,-0.17,-2.69,7.66,-39.12,330.0,,,0.0,1.0,1.0,100.0
8200,1,walk,walk,8319,,8319.0,20.0,0.0,3.0,7.0,10.16,-0.206,0.755,-9.165,34.0,24.46,0.0,19.0,1641.0,53.0,19.22,-0.31,-0.88,-0.15,-3.67,7.23,-37.76,330.0,,,0.0,1.0,1.0,100.0
8220,1,walk,walk,8320,,8320.0,20.0,1.0,3.0,7.0,9.86,-0.191,0.996,-9.68,34.0,24.21,0.0,20.0,1641.0,53.0,18.91,-0.31,-0.91,-0.13,-4.02,7.88,-35.16,330.0,,,0.0,1.0,1.0,100.0
8240,1,walk,walk,8321,,8321.0,20.0,0.0,3.0,7.0,9.52,-0.176,0.929,-10.082,34.0,24.11,0.0,19.0,1641.0,53.0,18.23,-0.31,-0.94,-0.1,-3.95,9.23,-31.51,330.0,,,0.0,1.0,1.0,100.0
8280,1,walk,walk,8322,,8322.0,20.0,0.0,3.0,7.0,9.15,-0.157,1.149,-10.23,34.0,24.14,0.0,19.0,1641.0,53.0,17.35,-0.3,-0.97,-0.07,-3.69,10.64,-27.07,330.0,,,0.0,1.0,1.0,100.0
8300,1,walk,walk,8323,,8323.0,20.0,0.0,3.0,7.0,8.76,-0.14,1.083,-9.604,34.0,24.39,0.0,19.0,1641.0,53.0,16.39,-0.29,-1.0,-0.05,-3.45,11.54,-22.13,330.0,,,0.0,1.0,1.0,100.0
8300,1,walk,walk,8324,,8324.0,20.0,0.0,3.0,7.0,8.36,-0.122,1.376,-9.108,34.0,24.67,0.0,19.0,1641.0,53.0,15.42,-0.28,-1.02,-0.03,-3.38,11.82,-17.02,330.0,,,0.0,1.0,1.0,100.0
8340,1,walk,walk,8325,,8325.0,20.0,0.0,3.0,7.0,7.96,-0.1,1.115,-7.562,34.0,25.02,0.0,19.0,1641.0,53.0,14.52,-0.27,-1.04,-0.01,-3.51,11.49,-11.98,330.0,,,0.0,1.0,1.0,100.0
8360,1,walk,walk,8326,,8326.0,20.0,0.0,3.0,7.0,7.56,-0.086,0.937,-5.871,34.0,25.37,0.0,19.0,1641.0,53.0,13.76,-0.26,-1.06,0.0,-3.78,10.57,-7.31,330.0,,,0.0,1.0,1.0,100.0
8380,1,walk,walk,8327,,8327.0,20.0,0.0,3.0,7.0,7.18,-0.072,0.657,-4.06,34.0,25.65,0.0,19.0,1641.0,53.0,13.14,-0.25,-1.07,0.0,-4.1,9.08,-3.25,330.0,,,0.0,1.0,1.0,100.0
8380,1,walk,walk,8328,,8328.0,20.0,0.0,0.0,1.0,6.82,-0.06,0.789,-2.464,34.0,25.83,0.0,19.0,1641.0,53.0,12.67,-0.24,-1.08,0.0,-4.38,7.15,0.01,330.0,,,0.0,1.0,1.0,100.0
8400,1,walk,walk,8329,,8329.0,20.0,0.0,0.0,1.0,6.5,-0.06,0.789,-2.464,34.0,25.83,0.0,39.0,1641.0,53.0,12.33,-0.24,-1.08,0.0,-4.57,4.84,2.35,330.0,,,0.0,1.0,1.0,100.0
8420,1,walk,walk,8330,,8330.0,20.0,0.0,0.0,1.0,6.21,-0.06,0.789,-2.464,34.0,25.83,0.0,59.0,1641.0,53.0,12.05,-0.23,-1.08,-0.01,-4.62,2.48,4.0,330.0,,,0.0,1.0,1.0,100.0
8440,1,walk,walk,8331,,8331.0,20.0,0.0,0.0,1.0,5.96,-0.06,0.789,-2.464,34.0,25.83,0.0,79.0,1641.0,53.0,11.79,-0.23,-1.08,-0.02,-4.54,0.36,5.28,330.0,,,0.0,1.0,1.0,100.0
8460,1,walk,walk,8332,,8332.0,20.0,0.0,0.0,1.0,5.76,-0.054,-0.757,0.0,35.0,25.97,0.0,5.0,1641.0,53.0,11.54,-0.22,-1.08,-0.02,-4.38,-1.38,6.37,330.0,,,0.0,1.0,1.0,100.0
8500,1,walk,walk,8333,,8333.0,20.0,0.0,0.0,1.0,5.6,-0.056,-0.081,0.0,35.0,25.9,0.0,5.0,1641.0,53.0,11.28,-0.21,-1.07,-0.03,-4.18,-2.7,7.29,330.0,,,0.0,1.0,1.0,100.0
8500,1,walk,walk,8334,,8334.0,20.0,0.0,0.0,1.0,5.49,-0.056,-0.015,0.0,35.0,25.9,0.0,5.0,1641.0,53.0,11.03,-0.21,-1.07,-0.03,-4.0,-3.61,7.99,330.0,,,0.0,1.0,1.0,100.0
8520,1,walk,walk,8335,,8335.0,20.0,0.0,0.0,1.0,5.41,-0.057,-0.023,0.0,35.0,25.9,0.0,5.0,1641.0,53.0,10.78,-0.2,-1.06,-0.04,-3.84,-4.15,8.41,330.0,,,0.0,1.0,1.0,100.0
8540,1,walk,walk,8336,,8336.0,20.0,0.0,0.0,1.0,5.38,-0.056,0.022,0.0,35.0,25.9,0.0,5.0,1641.0,53.0,10.55,-0.2,-1.05,-0.04,-3.72,-4.36,8.48,330.0,,,0.0,1.0,1.0,100.0
8560,1,walk,walk,8337,,8337.0,20.0,0.0,0.0,1.0,5.39,-0.056,0.111,0.0,35.0,25.9,0.0,5.0,1641.0,53.0,10.33,-0.19,-1.05,-0.05,-3.64,-4.31,8.17,330.0,,,0.0,1.0,1.0,100.0
8600,1,walk,walk,8338,,8338.0,20.0,0.0,0.0,1.0,5.43,-0.056,0.011,0.0,35.0,25.9,0.0,5.0,1641.0,53.0,10.11,-0.19,-1.04,-0.05,-3.6,-4.07,7.48,330.0,,,0.0,1.0,1.0,100.0
8620,1,walk,walk,8339,,8339.0,20.0,0.0,0.0,1.0,5.5,-0.055,0.07,0.0,35.0,25.9,0.0,5.0,1641.0,53.0,9.88,-0.18,-1.03,-0.06,-3.6,-3.68,6.5,330.0,,,0.0,1.0,1.0,100.0
8640,1,walk,walk,8340,,8340.0,20.0,0.0,0.0,1.0,5.6,-0.053,0.08,0.0,35.0,25.9,0.0,5.0,1641.0,53.0,9.63,-0.17,-1.03,-0.06,-3.61,-3.21,5.29,330.0,,,0.0,1.0,1.0,100.0
8640,1,walk,walk,8341,,8341.0,20.0,0.0,0.0,1.0,5.72,-0.051,0.147,0.0,35.0,25.9,0.0,5.0,1641.0,53.0,9.36,-0.17,-1.02,-0.06,-3.6,-2.69,3.94,330.0,,,0.0,1.0,1.0,100.0
8660,1,walk,walk,8342,,8342.0,20.0,0.0,0.0,1.0,5.85,-0.047,0.236,0.0,35.0,25.9,0.0,5.0,1641.0,53.0,9.06,-0.16,-1.02,-0.07,-3.52,-2.16,2.5,330.0,,,0.0,1.0,1.0,100.0
8680,1,walk,walk,8343,,8343.0,20.0,0.0,0.0,1.0,5.99,-0.041,0.508,0.0,35.0,25.93,0.0,5.0,1641.0,53.0,8.75,-0.16,-1.02,-0.07,-3.36,-1.67,0.96,330.0,,,0.0,1.0,1.0,100.0
8700,1,walk,walk,8344,,8344.0,20.0,0.0,0.0,1.0,6.14,-0.032,0.485,0.0,35.0,25.9,0.0,5.0,1641.0,53.0,8.44,-0.15,-1.02,-0.08,-3.13,-1.23,-0.69,330.0,,,0.0,1.0,1.0,100.0
8720,1,walk,walk,8345,,8345.0,20.0,1.0,0.0,1.0,6.29,-0.025,0.457,0.0,35.0,25.9,0.0,6.0,1641.0,53.0,8.13,-0.15,-1.02,-0.08,-2.84,-0.82,-2.43,330.0,,,0.0,1.0,1.0,100.0
8760,1,walk,walk,8346,,8346.0,20.0,1.0,0.0,1.0,6.44,-0.018,0.632,0.0,35.0,25.93,0.0,6.0,1641.0,53.0,7.83,-0.14,-1.02,-0.08,-2.49,-0.45,-4.27,330.0,,,0.0,1.0,1.0,100.0
8780,1,walk,walk,8347,,8347.0,20.0,1.0,0.0,1.0,6.58,-0.006,0.518,0.0,35.0,25.9,0.0,6.0,1641.0,53.0,7.53,-0.13,-1.02,-0.09,-2.11,-0.13,-6.21,330.0,,,0.0,1.0,1.0,100.0
8780,1,walk,walk,8348,,8348.0,20.0,1.0,0.0,1.0,6.71,0.002,0.417,0.0,35.0,25.93,0.0,6.0,1641.0,53.0,7.23,-0.13,-1.02,-0.09,-1.71,0.16,-8.17,330.0,,,0.0,1.0,1.0,100.0
8800,1,walk,walk,8349,,8349.0,20.0,1.0,6.0,2.0,6.81,0.01,0.747,0.0,35.0,25.9,0.0,6.0,1641.0,53.0,6.92,-0.12,-1.01,-0.09,-1.3,0.4,-10.13,330.0,,,0.0,1.0,1.0,100.0
8820,1,walk,walk,8350,,8350.0,20.0,0.0,6.0,2.0,6.9,0.015,1.215,-0.204,35.0,25.9,0.0,17.0,1641.0,53.0,6.55,-0.12,-1.01,-0.09,-0.86,0.67,-11.9,330.0,,,0.0,1.0,1.0,100.0
8840,1,walk,walk,8351,,8351.0,20.0,0.0,6.0,2.0,6.97,0.014,-0.064,-1.188,35.0,25.86,0.0,17.0,1641.0,53.0,6.1,-0.11,-1.01,-0.09,-0.42,1.0,-13.19,330.0,,,0.0,1.0,1.0,100.0
8860,1,walk,walk,8352,,8352.0,20.0,1.0,6.0,2.0,7.01,0.011,-0.248,-0.93,35.0,25.86,0.0,18.0,1641.0,53.0,5.56,-0.1,-1.02,-0.09,0.07,1.28,-13.66,330.0,,,0.0,1.0,1.0,100.0
8880,1,walk,walk,8353,,8353.0,20.0,0.0,6.0,2.0,7.02,0.004,-0.398,-0.021,35.0,25.9,0.0,17.0,1641.0,53.0,4.91,-0.09,-1.02,-0.1,0.68,1.45,-13.06,330.0,,,0.0,1.0,1.0,100.0
8900,1,walk,walk,8354,,8354.0,20.0,1.0,6.0,2.0,7.01,-0.001,-0.418,0.832,35.0,25.9,0.0,18.0,1641.0,53.0,4.21,-0.08,-1.02,-0.1,1.45,1.44,-11.28,330.0,,,0.0,1.0,1.0,100.0
8920,1,walk,walk,8355,,8355.0,20.0,1.0,6.0,2.0,6.96,-0.009,-0.374,1.712,35.0,25.86,0.0,18.0,1641.0,53.0,3.52,-0.06,-1.03,-0.1,2.39,1.22,-8.38,330.0,,,0.0,1.0,1.0,100.0
8940,1,walk,walk,8356,,8356.0,20.0,1.0,6.0,2.0,6.89,-0.017,-0.484,2.469,35.0,25.79,0.0,18.0,1641.0,53.0,2.89,-0.05,-1.03,-0.1,3.47,0.81,-4.56,330.0,,,0.0,1.0,1.0,100.0
8980,1,walk,walk,8357,,8357.0,20.0,1.0,6.0,2.0,6.8,-0.023,-0.283,2.904,35.0,25.76,0.0,18.0,1641.0,53.0,2.38,-0.04,-1.03,-0.1,4.61,0.26,-0.11,330.0,,,0.0,1.0,1.0,100.0
8980,1,walk,walk,8358,,8358.0,20.0,1.0,6.0,2.0,6.7,-0.026,-0.155,3.105,35.0,25.72,0.0,18.0,1641.0,53.0,2.01,-0.04,-1.04,-0.1,5.73,-0.41,4.66,330.0,,,0.0,1.0,1.0,100.0
9000,1,walk,walk,8359,,8359.0,20.0,1.0,6.0,2.0,6.58,-0.026,-0.052,3.055,35.0,25.72,0.0,18.0,1641.0,53.0,1.76,-0.03,-1.04,-0.1,6.76,-1.17,9.59,330.0,,,0.0,1.0,1.0,100.0
9020,1,walk,walk,8360,,8360.0,20.0,1.0,6.0,2.0,6.46,-0.024,0.179,2.73,35.0,25.76,0.0,18.0,1641.0,53.0,1.59,-0.03,-1.05,-0.1,7.67,-1.98,14.56,330.0,,,0.0,1.0,1.0,100.0
9040,1,walk,walk,8361,,8361.0,20.0,1.0,6.0,2.0,6.34,-0.022,0.143,2.466,35.0,25.76,0.0,18.0,1641.0,53.0,1.47,-0.03,-1.06,-0.1,8.41,-2.83,19.54,330.0,,,0.0,1.0,1.0,100.0
9060,1,walk,walk,8362,,8362.0,20.0,1.0,6.0,2.0,6.23,-0.019,0.232,2.04,35.0,25.83,0.0,18.0,1641.0,53.0,1.37,-0.03,-1.07,-0.1,8.95,-3.69,24.58,330.0,,,0.0,1.0,1.0,100.0
9080,1,walk,walk,8363,,8363.0,20.0,1.0,6.0,2.0,6.15,-0.015,0.234,1.567,35.0,25.83,0.0,18.0,1641.0,53.0,1.28,-0.02,-1.09,-0.09,9.22,-4.55,29.83,330.0,,,0.0,1.0,1.0,100.0
9120,1,walk,walk,8364,,8364.0,20.0,1.0,6.0,2.0,6.1,-0.011,0.232,1.114,35.0,25.86,0.0,18.0,1641.0,53.0,1.2,-0.02,-1.1,-0.09,9.19,-5.42,35.39,330.0,,,0.0,1.0,1.0,100.0
9120,1,walk,walk,8365,,8365.0,20.0,1.0,6.0,2.0,6.08,-0.006,0.328,0.553,35.0,25.9,0.0,18.0,1641.0,53.0,1.17,-0.02,-1.12,-0.09,8.84,-6.27,41.34,330.0,,,0.0,1.0,1.0,100.0
9140,1,walk,walk,8366,,8366.0,20.0,1.0,6.0,2.0,6.11,-0.003,0.177,0.033,35.0,25.9,0.0,18.0,1641.0,53.0,1.23,-0.02,-1.14,-0.09,8.15,-7.17,47.62,330.0,,,0.0,1.0,1.0,100.0
9160,1,walk,walk,8367,,8367.0,20.0,1.0,6.0,2.0,6.19,0.001,0.311,-0.457,35.0,25.9,0.0,18.0,1641.0,53.0,1.38,-0.03,-1.15,-0.08,7.19,-8.19,53.98,330.0,,,0.0,1.0,1.0,100.0
9180,1,walk,walk,8368,,8368.0,20.0,1.0,6.0,2.0,6.32,0.002,-0.088,-0.333,35.0,25.9,0.0,18.0,1641.0,53.0,1.6,-0.03,-1.16,-0.08,6.04,-9.32,59.9,330.0,,,0.0,1.0,1.0,100.0
9200,1,walk,walk,8369,,8369.0,20.0,1.0,6.0,2.0,6.53,0.002,-0.037,-0.227,35.0,25.9,0.0,18.0,1641.0,53.0,1.83,-0.04,-1.16,-0.08,4.82,-10.46,64.65,330.0,,,0.0,1.0,1.0,100.0
9240,1,walk,walk,8370,,8370.0,20.0,1.0,6.0,2.0,6.8,0.001,-0.126,-0.02,35.0,25.9,0.0,18.0,1641.0,53.0,2.0,-0.04,-1.16,-0.08,3.65,-11.61,67.61,330.0,,,0.0,1.0,1.0,100.0
9260,1,walk,walk,8371,,8371.0,20.0,1.0,6.0,2.0,7.15,-0.001,-0.203,0.199,35.0,25.9,0.0,18.0,1641.0,53.0,2.09,-0.04,-1.14,-0.08,2.61,-12.74,68.35,330.0,,,0.0,1.0,1.0,100.0
9260,1,walk,walk,8372,,8372.0,20.0,0.0,6.0,2.0,7.57,-0.002,-0.119,0.369,35.0,25.9,0.0,17.0,1641.0,53.0,2.05,-0.04,-1.12,-0.08,1.79,-13.78,66.59,330.0,,,0.0,1.0,1.0,100.0
9300,1,walk,walk,8373,,8373.0,20.0,1.0,6.0,2.0,8.06,-0.003,-0.155,0.546,35.0,25.9,0.0,18.0,1641.0,53.0,1.88,-0.04,-1.09,-0.08,1.19,-14.58,62.3,330.0,,,0.0,1.0,1.0,100.0
9300,1,walk,walk,8374,,8374.0,20.0,1.0,6.0,2.0,8.63,-0.004,-0.028,0.549,35.0,25.9,0.0,18.0,1641.0,53.0,1.6,-0.03,-1.06,-0.08,0.84,-14.96,55.64,330.0,,,0.0,1.0,1.0,100.0
9340,1,walk,walk,8375,,8375.0,20.0,1.0,1.0,5.0,9.25,-0.005,0.005,0.642,35.0,25.9,0.0,18.0,1641.0,54.0,1.25,-0.02,-1.02,-0.07,0.69,-14.67,46.93,330.0,,,0.0,1.0,1.0,100.0
9340,1,walk,walk,8376,,8376.0,20.0,0.0,1.0,5.0,9.92,-0.005,0.003,0.689,35.0,25.83,0.0,19.0,1641.0,54.0,0.91,-0.02,-0.99,-0.07,0.72,-13.48,36.58,330.0,,,0.0,1.0,1.0,100.0
9360,1,walk,walk,8377,,8377.0,20.0,0.0,1.0,5.0,10.62,-0.047,-3.495,-0.822,35.0,25.83,0.0,19.0,1641.0,54.0,0.72,-0.01,-0.96,-0.08,0.95,-11.15,25.42,330.0,,,0.0,1.0,1.0,100.0
9380,1,walk,walk,8378,,8378.0,20.0,0.0,1.0,5.0,11.33,-0.096,-2.829,-1.564,35.0,25.76,0.0,19.0,1641.0,54.0,0.77,-0.01,-0.93,-0.08,1.43,-7.66,14.12,330.0,,,0.0,1.0,1.0,100.0
9400,1,walk,walk,8379,,8379.0,20.0,0.0,1.0,5.0,12.04,-0.133,-2.226,-2.406,35.0,25.65,0.0,19.0,1641.0,54.0,1.17,-0.02,-0.9,-0.08,2.13,-3.23,3.02,330.0,,,0.0,1.0,1.0,100.0
9420,1,walk,walk,8380,,8380.0,20.0,0.0,1.0,6.0,12.72,-0.164,-1.832,-3.109,35.0,25.62,0.0,19.0,1641.0,54.0,1.98,-0.03,-0.88,-0.09,2.92,1.72,-7.67,330.0,,,0.0,1.0,1.0,100.0
9460,1,walk,walk,8381,,8381.0,20.0,0.0,1.0,6.0,13.35,-0.185,-1.221,-3.913,35.0,25.51,0.0,19.0,1641.0,54.0,3.22,-0.05,-0.86,-0.09,3.7,6.52,-17.8,330.0,,,0.0,1.0,1.0,100.0
9460,1,walk,walk,8382,,8382.0,20.0,0.0,1.0,6.0,13.92,-0.2,-0.894,-4.654,35.0,25.4,0.0,19.0,1641.0,54.0,4.87,-0.07,-0.85,-0.1,4.42,10.57,-27.33,330.0,,,0.0,1.0,1.0,100.0
9480,1,walk,walk,8383,,8383.0,20.0,0.0,1.0,6.0,14.41,-0.212,-0.652,-5.05,35.0,25.33,0.0,19.0,1641.0,54.0,6.86,-0.1,-0.85,-0.11,4.92,13.45,-36.13,330.0,,,0.0,1.0,1.0,100.0
9500,1,walk,walk,8384,,8384.0,20.0,0.0,1.0,6.0,14.8,-0.219,-0.387,-5.614,35.0,25.3,0.0,19.0,1641.0,54.0,9.08,-0.13,-0.84,-0.12,5.11,14.97,-44.1,330.0,,,0.0,1.0,1.0,100.0
9520,1,walk,walk,8385,,8385.0,20.0,0.0,1.0,6.0,15.08,-0.223,-0.197,-5.968,35.0,25.19,0.0,19.0,1641.0,54.0,11.43,-0.17,-0.84,-0.14,4.93,15.22,-51.02,330.0,,,0.0,1.0,1.0,100.0
9560,1,walk,walk,8386,,8386.0,20.0,0.0,1.0,6.0,15.25,-0.226,-0.203,-6.208,35.0,25.16,0.0,19.0,1641.0,54.0,13.83,-0.21,-0.85,-0.15,4.24,14.43,-56.66,330.0,,,0.0,1.0,1.0,100.0
9580,1,walk,walk,8387,,8387.0,20.0,0.0,1.0,6.0,15.3,-0.226,0.104,-6.59,35.0,25.09,0.0,19.0,1641.0,54.0,16.03,-0.25,-0.86,-0.15,3.07,12.98,-60.76,330.0,,,0.0,1.0,1.0,100.0
9600,1,walk,walk,8388,,8388.0,20.0,0.0,1.0,6.0,15.24,-0.217,0.781,-8.375,35.0,24.74,0.0,19.0,1641.0,54.0,17.82,-0.28,-0.88,-0.15,1.89,11.77,-62.75,330.0,,,0.0,1.0,1.0,100.0
9600,1,walk,walk,8389,,8389.0,20.0,1.0,3.0,7.0,15.05,-0.211,0.344,-8.046,35.0,24.77,0.0,20.0,1641.0,54.0,19.02,-0.31,-0.91,-0.14,1.05,11.44,-62.39,330.0,,,0.0,1.0,1.0,100.0
9620,1,walk,walk,8390,,8390.0,20.0,0.0,3.0,7.0,14.76,-0.204,0.512,-8.252,35.0,24.7,0.0,19.0,1641.0,54.0,19.63,-0.33,-0.94,-0.13,0.64,12.24,-59.68,330.0,,,0.0,1.0,1.0,100.0
9640,1,walk,walk,8391,,8391.0,20.0,0.0,3.0,7.0,14.37,-0.197,0.724,-8.581,35.0,24.6,0.0,19.0,1641.0,54.0,19.74,-0.35,-0.97,-0.1,0.59,13.96,-54.88,330.0,,,0.0,1.0,1.0,100.0
9660,1,walk,walk,8392,,8392.0,20.0,0.0,3.0,7.0,13.89,-0.187,0.692,-8.753,35.0,24.56,0.0,19.0,1641.0,54.0,19.51,-0.35,-1.0,-0.08,0.72,16.14,-48.45,330.0,,,0.0,1.0,1.0,100.0
9680,1,walk,walk,8393,,8393.0,20.0,0.0,3.0,7.0,13.33,-0.178,0.712,-8.59,35.0,24.67,0.0,19.0,1641.0,54.0,19.03,-0.35,-1.02,-0.05,0.86,18.11,-40.9,330.0,,,0.0,1.0,1.0,100.0
9700,1,walk,walk,8394,,8394.0,20.0,1.0,3.0,7.0,12.72,-0.162,0.925,-8.525,35.0,24.74,0.0,20.0,1641.0,54.0,18.39,-0.35,-1.04,-0.03,0.86,19.31,-32.78,330.0,,,0.0,1.0,1.0,100.0
9720,1,walk,walk,8395,,8395.0,20.0,0.0,3.0,7.0,12.07,-0.145,1.168,-7.816,35.0,24.95,0.0,19.0,1641.0,54.0,17.65,-0.34,-1.06,-0.02,0.62,19.53,-24.58,330.0,,,0.0,1.0,1.0,100.0
9760,1,walk,walk,8396,,8396.0,20.0,0.0,3.0,7.0,11.41,-0.13,0.888,-6.466,35.0,25.26,0.0,19.0,1641.0,54.0,16.92,-0.33,-1.07,0.0,0.15,18.77,-16.71,330.0,,,0.0,1.0,1.0,100.0
9760,1,walk,walk,8397,,8397.0,20.0,0.0,3.0,7.0,10.74,-0.118,0.818,-5.105,35.0,25.51,0.0,19.0,1641.0,54.0,16.26,-0.31,-1.08,0.0,-0.47,17.12,-9.54,330.0,,,0.0,1.0,1.0,100.0
9780,1,walk,walk,8398,,8398.0,20.0,0.0,3.0,7.0,10.08,-0.104,0.723,-3.37,35.0,25.72,0.0,19.0,1641.0,54.0,15.71,-0.3,-1.08,0.0,-1.14,14.65,-3.4,330.0,,,0.0,1.0,1.0,100.0
9800,1,walk,walk,8399,,8399.0,20.0,0.0,0.0,1.0,9.46,-0.093,0.704,-2.129,35.0,25.83,0.0,19.0,1641.0,54.0,15.24,-0.29,-1.08,0.0,-1.76,11.58,1.56,330.0,,,0.0,1.0,1.0,100.0
9820,1,walk,walk,8400,,8400.0,20.0,0.0,0.0,1.0,8.88,-0.083,0.593,-0.801,35.0,25.83,0.0,19.0,1641.0,54.0,14.87,-0.29,-1.08,-0.01,-2.26,8.02,5.23,330.0,,,0.0,1.0,1.0,100.0
9840,1,walk,walk,8401,,8401.0,20.0,0.0,0.0,1.0,8.36,-0.083,0.593,-0.801,35.0,25.83,0.0,39.0,1641.0,54.0,14.55,-0.28,-1.07,-0.01,-2.63,4.3,7.76,330.0,,,0.0,1.0,1.0,100.0
9860,1,walk,walk,8402,,8402.0,20.0,0.0,0.0,1.0,7.91,-0.083,0.593,-0.801,35.0,25.83,0.0,59.0,1641.0,54.0,14.25,-0.27,-1.07,-0.02,-2.88,0.8,9.46,330.0,,,0.0,1.0,1.0,100.0
9880,1,walk,walk,8403,,8403.0,20.0,0.0,0.0,1.0,7.52,-0.08,1.303,0.0,35.0,25.93,0.0,6.0,1641.0,54.0,13.96,-0.26,-1.06,-0.03,-3.06,-2.18,10.53,330.0,,,0.0,1.0,1.0,100.0
9920,1,walk,walk,8404,,8404.0,20.0,0.0,0.0,1.0,7.21,-0.08,0.057,0.0,35.0,25.9,0.0,6.0,1641.0,54.0,13.69,-0.26,-1.06,-0.03,-3.21,-4.54,11.05,330.0,,,0.0,1.0,1.0,100.0
9940,1,walk,walk,8405,,8405.0,20.0,0.0,0.0,1.0,6.97,-0.08,0.026,0.0,35.0,25.9,0.0,6.0,1641.0,54.0,13.41,-0.25,-1.05,-0.03,-3.38,-6.23,11.08,330.0,,,0.0,1.0,1.0,100.0
9940,1,walk,walk,8406,,8406.0,20.0,0.0,0.0,1.0,6.8,-0.08,0.017,0.0,35.0,25.9,0.0,6.0,1641.0,54.0,13.14,-0.24,-1.04,-0.04,-3.58,-7.3,10.64,330.0,,,0.0,1.0,1.0,100.0
9960,1,walk,walk,8407,,8407.0,20.0,0.0,0.0,1.0,6.69,-0.077,0.16,0.0,35.0,25.9,0.0,6.0,1641.0,54.0,12.86,-0.24,-1.03,-0.04,-3.8,-7.82,9.75,330.0,,,0.0,1.0,1.0,100.0
9980,1,walk,walk,8408,,8408.0,20.0,0.0,0.0,1.0,6.65,-0.073,0.31,0.0,35.0,25.9,0.0,6.0,1641.0,54.0,12.58,-0.23,-1.03,-0.05,-4.02,-7.89,8.41,330.0,,,0.0,1.0,1.0,100.0
10000,1,walk,walk,8409,,8409.0,20.0,0.0,0.0,1.0,6.66,-0.069,0.291,0.0,35.0,25.9,0.0,6.0,1641.0,54.0,12.27,-0.22,-1.02,-0.05,-4.24,-7.63,6.68,330.0,,,0.0,1.0,1.0,100.0
10020,1,walk,walk,8410,,8410.0,20.0,0.0,0.0,1.0,6.71,-0.062,0.562,0.0,35.0,25.9,0.0,6.0,1641.0,54.0,11.93,-0.22,-1.02,-0.05,-4.43,-7.11,4.62,330.0,,,0.0,1.0,1.0,100.0
10040,1,walk,walk,8411,,8411.0,20.0,0.0,0.0,1.0,6.81,-0.054,0.613,0.0,35.0,25.9,0.0,6.0,1641.0,54.0,11.55,-0.21,-1.02,-0.06,-4.57,-6.41,2.3,330.0,,,0.0,1.0,1.0,100.0
10080,1,walk,walk,8412,,8412.0,20.0,0.0,0.0,1.0,6.93,-0.045,0.805,0.0,35.0,25.93,0.0,6.0,1641.0,54.0,11.13,-0.2,-1.01,-0.06,-4.64,-5.61,-0.23,330.0,,,0.0,1.0,1.0,100.0
10080,1,walk,walk,8413,,8413.0,20.0,1.0,0.0,1.0,7.07,-0.028,1.1,0.0,35.0,25.9,0.0,7.0,1641.0,54.0,10.68,-0.19,-1.01,-0.07,-4.6,-4.77,-2.99,330.0,,,0.0,1.0,1.0,100.0
10120,1,walk,walk,8414,,8414.0,20.0,1.0,0.0,1.0,7.22,-0.01,1.777,0.0,35.0,25.9,0.0,7.0,1641.0,54.0,10.23,-0.18,-1.01,-0.07,-4.47,-3.95,-6.04,330.0,,,0.0,1.0,1.0,100.0
10120,1,walk,walk,8415,,8415.0,20.0,1.0,0.0,1.0,7.37,0.011,1.587,0.0,35.0,25.93,0.0,7.0,1641.0,54.0,9.75,-0.17,-1.01,-0.07,-4.25,-3.18,-9.4,330.0,,,0.0,1.0,1.0,100.0
10140,1,walk,walk,8416,,8416.0,20.0,1.0,0.0,1.0,7.52,0.037,1.518,0.0,35.0,25.93,0.0,7.0,1641.0,54.0,9.23,-0.16,-1.01,-0.08,-3.99,-2.47,-13.13,330.0,,,0.0,1.0,1.0,100.0
10160,1,walk,walk,8417,,8417.0,20.0,1.0,0.0,1.0,7.65,0.06,1.121,0.0,35.0,25.9,0.0,7.0,1641.0,54.0,8.64,-0.15,-1.01,-0.08,-3.71,-1.82,-17.17,330.0,,,0.0,1.0,1.0,100.0
10200,1,walk,walk,8418,,8418.0,20.0,1.0,6.0,2.0,7.76,0.071,0.473,0.0,35.0,25.9,0.0,7.0,1641.0,54.0,7.95,-0.14,-1.01,-0.08,-3.43,-1.23,-21.18,330.0,,,0.0,1.0,1.0,100.0
10220,1,walk,walk,8419,,8419.0,20.0,0.0,6.0,2.0,7.85,0.07,-0.232,0.053,35.0,25.9,0.0,17.0,1641.0,54.0,7.1,-0.13,-1.01,-0.09,-3.11,-0.64,-24.56,330.0,,,0.0,1.0,1.0,100.0
10220,1,walk,walk,8420,,8420.0,20.0,0.0,6.0,2.0,7.9,0.046,-1.682,-1.197,35.0,25.83,0.0,17.0,1641.0,54.0,6.12,-0.11,-1.01,-0.09,-2.69,0.0,-26.58,330.0,,,0.0,1.0,1.0,100.0
10260,1,walk,walk,8421,,8421.0,20.0,0.0,6.0,2.0,7.9,0.026,-1.221,-0.914,35.0,25.86,0.0,17.0,1641.0,54.0,5.06,-0.09,-1.02,-0.09,-2.14,0.65,-26.85,330.0,,,0.0,1.0,1.0,100.0
10260,1,walk,walk,8422,,8422.0,20.0,0.0,6.0,2.0,7.87,0.012,-0.825,-0.515,35.0,25.9,0.0,17.0,1641.0,54.0,3.97,-0.07,-1.02,-0.09,-1.43,1.21,-25.29,330.0,,,0.0,1.0,1.0,100.0
10280,1,walk,walk,8423,,8423.0,20.0,1.0,6.0,2.0,7.78,0.004,-0.507,0.351,35.0,25.9,0.0,18.0,1641.0,54.0,2.92,-0.05,-1.02,-0.1,-0.55,1.63,-22.04,330.0,,,0.0,1.0,1.0,100.0
10300,1,walk,walk,8424,,8424.0,20.0,1.0,6.0,2.0,7.65,-0.004,-0.587,1.357,35.0,25.86,0.0,18.0,1641.0,54.0,1.97,-0.04,-1.03,-0.1,0.5,1.82,-17.37,330.0,,,0.0,1.0,1.0,100.0
10320,1,walk,walk,8425,,8425.0,20.0,1.0,6.0,2.0,7.48,-0.013,-0.502,2.08,35.0,25.83,0.0,18.0,1641.0,54.0,1.13,-0.02,-1.04,-0.1,1.65,1.67,-11.53,330.0,,,0.0,1.0,1.0,100.0
10340,1,walk,walk,8426,,8426.0,20.0,1.0,6.0,2.0,7.27,-0.022,-0.475,3.012,35.0,25.76,0.0,18.0,1641.0,54.0,0.39,-0.01,-1.04,-0.1,2.76,1.13,-4.79,330.0,,,0.0,1.0,1.0,100.0
10380,1,walk,walk,8427,,8427.0,20.0,1.0,6.0,2.0,7.03,-0.023,0.152,2.661,35.0,25.76,0.0,18.0,1641.0,54.0,-0.27,0.01,-1.05,-0.1,3.76,0.31,2.63,330.0,,,0.0,1.0,1.0,100.0
10400,1,walk,walk,8428,,8428.0,20.0,1.0,6.0,2.0,6.77,-0.02,0.281,2.152,35.0,25.79,0.0,18.0,1641.0,54.0,-0.85,0.02,-1.07,-0.1,4.57,-0.65,10.55,330.0,,,0.0,1.0,1.0,100.0
10400,1,walk,walk,8429,,8429.0,20.0,1.0,6.0,2.0,6.51,-0.015,0.365,1.55,35.0,25.83,0.0,18.0,1641.0,54.0,-1.32,0.02,-1.08,-0.1,5.1,-1.61,18.79,330.0,,,0.0,1.0,1.0,100.0
10420,1,walk,walk,8430,,8430.0,20.0,1.0,6.0,2.0,6.25,-0.01,0.254,1.021,35.0,25.86,0.0,18.0,1641.0,54.0,-1.64,0.03,-1.1,-0.09,5.31,-2.51,27.24,330.0,,,0.0,1.0,1.0,100.0
10440,1,walk,walk,8431,,8431.0,20.0,1.0,6.0,2.0,6.01,-0.006,0.301,0.605,35.0,25.9,0.0,18.0,1641.0,54.0,-1.79,0.03,-1.12,-0.09,5.17,-3.31,35.77,330.0,,,0.0,1.0,1.0,100.0
10460,1,walk,walk,8432,,8432.0,20.0,1.0,6.0,2.0,5.8,-0.004,0.16,0.224,35.0,25.9,0.0,18.0,1641.0,54.0,-1.75,0.03,-1.14,-0.09,4.68,-3.98,44.24,330.0,,,0.0,1.0,1.0,100.0
10480,1,walk,walk,8433,,8433.0,20.0,1.0,6.0,2.0,5.64,-0.001,0.201,-0.275,35.0,25.9,0.0,18.0,1641.0,54.0,-1.55,0.03,-1.15,-0.08,3.92,-4.58,52.36,330.0,,,0.0,1.0,1.0,100.0
10520,1,walk,walk,8434,,8434.0,20.0,1.0,6.0,2.0,5.55,0.001,-0.03,-0.282,35.0,25.9,0.0,18.0,1641.0,54.0,-1.24,0.03,-1.16,-0.08,2.98,-5.25,59.61,330.0,,,0.0,1.0,1.0,100.0
10540,1,walk,walk,8435,,8435.0,20.0,1.0,6.0,2.0,5.52,0.001,-0.01,-0.104,35.0,25.9,0.0,18.0,1641.0,54.0,-0.89,0.02,-1.17,-0.08,2.0,-6.09,65.36,330.0,,,0.0,1.0,1.0,100.0
10560,1,walk,walk,8436,,8436.0,20.0,1.0,6.0,2.0,5.57,0.0,-0.179,0.015,35.0,25.9,0.0,18.0,1641.0,54.0,-0.59,0.01,-1.17,-0.08,1.09,-7.2,69.08,330.0,,,0.0,1.0,1.0,100.0
10560,1,walk,walk,8437,,8437.0,20.0,1.0,6.0,2.0,5.71,-0.001,-0.1,0.252,35.0,25.9,0.0,18.0,1641.0,54.0,-0.41,0.01,-1.16,-0.08,0.31,-8.56,70.34,330.0,,,0.0,1.0,1.0,100.0
10580,1,walk,walk,8438,,8438.0,20.0,0.0,6.0,2.0,5.95,-0.002,-0.151,0.418,35.0,25.9,0.0,17.0,1641.0,54.0,-0.39,0.01,-1.14,-0.08,-0.29,-10.03,68.89,330.0,,,0.0,1.0,1.0,100.0
10620,1,walk,walk,8439,,8439.0,20.0,1.0,6.0,2.0,6.28,-0.004,-0.085,0.561,35.0,25.9,0.0,18.0,1641.0,54.0,-0.54,0.01,-1.12,-0.07,-0.68,-11.39,64.71,330.0,,,0.0,1.0,1.0,100.0
10620,1,walk,walk,8440,,8440.0,20.0,0.0,6.0,2.0,6.69,-0.004,-0.013,0.635,35.0,25.9,0.0,17.0,1641.0,54.0,-0.84,0.02,-1.09,-0.07,-0.88,-12.33,57.97,330.0,,,0.0,1.0,1.0,100.0
10640,1,walk,walk,8441,,8441.0,20.0,1.0,1.0,5.0,7.19,-0.005,0.038,0.681,35.0,25.9,0.0,18.0,1641.0,55.0,-1.23,0.02,-1.05,-0.07,-0.94,-12.56,49.05,330.0,,,0.0,1.0,1.0,100.0
10660,1,walk,walk,8442,,8442.0,20.0,0.0,1.0,5.0,7.76,-0.006,0.009,0.599,35.0,25.83,0.0,19.0,1641.0,55.0,-1.58,0.03,-1.02,-0.07,-0.9,-11.63,38.58,330.0,,,0.0,1.0,1.0,100.0
10680,1,walk,walk,8443,,8443.0,20.0,0.0,1.0,5.0,8.37,-0.046,-3.417,-0.975,35.0,25.79,0.0,19.0,1641.0,55.0,-1.75,0.03,-0.98,-0.07,-0.8,-9.53,27.33,330.0,,,0.0,1.0,1.0,100.0
10720,1,walk,walk,8444,,8444.0,20.0,0.0,1.0,5.0,9.02,-0.093,-2.815,-1.76,35.0,25.72,0.0,19.0,1641.0,55.0,-1.59,0.03,-0.95,-0.08,-0.6,-6.52,15.83,330.0,,,0.0,1.0,1.0,100.0
10720,1,walk,walk,8445,,8445.0,20.0,0.0,1.0,5.0,9.67,-0.13,-2.391,-2.631,35.0,25.65,0.0,19.0,1641.0,55.0,-0.97,0.02,-0.92,-0.08,-0.26,-3.1,4.38,330.0,,,0.0,1.0,1.0,100.0
10740,1,walk,walk,8446,,8446.0,20.0,0.0,1.0,6.0,10.32,-0.159,-1.757,-3.394,35.0,25.58,0.0,19.0,1641.0,55.0,0.15,0.0,-0.88,-0.09,0.19,0.05,-6.76,330.0,,,0.0,1.0,1.0,100.0
10760,1,walk,walk,8447,,8447.0,20.0,0.0,1.0,6.0,10.93,-0.179,-1.182,-4.242,35.0,25.44,0.0,19.0,1641.0,55.0,1.81,-0.03,-0.86,-0.1,0.68,2.35,-17.41,330.0,,,0.0,1.0,1.0,100.0
10780,1,walk,walk,8448,,8448.0,20.0,0.0,1.0,6.0,11.48,-0.192,-0.55,-5.224,35.0,25.3,0.0,19.0,1641.0,55.0,3.93,-0.06,-0.83,-0.11,1.12,3.47,-27.38,330.0,,,0.0,1.0,1.0,100.0
10800,1,walk,walk,8449,,8449.0,20.0,0.0,1.0,6.0,11.96,-0.199,-0.296,-5.961,35.0,25.19,0.0,19.0,1641.0,55.0,6.41,-0.09,-0.82,-0.12,1.34,3.47,-36.52,330.0,,,0.0,1.0,1.0,100.0
10820,1,walk,walk,8450,,8450.0,20.0,0.0,1.0,6.0,12.35,-0.204,-0.281,-6.508,35.0,25.09,0.0,19.0,1641.0,55.0,9.14,-0.13,-0.8,-0.13,1.29,2.71,-44.71,330.0,,,0.0,1.0,1.0,100.0
10860,1,walk,walk,8451,,8451.0,20.0,0.0,1.0,6.0,12.64,-0.204,-0.002,-7.002,35.0,25.02,0.0,19.0,1641.0,55.0,12.0,-0.17,-0.8,-0.14,0.87,1.58,-51.67,330.0,,,0.0,1.0,1.0,100.0
10860,1,walk,walk,8452,,8452.0,20.0,0.0,1.0,6.0,12.82,-0.198,1.208,-8.7,35.0,24.56,0.0,19.0,1641.0,55.0,14.68,-0.21,-0.81,-0.14,0.32,1.08,-56.65,330.0,,,0.0,1.0,1.0,100.0
10880,1,walk,walk,8453,,8453.0,20.0,0.0,1.0,6.0,12.89,-0.179,0.649,-9.786,35.0,24.18,0.0,19.0,1641.0,55.0,16.87,-0.25,-0.84,-0.14,-0.03,1.87,-59.25,330.0,,,0.0,1.0,1.0,100.0
10900,1,walk,walk,8454,,8454.0,20.0,0.0,1.0,6.0,12.85,-0.162,1.318,-11.09,35.0,23.62,0.0,19.0,1641.0,55.0,18.41,-0.29,-0.87,-0.13,-0.04,3.95,-59.37,330.0,,,0.0,1.0,1.0,100.0
10920,1,walk,walk,8455,,8455.0,20.0,1.0,3.0,7.0,12.69,-0.143,1.196,-11.443,35.0,23.23,0.0,20.0,1641.0,55.0,19.3,-0.32,-0.91,-0.11,0.23,6.92,-57.15,330.0,,,0.0,1.0,1.0,100.0
10940,1,walk,walk,8456,,8456.0,20.0,0.0,3.0,7.0,12.43,-0.128,1.074,-11.658,35.0,23.12,0.0,19.0,1641.0,55.0,19.66,-0.34,-0.95,-0.1,0.63,10.16,-52.94,330.0,,,0.0,1.0,1.0,100.0
10960,1,walk,walk,8457,,8457.0,20.0,1.0,3.0,7.0,12.08,-0.115,0.92,-11.591,35.0,23.23,0.0,20.0,1641.0,55.0,19.65,-0.35,-0.99,-0.08,0.99,13.07,-47.15,330.0,,,0.0,1.0,1.0,100.0
10980,1,walk,walk,8458,,8458.0,20.0,0.0,3.0,7.0,11.65,-0.11,0.195,-10.087,35.0,24.0,0.0,19.0,1641.0,55.0,19.39,-0.36,-1.02,-0.07,1.19,15.18,-40.29,330.0,,,0.0,1.0,1.0,100.0
11000,1,walk,walk,8459,,8459.0,20.0,0.0,3.0,7.0,11.16,-0.108,0.049,-8.86,35.0,24.46,0.0,19.0,1641.0,55.0,18.96,-0.36,-1.05,-0.05,1.17,16.36,-32.81,330.0,,,0.0,1.0,1.0,100.0
11040,1,walk,walk,8460,,8460.0,20.0,0.0,3.0,7.0,10.62,-0.107,-0.104,-7.442,35.0,24.88,0.0,19.0,1641.0,55.0,18.44,-0.36,-1.07,-0.04,0.93,16.59,-25.15,330.0,,,0.0,1.0,1.0,100.0
11040,1,walk,walk,8461,,8461.0,20.0,0.0,3.0,7.0,10.05,-0.107,-0.087,-6.137,35.0,25.23,0.0,19.0,1641.0,55.0,17.87,-0.35,-1.09,-0.04,0.53,15.97,-17.75,330.0,,,0.0,1.0,1.0,100.0
11060,1,walk,walk,8462,,8462.0,20.0,1.0,3.0,7.0,9.47,-0.106,0.003,-4.839,35.0,25.47,0.0,20.0,1641.0,55.0,17.27,-0.34,-1.1,-0.03,0.03,14.67,-10.96,330.0,,,0.0,1.0,1.0,100.0
11080,1,walk,walk,8463,,8463.0,20.0,0.0,3.0,7.0,8.9,-0.103,0.198,-3.588,35.0,25.69,0.0,19.0,1641.0,55.0,16.68,-0.33,-1.1,-0.03,-0.48,12.86,-5.07,330.0,,,0.0,1.0,1.0,100.0
11100,1,walk,walk,8464,,8464.0,20.0,0.0,0.0,1.0,8.35,-0.097,0.438,-2.434,35.0,25.79,0.0,19.0,1641.0,55.0,16.1,-0.32,-1.1,-0.03,-0.95,10.74,-0.3,330.0,,,0.0,1.0,1.0,100.0
11120,1,walk,walk,8465,,8465.0,20.0,0.0,0.0,1.0,7.84,-0.088,0.594,-1.445,35.0,25.79,0.0,19.0,1641.0,55.0,15.57,-0.31,-1.1,-0.03,-1.34,8.7,3.04,330.0,,,0.0,1.0,1.0,100.0
11160,1,walk,walk,8466,,8466.0,20.0,0.0,0.0,1.0,7.38,-0.088,0.594,-1.445,35.0,25.79,0.0,39.0,1641.0,55.0,15.07,-0.29,-1.09,-0.04,-1.65,6.89,5.02,330.0,,,0.0,1.0,1.0,100.0
11180,1,walk,walk,8467,,8467.0,20.0,0.0,0.0,1.0,6.98,-0.088,0.594,-1.445,35.0,25.79,0.0,59.0,1641.0,55.0,14.58,-0.28,-1.08,-0.04,-1.91,5.42,5.98,330.0,,,0.0,1.0,1.0,100.0
11180,1,walk,walk,8468,,8468.0,20.0,0.0,0.0,1.0,6.64,-0.06,7.766,0.0,35.0,25.93,0.0,8.0,1641.0,55.0,14.09,-0.27,-1.07,-0.04,-2.14,4.31,6.17,330.0,,,0.0,1.0,1.0,100.0
11220,1,walk,walk,8469,,8469.0,20.0,0.0,0.0,1.0,6.36,-0.06,0.046,0.0,35.0,25.9,0.0,8.0,1641.0,55.0,13.6,-0.26,-1.07,-0.05,-2.37,3.52,5.76,330.0,,,0.0,1.0,1.0,100.0
11220,1,walk,walk,8470,,8470.0,20.0,0.0,0.0,1.0,6.14,-0.056,0.48,0.0,36.0,25.9,0.0,8.0,1641.0,55.0,13.11,-0.25,-1.06,-0.05,-2.6,2.98,4.84,330.0,,,0.0,1.0,1.0,100.0
11240,1,walk,walk,8471,,8471.0,20.0,0.0,0.0,1.0,5.99,-0.049,0.473,0.0,36.0,25.9,0.0,8.0,1641.0,55.0,12.63,-0.24,-1.05,-0.05,-2.84,2.61,3.45,330.0,,,0.0,1.0,1.0,100.0
11260,1,walk,walk,8472,,8472.0,20.0,0.0,0.0,1.0,5.89,-0.041,0.563,0.0,36.0,25.9,0.0,8.0,1641.0,55.0,12.15,-0.22,-1.04,-0.06,-3.1,2.36,1.64,330.0,,,0.0,1.0,1.0,100.0
11280,1,walk,walk,8473,,8473.0,20.0,0.0,0.0,1.0,5.84,-0.031,0.563,0.0,36.0,25.9,0.0,8.0,1641.0,55.0,11.66,-0.21,-1.04,-0.06,-3.36,2.18,-0.53,330.0,,,0.0,1.0,1.0,100.0
11300,1,walk,walk,8474,,8474.0,20.0,1.0,0.0,1.0,5.82,-0.024,0.526,0.0,36.0,25.9,0.0,9.0,1641.0,55.0,11.15,-0.2,-1.03,-0.06,-3.62,2.06,-2.93,330.0,,,0.0,1.0,1.0,100.0
11320,1,walk,walk,8475,,8475.0,20.0,1.0,0.0,1.0,5.85,-0.014,0.782,0.0,36.0,25.93,0.0,9.0,1641.0,55.0,10.6,-0.19,-1.03,-0.06,-3.86,1.97,-5.52,330.0,,,0.0,1.0,1.0,100.0
11380,1,walk,walk,8476,,8476.0,20.0,1.0,0.0,1.0,5.89,-0.001,0.634,0.0,36.0,25.9,0.0,9.0,1641.0,55.0,10.03,-0.18,-1.02,-0.07,-4.05,1.87,-8.23,330.0,,,0.0,1.0,1.0,100.0
11380,1,walk,walk,8477,,8477.0,20.0,1.0,0.0,1.0,5.95,0.01,0.925,0.0,36.0,25.9,0.0,9.0,1641.0,55.0,9.42,-0.17,-1.02,-0.07,-4.19,1.74,-11.01,330.0,,,0.0,1.0,1.0,100.0
11380,1,walk,walk,8478,,8478.0,20.0,1.0,0.0,1.0,6.01,0.026,0.992,0.0,36.0,25.9,0.0,9.0,1641.0,55.0,8.79,-0.16,-1.02,-0.07,-4.29,1.57,-13.86,330.0,,,0.0,1.0,1.0,100.0
11400,1,walk,walk,8479,,8479.0,20.0,1.0,0.0,1.0,6.08,0.044,1.347,0.0,36.0,25.9,0.0,9.0,1641.0,55.0,8.15,-0.15,-1.02,-0.08,-4.36,1.37,-16.83,330.0,,,0.0,1.0,1.0,100.0
11420,1,walk,walk,8480,,8480.0,20.0,1.0,0.0,1.0,6.13,0.064,1.45,0.0,36.0,25.9,0.0,9.0,1641.0,55.0,7.5,-0.13,-1.01,-0.08,-4.42,1.17,-19.98,330.0,,,0.0,1.0,1.0,100.0
11480,1,walk,walk,8481,,8481.0,20.0,1.0,0.0,1.0,6.16,0.084,1.153,0.0,36.0,25.9,0.0,9.0,1641.0,55.0,6.83,-0.12,-1.01,-0.08,-4.47,0.97,-23.26,330.0,,,0.0,1.0,1.0,100.0
11500,1,walk,walk,8482,,8482.0,20.0,1.0,6.0,2.0,6.17,0.102,0.914,0.0,36.0,25.9,0.0,9.0,1641.0,55.0,6.1,-0.11,-1.01,-0.08,-4.5,0.76,-26.45,330.0,,,0.0,1.0,1.0,100.0
11500,1,walk,walk,8483,,8483.0,20.0,0.0,6.0,2.0,6.14,0.104,-0.156,-0.024,36.0,25.9,0.0,18.0,1641.0,55.0,5.25,-0.09,-1.01,-0.09,-4.47,0.62,-28.81,330.0,,,0.0,1.0,1.0,100.0
11520,1,walk,walk,8484,,8484.0,20.0,0.0,6.0,2.0,6.08,0.077,-2.216,-2.675,36.0,25.65,0.0,18.0,1641.0,55.0,4.26,-0.08,-1.01,-0.09,-4.29,0.62,-29.63,330.0,,,0.0,1.0,1.0,100.0
11520,1,walk,walk,8485,,8485.0,20.0,0.0,6.0,2.0,5.98,0.05,-1.385,-3.07,36.0,25.62,0.0,18.0,1641.0,55.0,3.19,-0.06,-1.01,-0.09,-3.94,0.72,-28.77,330.0,,,0.0,1.0,1.0,100.0
11540,1,walk,walk,8486,,8486.0,20.0,0.0,6.0,2.0,5.84,0.037,-0.64,-3.123,36.0,25.65,0.0,18.0,1641.0,55.0,2.11,-0.04,-1.02,-0.1,-3.39,0.86,-26.34,330.0,,,0.0,1.0,1.0,100.0
11560,1,walk,walk,8487,,8487.0,20.0,1.0,6.0,2.0,5.65,0.028,-0.522,-2.568,36.0,25.72,0.0,19.0,1641.0,55.0,1.1,-0.02,-1.02,-0.1,-2.67,0.98,-22.7,330.0,,,0.0,1.0,1.0,100.0
11580,1,walk,walk,8488,,8488.0,20.0,1.0,6.0,2.0,5.43,0.021,-0.25,-2.277,36.0,25.79,0.0,19.0,1641.0,55.0,0.22,0.0,-1.02,-0.1,-1.78,1.06,-18.29,330.0,,,0.0,1.0,1.0,100.0
11600,1,walk,walk,8489,,8489.0,20.0,1.0,6.0,2.0,5.16,0.017,-0.209,-2.0,36.0,25.83,0.0,19.0,1641.0,55.0,-0.5,0.01,-1.02,-0.11,-0.75,1.04,-13.5,330.0,,,0.0,1.0,1.0,100.0
11640,1,walk,walk,8490,,8490.0,20.0,1.0,6.0,2.0,4.87,0.014,-0.319,-1.602,36.0,25.86,0.0,19.0,1641.0,55.0,-1.03,0.02,-1.03,-0.11,0.42,0.93,-8.65,330.0,,,0.0,1.0,1.0,100.0
11660,1,walk,walk,8491,,8491.0,20.0,1.0,6.0,2.0,4.56,0.01,-0.238,-1.167,36.0,25.86,0.0,19.0,1641.0,55.0,-1.4,0.03,-1.03,-0.11,1.7,0.71,-3.96,330.0,,,0.0,1.0,1.0,100.0
11660,1,walk,walk,8492,,8492.0,20.0,1.0,6.0,2.0,4.23,0.006,-0.37,-0.645,36.0,25.86,0.0,19.0,1641.0,55.0,-1.63,0.03,-1.03,-0.11,3.1,0.4,0.51,330.0,,,0.0,1.0,1.0,100.0
11700,1,walk,walk,8493,,8493.0,20.0,1.0,6.0,2.0,3.9,0.003,-0.206,-0.079,36.0,25.9,0.0,19.0,1641.0,55.0,-1.76,0.03,-1.03,-0.12,4.58,0.0,4.76,330.0,,,0.0,1.0,1.0,100.0
11700,1,walk,walk,8494,,8494.0,20.0,1.0,6.0,2.0,3.57,-0.001,-0.25,0.513,36.0,25.86,0.0,19.0,1641.0,55.0,-1.82,0.03,-1.03,-0.12,6.08,-0.52,8.9,330.0,,,0.0,1.0,1.0,100.0
11720,1,walk,walk,8495,,8495.0,20.0,1.0,6.0,2.0,3.26,-0.006,-0.395,1.301,36.0,25.86,0.0,19.0,1641.0,55.0,-1.83,0.03,-1.04,-0.11,7.53,-1.25,13.04,330.0,,,0.0,1.0,1.0,100.0
11740,1,walk,walk,8496,,8496.0,20.0,1.0,6.0,2.0,2.97,-0.012,-0.426,1.819,36.0,25.83,0.0,19.0,1641.0,55.0,-1.85,0.03,-1.04,-0.11,8.82,-2.22,17.36,330.0,,,0.0,1.0,1.0,100.0
11760,1,walk,walk,8497,,8497.0,20.0,1.0,6.0,2.0,2.72,-0.016,-0.029,1.885,36.0,25.83,0.0,19.0,1641.0,55.0,-1.92,0.04,-1.05,-0.11,9.89,-3.45,22.08,330.0,,,0.0,1.0,1.0,100.0
11780,1,walk,walk,8498,,8498.0,20.0,1.0,6.0,2.0,2.5,-0.015,0.103,1.731,36.0,25.83,0.0,19.0,1641.0,55.0,-2.08,0.04,-1.06,-0.11,10.64,-4.94,27.43,330.0,,,0.0,1.0,1.0,100.0
11800,1,walk,walk,8499,,8499.0,20.0,1.0,6.0,2.0,2.33,-0.014,0.24,1.449,36.0,25.83,0.0,19.0,1641.0,55.0,-2.27,0.04,-1.08,-0.11,11.0,-6.71,33.52,330.0,,,0.0,1.0,1.0,100.0
11840,1,walk,walk,8500,,8500.0,20.0,1.0,6.0,2.0,2.21,-0.01,0.288,0.952,36.0,25.86,0.0,19.0,1641.0,55.0,-2.44,0.05,-1.1,-0.11,10.92,-8.78,40.27,330.0,,,0.0,1.0,1.0,100.0
11860,1,walk,walk,8501,,8501.0,20.0,1.0,6.0,2.0,2.15,-0.005,0.272,0.411,36.0,25.9,0.0,19.0,1641.0,55.0,-2.54,0.05,-1.13,-0.11,10.38,-11.04,47.35,330.0,,,0.0,1.0,1.0,100.0
11860,1,walk,walk,8502,,8502.0,20.0,1.0,6.0,2.0,2.15,-0.003,-0.017,0.22,36.0,25.9,0.0,19.0,1641.0,55.0,-2.57,0.05,-1.15,-0.11,9.44,-13.03,54.15,330.0,,,0.0,1.0,1.0,100.0
11900,1,walk,walk,8503,,8503.0,20.0,1.0,6.0,2.0,2.22,-0.003,0.005,0.362,36.0,25.86,0.0,19.0,1641.0,55.0,-2.57,0.05,-1.17,-0.11,8.23,-14.21,60.03,330.0,,,0.0,1.0,1.0,100.0
11920,1,walk,walk,8504,,8504.0,20.0,1.0,6.0,2.0,2.37,-0.004,-0.036,0.501,36.0,25.86,0.0,19.0,1641.0,55.0,-2.58,0.05,-1.17,-0.11,6.84,-14.2,64.46,330.0,,,0.0,1.0,1.0,100.0
11920,1,walk,walk,8505,,8505.0,20.0,1.0,6.0,2.0,2.6,-0.005,-0.093,0.606,36.0,25.86,0.0,19.0,1641.0,55.0,-2.61,0.05,-1.17,-0.11,5.38,-12.87,67.06,330.0,,,0.0,1.0,1.0,100.0
11940,1,walk,walk,8506,,8506.0,20.0,1.0,6.0,2.0,2.91,-0.006,-0.085,0.733,36.0,25.9,0.0,19.0,1641.0,55.0,-2.66,0.05,-1.16,-0.1,3.98,-10.33,67.57,330.0,,,0.0,1.0,1.0,100.0
11960,1,walk,walk,8507,,8507.0,20.0,1.0,6.0,2.0,3.29,-0.006,-0.064,0.851,36.0,25.9,0.0,19.0,1641.0,55.0,-2.72,0.05,-1.14,-0.1,2.74,-6.93,65.83,330.0,,,0.0,1.0,1.0,100.0
12000,1,walk,walk,8508,,8508.0,20.0,1.0,6.0,2.0,3.76,-0.007,-0.099,0.916,36.0,25.9,0.0,19.0,1641.0,55.0,-2.76,0.05,-1.11,-0.09,1.78,-3.13,61.81,330.0,,,0.0,1.0,1.0,100.0
12000,1,walk,walk,8509,,8509.0,20.0,1.0,6.0,2.0,4.3,-0.008,-0.112,0.931,36.0,25.86,0.0,19.0,1641.0,55.0,-2.76,0.05,-1.08,-0.09,1.19,0.6,55.57,330.0,,,0.0,1.0,1.0,100.0
12020,1,walk,walk,8510,,8510.0,20.0,1.0,1.0,5.0,4.9,-0.008,0.069,0.977,36.0,25.9,0.0,19.0,1641.0,56.0,-2.71,0.05,-1.04,-0.08,0.99,3.84,47.24,330.0,,,0.0,1.0,1.0,100.0
12040,1,walk,walk,8511,,8511.0,20.0,0.0,1.0,5.0,5.55,-0.008,-0.018,0.991,36.0,25.86,0.0,19.0,1641.0,56.0,-2.55,0.04,-0.99,-0.08,1.21,6.36,37.39,330.0,,,0.0,1.0,1.0,100.0
12060,1,walk,walk,8512,,8512.0,20.0,0.0,1.0,5.0,6.23,-0.051,-3.664,-0.436,36.0,25.83,0.0,19.0,1641.0,56.0,-2.26,0.04,-0.95,-0.08,1.91,8.09,26.56,330.0,,,0.0,1.0,1.0,100.0
12080,1,walk,walk,8513,,8513.0,20.0,0.0,1.0,5.0,6.93,-0.101,-3.062,-1.129,36.0,25.79,0.0,19.0,1641.0,56.0,-1.82,0.03,-0.91,-0.08,3.04,9.13,15.08,330.0,,,0.0,1.0,1.0,100.0
12120,1,walk,walk,8514,,8514.0,20.0,0.0,1.0,5.0,7.63,-0.14,-2.267,-1.993,36.0,25.72,0.0,19.0,1641.0,56.0,-1.24,0.02,-0.87,-0.07,4.41,9.67,3.23,330.0,,,0.0,1.0,1.0,100.0
12140,1,walk,walk,8515,,8515.0,20.0,0.0,1.0,6.0,8.31,-0.171,-1.533,-2.991,36.0,25.65,0.0,19.0,1641.0,56.0,-0.53,0.01,-0.84,-0.07,5.8,9.86,-8.78,330.0,,,0.0,1.0,1.0,100.0
12140,1,walk,walk,8516,,8516.0,20.0,0.0,1.0,6.0,8.95,-0.192,-1.161,-3.819,36.0,25.51,0.0,19.0,1641.0,56.0,0.33,0.0,-0.82,-0.07,7.1,9.86,-20.77,330.0,,,0.0,1.0,1.0,100.0
12180,1,walk,walk,8517,,8517.0,20.0,0.0,1.0,6.0,9.52,-0.205,-0.886,-4.782,36.0,25.4,0.0,19.0,1641.0,56.0,1.39,-0.02,-0.81,-0.08,8.2,9.71,-32.51,330.0,,,0.0,1.0,1.0,100.0
12180,1,walk,walk,8518,,8518.0,20.0,0.0,1.0,6.0,10.01,-0.213,-0.318,-5.663,36.0,25.26,0.0,19.0,1641.0,56.0,2.7,-0.04,-0.8,-0.08,8.9,9.36,-43.72,330.0,,,0.0,1.0,1.0,100.0
12200,1,walk,walk,8519,,8519.0,20.0,0.0,1.0,6.0,10.4,-0.215,-0.1,-6.369,36.0,25.16,0.0,19.0,1641.0,56.0,4.36,-0.06,-0.82,-0.09,9.32,8.99,-53.53,330.0,,,0.0,1.0,1.0,100.0
12220,1,walk,walk,8520,,8520.0,20.0,0.0,1.0,6.0,10.68,-0.209,0.613,-7.904,36.0,24.84,0.0,19.0,1641.0,56.0,6.43,-0.09,-0.84,-0.09,9.72,8.96,-60.9,330.0,,,0.0,1.0,1.0,100.0
12240,1,walk,walk,8521,,8521.0,20.0,0.0,1.0,6.0,10.84,-0.202,0.222,-7.95,36.0,24.77,0.0,19.0,1641.0,56.0,8.8,-0.14,-0.87,-0.09,10.15,9.59,-65.19,330.0,,,0.0,1.0,1.0,100.0
12260,1,walk,walk,8522,,8522.0,20.0,0.0,1.0,6.0,10.87,-0.199,0.1,-7.76,36.0,24.81,0.0,19.0,1641.0,56.0,11.04,-0.18,-0.92,-0.09,10.57,10.92,-66.27,330.0,,,0.0,1.0,1.0,100.0
12280,1,walk,walk,8523,,8523.0,20.0,0.0,3.0,7.0,10.76,-0.195,0.288,-8.061,36.0,24.7,0.0,19.0,1641.0,56.0,12.84,-0.22,-0.96,-0.09,10.85,12.64,-64.35,330.0,,,0.0,1.0,1.0,100.0
12300,1,walk,walk,8524,,8524.0,20.0,1.0,3.0,7.0,10.54,-0.188,0.624,-8.718,36.0,24.53,0.0,20.0,1641.0,56.0,14.12,-0.25,-0.99,-0.07,10.88,14.3,-59.91,330.0,,,0.0,1.0,1.0,100.0
12340,1,walk,walk,8525,,8525.0,20.0,0.0,3.0,7.0,10.2,-0.181,0.362,-8.849,36.0,24.49,0.0,19.0,1641.0,56.0,14.9,-0.27,-1.03,-0.06,10.56,15.4,-53.57,330.0,,,0.0,1.0,1.0,100.0
12340,1,walk,walk,8526,,8526.0,20.0,0.0,3.0,7.0,9.76,-0.175,0.656,-8.87,36.0,24.56,0.0,19.0,1641.0,56.0,15.25,-0.29,-1.05,-0.05,9.85,15.63,-46.02,330.0,,,0.0,1.0,1.0,100.0
12360,1,walk,walk,8527,,8527.0,20.0,0.0,3.0,7.0,9.23,-0.162,0.84,-8.824,36.0,24.63,0.0,19.0,1641.0,56.0,15.27,-0.29,-1.07,-0.03,8.78,14.79,-37.92,330.0,,,0.0,1.0,1.0,100.0
12380,1,walk,walk,8528,,8528.0,20.0,0.0,3.0,7.0,8.63,-0.145,1.147,-8.292,36.0,24.77,0.0,19.0,1641.0,56.0,15.01,-0.29,-1.08,-0.02,7.4,12.85,-29.81,330.0,,,0.0,1.0,1.0,100.0
12400,1,walk,walk,8529,,8529.0,20.0,0.0,3.0,7.0,8.0,-0.124,1.405,-8.03,36.0,24.95,0.0,19.0,1641.0,56.0,14.53,-0.28,-1.09,-0.01,5.77,9.91,-22.12,330.0,,,0.0,1.0,1.0,100.0
12440,1,walk,walk,8530,,8530.0,20.0,0.0,3.0,7.0,7.34,-0.092,2.226,-7.557,36.0,25.19,0.0,19.0,1641.0,56.0,13.84,-0.27,-1.09,-0.01,4.0,6.22,-15.27,330.0,,,0.0,1.0,1.0,100.0
12440,1,walk,walk,8531,,8531.0,20.0,1.0,3.0,7.0,6.67,-0.051,3.043,-6.699,36.0,25.44,0.0,20.0,1641.0,56.0,13.03,-0.25,-1.09,0.0,2.13,1.97,-9.62,330.0,,,0.0,1.0,1.0,100.0
12500,1,walk,walk,8532,,8532.0,20.0,0.0,3.0,7.0,6.03,-0.008,2.614,-4.725,36.0,25.69,0.0,19.0,1641.0,56.0,12.22,-0.24,-1.09,-0.01,0.31,-2.41,-5.39,330.0,,,0.0,1.0,1.0,100.0
12500,1,walk,walk,8533,,8533.0,20.0,0.0,0.0,1.0,5.41,0.027,1.917,-2.564,36.0,25.83,0.0,19.0,1641.0,56.0,11.47,-0.22,-1.08,-0.01,-1.24,-6.66,-2.7,330.0,,,0.0,1.0,1.0,100.0
12500,1,walk,walk,8534,,8534.0,20.0,0.0,0.0,1.0,4.84,0.05,1.315,-0.959,36.0,25.83,0.0,19.0,1641.0,56.0,10.81,-0.21,-1.08,-0.02,-2.36,-10.56,-1.43,330.0,,,0.0,1.0,1.0,100.0
12520,1,walk,walk,8535,,8535.0,20.0,0.0,0.0,1.0,4.33,0.05,1.315,-0.959,36.0,25.83,0.0,39.0,1641.0,56.0,10.16,-0.19,-1.08,-0.03,-2.99,-13.92,-1.14,330.0,,,0.0,1.0,1.0,100.0
12540,1,walk,walk,8536,,8536.0,20.0,0.0,0.0,1.0,3.87,0.05,1.315,-0.959,36.0,25.83,0.0,59.0,1641.0,56.0,9.51,-0.18,-1.08,-0.04,-3.19,-16.47,-1.02,330.0,,,0.0,1.0,1.0,100.0
12560,1,walk,walk,8537,,8537.0,20.0,0.0,0.0,1.0,3.47,0.022,-2.34,0.0,36.0,26.07,0.0,8.0,1641.0,56.0,8.85,-0.17,-1.07,-0.05,-3.12,-18.07,-0.49,330.0,,,0.0,1.0,1.0,100.0
12580,1,walk,walk,8538,,8538.0,20.0,1.0,0.0,1.0,3.14,0.013,-0.59,0.0,36.0,25.9,0.0,9.0,1641.0,56.0,8.21,-0.15,-1.07,-0.05,-2.92,-18.75,0.65,330.0,,,0.0,1.0,1.0,100.0
12600,1,walk,walk,8539,,8539.0,20.0,0.0,0.0,1.0,2.86,0.002,-0.732,0.0,36.0,25.9,0.0,8.0,1641.0,56.0,7.61,-0.14,-1.07,-0.05,-2.7,-18.69,2.35,330.0,,,0.0,1.0,1.0,100.0
12620,1,walk,walk,8540,,8540.0,20.0,0.0,0.0,1.0,2.64,-0.004,-0.339,0.0,36.0,25.9,0.0,8.0,1641.0,56.0,7.09,-0.13,-1.06,-0.05,-2.51,-18.04,4.42,330.0,,,0.0,1.0,1.0,100.0
12660,1,walk,walk,8541,,8541.0,20.0,0.0,0.0,1.0,2.48,-0.006,-0.056,0.0,36.0,25.9,0.0,8.0,1641.0,56.0,6.67,-0.12,-1.06,-0.05,-2.35,-16.97,6.55,330.0,,,0.0,1.0,1.0,100.0
12660,1,walk,walk,8542,,8542.0,20.0,0.0,0.0,1.0,2.36,-0.007,-0.015,0.0,36.0,25.9,0.0,8.0,1641.0,56.0,6.36,-0.12,-1.05,-0.05,-2.21,-15.6,8.42,330.0,,,0.0,1.0,1.0,100.0
12680,1,walk,walk,8543,,8543.0,20.0,0.0,0.0,1.0,2.28,-0.006,0.138,0.0,36.0,25.93,0.0,8.0,1641.0,56.0,6.15,-0.11,-1.05,-0.05,-2.08,-14.04,9.76,330.0,,,0.0,1.0,1.0,100.0
12700,1,walk,walk,8544,,8544.0,20.0,0.0,0.0,1.0,2.25,-0.002,0.399,0.0,36.0,25.9,0.0,8.0,1641.0,56.0,6.04,-0.11,-1.04,-0.06,-1.98,-12.36,10.36,330.0,,,0.0,1.0,1.0,100.0
12720,1,walk,walk,8545,,8545.0,20.0,0.0,0.0,1.0,2.25,0.005,0.527,0.0,36.0,25.9,0.0,8.0,1641.0,56.0,5.98,-0.11,-1.04,-0.06,-1.94,-10.66,10.08,330.0,,,0.0,1.0,1.0,100.0
12740,1,walk,walk,8546,,8546.0,20.0,0.0,0.0,1.0,2.28,0.019,1.115,0.0,36.0,25.9,0.0,8.0,1641.0,56.0,5.95,-0.11,-1.03,-0.06,-1.99,-9.01,8.84,330.0,,,0.0,1.0,1.0,100.0
12760,1,walk,walk,8547,,8547.0,20.0,0.0,0.0,1.0,2.35,0.037,1.643,0.0,36.0,25.9,0.0,8.0,1641.0,56.0,5.91,-0.11,-1.02,-0.06,-2.12,-7.48,6.59,330.0,,,0.0,1.0,1.0,100.0
12800,1,walk,walk,8548,,8548.0,20.0,0.0,0.0,1.0,2.44,0.065,1.989,0.0,36.0,25.9,0.0,8.0,1641.0,56.0,5.83,-0.1,-1.02,-0.06,-2.32,-6.08,3.25,330.0,,,0.0,1.0,1.0,100.0
12820,1,walk,walk,8549,,8549.0,20.0,1.0,0.0,1.0,2.55,0.098,2.109,0.0,36.0,25.9,0.0,9.0,1641.0,56.0,5.67,-0.1,-1.02,-0.06,-2.56,-4.83,-1.21,330.0,,,0.0,1.0,1.0,100.0
12820,1,walk,walk,8550,,8550.0,20.0,1.0,0.0,1.0,2.67,0.117,0.742,0.0,36.0,25.9,0.0,9.0,1641.0,56.0,5.35,-0.1,-1.02,-0.06,-2.82,-3.69,-6.48,330.0,,,0.0,1.0,1.0,100.0
12840,1,walk,walk,8551,,8551.0,20.0,1.0,6.0,2.0,2.8,0.12,-0.312,0.0,36.0,25.9,0.0,9.0,1641.0,56.0,4.8,-0.09,-1.01,-0.06,-3.02,-2.74,-11.84,330.0,,,0.0,1.0,1.0,100.0
12860,1,walk,walk,8552,,8552.0,20.0,0.0,6.0,2.0,2.93,0.116,-1.17,0.207,36.0,25.86,0.0,17.0,1641.0,56.0,4.02,-0.07,-1.02,-0.07,-3.07,-1.98,-16.39,330.0,,,0.0,1.0,1.0,100.0
12880,1,walk,walk,8553,,8553.0,20.0,0.0,6.0,2.0,3.04,0.076,-2.408,-1.925,36.0,25.72,0.0,17.0,1641.0,56.0,3.08,-0.05,-1.02,-0.07,-2.87,-1.15,-19.24,330.0,,,0.0,1.0,1.0,100.0
12900,1,walk,walk,8554,,8554.0,20.0,0.0,6.0,2.0,3.13,0.047,-1.503,-2.496,36.0,25.72,0.0,17.0,1641.0,56.0,2.09,-0.04,-1.02,-0.08,-2.37,-0.21,-19.99,330.0,,,0.0,1.0,1.0,100.0
12920,1,walk,walk,8555,,8555.0,20.0,0.0,6.0,2.0,3.2,0.033,-0.749,-2.564,36.0,25.72,0.0,17.0,1641.0,56.0,1.14,-0.02,-1.02,-0.08,-1.61,0.75,-18.82,330.0,,,0.0,1.0,1.0,100.0
12960,1,walk,walk,8556,,8556.0,20.0,0.0,6.0,2.0,3.23,0.023,-0.62,-2.1,36.0,25.76,0.0,17.0,1641.0,56.0,0.28,0.0,-1.03,-0.08,-0.59,1.62,-16.06,330.0,,,0.0,1.0,1.0,100.0
12960,1,walk,walk,8557,,8557.0,20.0,1.0,6.0,2.0,3.23,0.015,-0.512,-1.346,36.0,25.83,0.0,18.0,1641.0,56.0,-0.48,0.01,-1.03,-0.09,0.65,2.27,-12.1,330.0,,,0.0,1.0,1.0,100.0
12980,1,walk,walk,8558,,8558.0,20.0,1.0,6.0,2.0,3.19,0.006,-0.64,-0.302,36.0,25.86,0.0,18.0,1641.0,56.0,-1.14,0.02,-1.03,-0.09,2.1,2.59,-7.24,330.0,,,0.0,1.0,1.0,100.0
13000,1,walk,walk,8559,,8559.0,20.0,1.0,6.0,2.0,3.12,-0.001,-0.575,0.879,36.0,25.9,0.0,18.0,1641.0,56.0,-1.69,0.03,-1.04,-0.09,3.73,2.55,-1.58,330.0,,,0.0,1.0,1.0,100.0
13020,1,walk,walk,8560,,8560.0,20.0,1.0,6.0,2.0,3.02,-0.01,-0.688,1.967,36.0,25.83,0.0,18.0,1641.0,56.0,-2.13,0.04,-1.04,-0.09,5.46,2.01,4.77,330.0,,,0.0,1.0,1.0,100.0
13040,1,walk,walk,8561,,8561.0,20.0,1.0,6.0,2.0,2.91,-0.019,-0.295,2.532,36.0,25.79,0.0,18.0,1641.0,56.0,-2.49,0.05,-1.05,-0.1,7.07,0.9,11.68,330.0,,,0.0,1.0,1.0,100.0
13080,1,walk,walk,8562,,8562.0,20.0,1.0,6.0,2.0,2.78,-0.018,0.301,1.862,36.0,25.83,0.0,18.0,1641.0,56.0,-2.81,0.05,-1.07,-0.1,8.43,-0.7,19.07,330.0,,,0.0,1.0,1.0,100.0
13100,1,walk,walk,8563,,8563.0,20.0,1.0,6.0,2.0,2.65,-0.012,0.326,1.202,36.0,25.86,0.0,18.0,1641.0,56.0,-3.04,0.06,-1.09,-0.1,9.46,-2.68,26.85,330.0,,,0.0,1.0,1.0,100.0
13100,1,walk,walk,8564,,8564.0,20.0,1.0,6.0,2.0,2.54,-0.007,0.288,0.723,36.0,25.86,0.0,18.0,1641.0,56.0,-3.16,0.06,-1.11,-0.1,10.08,-4.92,34.88,330.0,,,0.0,1.0,1.0,100.0
13140,1,walk,walk,8565,,8565.0,20.0,1.0,6.0,2.0,2.45,-0.004,0.163,0.171,36.0,25.9,0.0,18.0,1641.0,56.0,-3.12,0.06,-1.13,-0.1,10.29,-7.31,42.97,330.0,,,0.0,1.0,1.0,100.0
13140,1,walk,walk,8566,,8566.0,20.0,1.0,6.0,2.0,2.4,-0.002,0.218,-0.119,36.0,25.9,0.0,18.0,1641.0,56.0,-2.95,0.06,-1.15,-0.09,10.13,-9.78,50.83,330.0,,,0.0,1.0,1.0,100.0
13180,1,walk,walk,8567,,8567.0,20.0,1.0,6.0,2.0,2.39,0.0,-0.056,-0.069,36.0,25.9,0.0,18.0,1641.0,56.0,-2.7,0.05,-1.16,-0.09,9.68,-12.09,58.01,330.0,,,0.0,1.0,1.0,100.0
13180,1,walk,walk,8568,,8568.0,20.0,1.0,6.0,2.0,2.45,-0.001,-0.048,-0.038,36.0,25.9,0.0,18.0,1641.0,56.0,-2.46,0.05,-1.17,-0.09,9.02,-13.9,64.0,330.0,,,0.0,1.0,1.0,100.0
13200,1,walk,walk,8569,,8569.0,20.0,1.0,6.0,2.0,2.59,-0.001,-0.044,0.043,36.0,25.9,0.0,18.0,1641.0,56.0,-2.29,0.05,-1.16,-0.09,8.24,-14.98,68.37,330.0,,,0.0,1.0,1.0,100.0
13220,1,walk,walk,8570,,8570.0,20.0,1.0,6.0,2.0,2.8,-0.001,-0.014,0.092,36.0,25.86,0.0,18.0,1641.0,56.0,-2.22,0.04,-1.16,-0.08,7.4,-15.22,70.74,330.0,,,0.0,1.0,1.0,100.0
13240,1,walk,walk,8571,,8571.0,20.0,1.0,6.0,2.0,3.09,-0.002,-0.124,0.282,36.0,25.9,0.0,18.0,1641.0,56.0,-2.27,0.05,-1.14,-0.08,6.55,-14.6,70.84,330.0,,,0.0,1.0,1.0,100.0
13260,1,walk,walk,8572,,8572.0,20.0,0.0,6.0,2.0,3.47,-0.003,-0.128,0.442,36.0,25.9,0.0,17.0,1641.0,56.0,-2.44,0.05,-1.11,-0.08,5.78,-13.18,68.53,330.0,,,0.0,1.0,1.0,100.0
13300,1,walk,walk,8573,,8573.0,20.0,1.0,6.0,2.0,3.93,-0.004,-0.077,0.506,36.0,25.9,0.0,18.0,1641.0,56.0,-2.7,0.05,-1.09,-0.07,5.12,-11.1,63.81,330.0,,,0.0,1.0,1.0,100.0
13300,1,walk,walk,8574,,8574.0,20.0,1.0,6.0,2.0,4.48,-0.005,-0.113,0.569,36.0,25.9,0.0,18.0,1641.0,56.0,-3.0,0.06,-1.05,-0.07,4.64,-8.52,56.82,330.0,,,0.0,1.0,1.0,100.0
13320,1,walk,walk,8575,,8575.0,20.0,1.0,1.0,5.0,5.09,-0.005,-0.044,0.656,36.0,25.9,0.0,18.0,1641.0,57.0,-3.29,0.06,-1.02,-0.07,4.33,-5.58,47.83,330.0,,,0.0,1.0,1.0,100.0
13360,1,walk,walk,8576,,8576.0,20.0,0.0,1.0,5.0,5.75,-0.006,-0.013,0.722,36.0,25.83,0.0,19.0,1641.0,57.0,-3.47,0.06,-0.99,-0.06,4.16,-2.07,37.3,330.0,,,0.0,1.0,1.0,100.0
13360,1,walk,walk,8577,,8577.0,20.0,0.0,1.0,5.0,6.45,-0.047,-3.493,-0.833,36.0,25.79,0.0,19.0,1641.0,57.0,-3.43,0.06,-0.96,-0.06,4.11,1.91,25.95,330.0,,,0.0,1.0,1.0,100.0
13400,1,walk,walk,8578,,8578.0,20.0,0.0,1.0,5.0,7.17,-0.095,-2.855,-1.622,36.0,25.76,0.0,19.0,1641.0,57.0,-3.09,0.05,-0.93,-0.07,4.28,6.13,14.34,330.0,,,0.0,1.0,1.0,100.0
13420,1,walk,walk,8579,,8579.0,20.0,0.0,1.0,5.0,7.89,-0.133,-2.212,-2.399,36.0,25.65,0.0,19.0,1641.0,57.0,-2.41,0.04,-0.9,-0.07,4.64,10.35,2.82,330.0,,,0.0,1.0,1.0,100.0
13460,1,walk,walk,8580,,8580.0,20.0,0.0,1.0,6.0,8.58,-0.163,-1.671,-3.156,36.0,25.62,0.0,19.0,1641.0,57.0,-1.36,0.02,-0.88,-0.07,5.1,14.28,-8.34,330.0,,,0.0,1.0,1.0,100.0
13460,1,walk,walk,8581,,8581.0,20.0,0.0,1.0,6.0,9.23,-0.184,-1.147,-4.004,36.0,25.51,0.0,19.0,1641.0,57.0,0.06,0.0,-0.87,-0.08,5.57,17.62,-18.9,330.0,,,0.0,1.0,1.0,100.0
13460,1,walk,walk,8582,,8582.0,20.0,0.0,1.0,6.0,9.81,-0.198,-0.843,-4.863,36.0,25.37,0.0,19.0,1641.0,57.0,1.83,-0.03,-0.86,-0.09,5.94,20.22,-28.78,330.0,,,0.0,1.0,1.0,100.0
13480,1,walk,walk,8583,,8583.0,20.0,0.0,1.0,6.0,10.31,-0.208,-0.613,-5.308,36.0,25.3,0.0,19.0,1641.0,57.0,3.9,-0.06,-0.86,-0.1,6.17,22.03,-37.67,330.0,,,0.0,1.0,1.0,100.0
13500,1,walk,walk,8584,,8584.0,20.0,0.0,1.0,6.0,10.71,-0.214,-0.358,-6.079,36.0,25.19,0.0,19.0,1641.0,57.0,6.22,-0.09,-0.86,-0.11,6.1,23.07,-45.32,330.0,,,0.0,1.0,1.0,100.0
13520,1,walk,walk,8585,,8585.0,20.0,0.0,1.0,6.0,11.01,-0.216,-0.148,-6.387,36.0,25.12,0.0,19.0,1641.0,57.0,8.74,-0.13,-0.87,-0.12,5.69,23.4,-51.43,330.0,,,0.0,1.0,1.0,100.0
13540,1,walk,walk,8586,,8586.0,20.0,0.0,1.0,6.0,11.18,-0.217,-0.084,-6.648,36.0,25.05,0.0,19.0,1641.0,57.0,11.32,-0.18,-0.88,-0.13,4.87,23.1,-55.67,330.0,,,0.0,1.0,1.0,100.0
13560,1,walk,walk,8587,,8587.0,20.0,0.0,1.0,6.0,11.25,-0.215,0.488,-7.419,36.0,24.91,0.0,19.0,1641.0,57.0,13.68,-0.22,-0.91,-0.13,3.96,22.87,-57.65,330.0,,,0.0,1.0,1.0,100.0
13580,1,walk,walk,8588,,8588.0,20.0,0.0,3.0,7.0,11.19,-0.21,0.109,-7.417,36.0,24.88,0.0,19.0,1641.0,57.0,15.54,-0.26,-0.93,-0.12,3.27,23.33,-57.14,330.0,,,0.0,1.0,1.0,100.0
13620,1,walk,walk,8589,,8589.0,20.0,0.0,3.0,7.0,11.02,-0.207,0.405,-7.849,36.0,24.81,0.0,19.0,1641.0,57.0,16.78,-0.29,-0.96,-0.11,2.91,24.7,-54.24,330.0,,,0.0,1.0,1.0,100.0
13620,1,walk,walk,8590,,8590.0,20.0,0.0,3.0,7.0,10.75,-0.2,0.524,-8.255,36.0,24.7,0.0,19.0,1641.0,57.0,17.44,-0.31,-0.99,-0.09,2.81,26.81,-49.24,330.0,,,0.0,1.0,1.0,100.0
13640,1,walk,walk,8591,,8591.0,20.0,1.0,3.0,7.0,10.39,-0.188,0.958,-8.949,36.0,24.49,0.0,20.0,1641.0,57.0,17.65,-0.32,-1.01,-0.07,2.81,29.16,-42.6,330.0,,,0.0,1.0,1.0,100.0
13660,1,walk,walk,8592,,8592.0,20.0,0.0,3.0,7.0,9.95,-0.174,1.127,-9.223,36.0,24.53,0.0,19.0,1641.0,57.0,17.53,-0.33,-1.03,-0.04,2.74,31.15,-34.94,330.0,,,0.0,1.0,1.0,100.0
13680,1,walk,walk,8593,,8593.0,20.0,0.0,3.0,7.0,9.45,-0.154,1.272,-8.911,36.0,24.67,0.0,19.0,1641.0,57.0,17.2,-0.33,-1.05,-0.02,2.5,32.23,-26.82,330.0,,,0.0,1.0,1.0,100.0
13700,1,walk,walk,8594,,8594.0,20.0,0.0,3.0,7.0,8.92,-0.132,1.302,-8.027,36.0,24.95,0.0,19.0,1641.0,57.0,16.74,-0.32,-1.06,-0.01,2.02,32.25,-18.8,330.0,,,0.0,1.0,1.0,100.0
13720,1,walk,walk,8595,,8595.0,20.0,0.0,3.0,7.0,8.36,-0.112,1.158,-6.473,36.0,25.3,0.0,19.0,1641.0,57.0,16.27,-0.31,-1.07,0.0,1.39,31.11,-11.33,330.0,,,0.0,1.0,1.0,100.0
13740,1,walk,walk,8596,,8596.0,20.0,0.0,3.0,7.0,7.8,-0.094,0.831,-4.474,36.0,25.62,0.0,19.0,1641.0,57.0,15.84,-0.31,-1.08,0.01,0.7,28.83,-4.77,330.0,,,0.0,1.0,1.0,100.0
13780,1,walk,walk,8597,,8597.0,20.0,0.0,0.0,1.0,7.26,-0.083,0.579,-2.827,36.0,25.79,0.0,19.0,1641.0,57.0,15.47,-0.3,-1.08,0.01,0.03,25.57,0.64,330.0,,,0.0,1.0,1.0,100.0
13780,1,walk,walk,8598,,8598.0,20.0,0.0,0.0,1.0,6.75,-0.074,0.511,-1.34,36.0,25.79,0.0,19.0,1641.0,57.0,15.18,-0.29,-1.08,0.01,-0.56,21.53,4.7,330.0,,,0.0,1.0,1.0,100.0
13800,1,walk,walk,8599,,8599.0,20.0,0.0,0.0,1.0,6.29,-0.074,0.511,-1.34,36.0,25.79,0.0,39.0,1641.0,57.0,14.91,-0.29,-1.08,0.0,-1.06,17.09,7.56,330.0,,,0.0,1.0,1.0,100.0
13820,1,walk,walk,8600,,8600.0,20.0,0.0,0.0,1.0,5.88,-0.074,0.511,-1.34,36.0,25.79,0.0,59.0,1641.0,57.0,14.62,-0.28,-1.08,0.0,-1.46,12.71,9.61,330.0,,,0.0,1.0,1.0,100.0
13840,1,walk,walk,8601,,8601.0,20.0,0.0,0.0,1.0,5.54,-0.077,-0.338,0.0,36.0,25.93,0.0,9.0,1641.0,57.0,14.32,-0.27,-1.07,0.0,-1.77,8.72,11.11,330.0,,,0.0,1.0,1.0,100.0
13860,1,walk,walk,8602,,8602.0,20.0,0.0,0.0,1.0,5.27,-0.078,-0.029,0.0,36.0,25.93,0.0,9.0,1641.0,57.0,14.01,-0.27,-1.07,-0.01,-2.03,5.33,12.12,330.0,,,0.0,1.0,1.0,100.0
13880,1,walk,walk,8603,,8603.0,20.0,0.0,0.0,1.0,5.06,-0.078,-0.046,0.0,36.0,25.9,0.0,9.0,1641.0,57.0,13.71,-0.26,-1.06,-0.01,-2.28,2.62,12.6,330.0,,,0.0,1.0,1.0,100.0
13920,1,walk,walk,8604,,8604.0,20.0,0.0,0.0,1.0,4.93,-0.078,-0.011,0.0,36.0,25.9,0.0,9.0,1641.0,57.0,13.41,-0.25,-1.05,-0.02,-2.52,0.58,12.51,330.0,,,0.0,1.0,1.0,100.0
13920,1,walk,walk,8605,,8605.0,20.0,0.0,0.0,1.0,4.86,-0.076,0.171,0.0,36.0,25.9,0.0,9.0,1641.0,57.0,13.09,-0.24,-1.05,-0.02,-2.76,-0.85,11.83,330.0,,,0.0,1.0,1.0,100.0
13940,1,walk,walk,8606,,8606.0,20.0,0.0,0.0,1.0,4.85,-0.072,0.318,0.0,36.0,25.9,0.0,9.0,1641.0,57.0,12.75,-0.24,-1.04,-0.02,-2.99,-1.76,10.59,330.0,,,0.0,1.0,1.0,100.0
13960,1,walk,walk,8607,,8607.0,20.0,0.0,0.0,1.0,4.9,-0.065,0.724,0.0,36.0,25.9,0.0,9.0,1641.0,57.0,12.36,-0.23,-1.03,-0.03,-3.19,-2.27,8.85,330.0,,,0.0,1.0,1.0,100.0
14000,1,walk,walk,8608,,8608.0,20.0,0.0,0.0,1.0,4.99,-0.054,0.754,0.0,36.0,25.9,0.0,9.0,1641.0,57.0,11.93,-0.22,-1.03,-0.03,-3.33,-2.5,6.61,330.0,,,0.0,1.0,1.0,100.0
14000,1,walk,walk,8609,,8609.0,20.0,0.0,0.0,1.0,5.13,-0.04,1.137,0.0,36.0,25.9,0.0,9.0,1641.0,57.0,11.47,-0.21,-1.03,-0.03,-3.39,-2.53,3.89,330.0,,,0.0,1.0,1.0,100.0
14040,1,walk,walk,8610,,8610.0,20.0,0.0,0.0,1.0,5.3,-0.022,0.997,0.0,36.0,25.9,0.0,9.0,1641.0,57.0,10.97,-0.2,-1.02,-0.04,-3.35,-2.43,0.7,330.0,,,0.0,1.0,1.0,100.0
14060,1,walk,walk,8611,,8611.0,20.0,1.0,0.0,1.0,5.48,-0.001,1.274,0.0,36.0,25.9,0.0,10.0,1641.0,57.0,10.45,-0.19,-1.02,-0.04,-3.21,-2.22,-2.95,330.0,,,0.0,1.0,1.0,100.0
14100,1,walk,walk,8612,,8612.0,20.0,1.0,0.0,1.0,5.68,0.02,1.752,0.0,36.0,25.9,0.0,10.0,1641.0,57.0,9.92,-0.18,-1.02,-0.05,-2.99,-1.96,-7.05,330.0,,,0.0,1.0,1.0,100.0
14100,1,walk,walk,8613,,8613.0,20.0,1.0,0.0,1.0,5.89,0.04,1.561,0.0,36.0,25.9,0.0,10.0,1641.0,57.0,9.36,-0.17,-1.02,-0.05,-2.71,-1.65,-11.48,330.0,,,0.0,1.0,1.0,100.0
14100,1,walk,walk,8614,,8614.0,20.0,1.0,6.0,2.0,6.08,0.059,0.933,0.0,36.0,25.9,0.0,10.0,1641.0,57.0,8.73,-0.16,-1.02,-0.05,-2.4,-1.34,-16.01,330.0,,,0.0,1.0,1.0,100.0
14120,1,walk,walk,8615,,8615.0,20.0,0.0,6.0,2.0,6.26,0.066,1.076,-0.165,36.0,25.86,0.0,18.0,1641.0,57.0,7.96,-0.14,-1.02,-0.06,-2.04,-1.08,-20.0,330.0,,,0.0,1.0,1.0,100.0
14140,1,walk,walk,8616,,8616.0,20.0,0.0,6.0,2.0,6.41,0.049,-1.274,-1.903,36.0,25.79,0.0,18.0,1641.0,57.0,7.0,-0.13,-1.02,-0.06,-1.58,-0.88,-22.67,330.0,,,0.0,1.0,1.0,100.0
14160,1,walk,walk,8617,,8617.0,20.0,0.0,6.0,2.0,6.53,0.029,-1.31,-1.171,36.0,25.83,0.0,18.0,1641.0,57.0,5.87,-0.11,-1.02,-0.06,-0.96,-0.8,-23.46,330.0,,,0.0,1.0,1.0,100.0
