cycle_index,gait_percent,segment_id,walk_dt_ms,walk_exec_ms,walk_out,walk_state,walk_tilt_forward_deg,walk_pos_rad,walk_vel_rad_s,walk_tq_nm,walk_temp_c,walk_vbus_v,walk_err_code,walk_fb_age_ms,walk_typical_stride_ms,walk_effective_step_count,walk_tilt_accel_deg,walk_acc_x,walk_acc_y,walk_acc_z,walk_gyr_x,walk_gyr_y,walk_gyr_z,cfg_gait_model,cfg_gait_mode,cfg_side_is_left,cfg_assist_pct
9,0.0,1,20.0,0.0,0,1,9.9,-0.247,1.219,-3.733,42.0,25.79,0,19.0,2619.0,26.0,8.35,-0.16,-1.07,0.08,-6.71,-6.67,-1.76,0,1,1,100.0
9,1.0,1,20.0,0.0,0,1,9.566,-0.22,2.297,-2.799,42.0,25.79,0,31.4,2619.0,26.0,7.0712,-0.1338,-1.07,0.08,-4.148,-4.806,2.2466,0,1,1,100.0
9,2.0,1,20.0,0.0,0,1,9.2568,-0.17056000000000002,8.902759999999997,-2.1272400000000005,42.0,25.849999999999998,0,46.28000000000001,2619.0,26.0,6.3012,-0.12,-1.07,0.08,-1.6712000000000002,-2.7136,1.3680000000000003,0,1,1,100.0
9,3.0,1,20.0,0.8599999999999994,0,1,8.973799999999999,-0.03205999999999999,4.041640000000016,0.0,42.0,25.9454,0,6.859999999999999,2619.0,26.0,6.3304,-0.12,-1.0614000000000001,0.08,0.3159999999999995,-1.1648000000000005,-2.6159999999999988,0,1,1,100.0
9,4.0,1,20.0,1.0,0,1,8.732800000000001,-0.039839999999999993,-0.5448799999999999,0.0,42.0,25.97,0,7.0,2619.0,26.0,6.8376,-0.1248,-1.0552000000000001,0.08,1.3292,-0.4492000000000001,-5.8908,0,1,1,100.0
9,5.0,1,20.0,1.0,0,1,8.5885,-0.05115,-0.7215,0.0,42.0,25.97,0,7.0,2619.0,26.0,7.2225,-0.1355,-1.05,0.08,1.403,-0.318,-6.9305,0,1,1,100.0
9,6.0,1,20.0,1.0,0,1,8.4436,-0.06348,-0.5877600000000002,0.0,42.0,25.97,0,7.0,2619.0,26.0,7.595999999999999,-0.14,-1.05,0.08,0.9728000000000006,-0.3216,-6.821600000000001,0,1,1,100.0
9,7.0,1,20.0,1.0,0,1,8.1526,-0.08136,-0.18135999999999997,0.0,42.0,25.97,0,7.0,2619.0,26.0,8.1208,-0.15,-1.04,0.07,-1.327199999999999,-0.2994000000000001,-2.8926000000000016,0,1,1,100.0
9,8.0,1,20.0,0.040000000000000514,0,1,7.984000000000001,-0.08688,-0.13732000000000005,0.0,42.0,25.97,0,6.040000000000001,2619.0,26.0,8.286399999999999,-0.15,-1.04,0.07,-3.0671999999999993,-0.11520000000000005,0.554399999999999,0,1,1,100.0
9,9.0,1,20.0,0.0,0,1,7.8568,-0.08929,-0.08786000000000005,0.0,42.0,25.97,0,6.0,2619.0,26.0,8.3616,-0.15,-1.03,0.06,-4.362299999999999,0.10929999999999986,3.1071999999999984,0,1,1,100.0
9,10.0,1,20.0,0.0,0,1,7.7059999999999995,-0.091,0.027,0.0,42.0,25.97,0,6.0,2619.0,26.0,8.428,-0.15,-1.03,0.05,-5.816,0.45799999999999996,5.774,0,1,1,100.0
9,11.0,1,20.0,0.0,0,1,7.609,-0.091,0.054539999999999894,0.0,42.0,25.97,0,6.0,2619.0,26.0,8.4846,-0.15,-1.0218,0.04180000000000001,-6.665399999999999,0.7821999999999998,6.8225999999999996,0,1,1,100.0
9,12.0,1,20.0,0.0,0,1,7.5512,-0.09,0.03424000000000001,0.0,42.0,25.97,0,6.0,2619.0,26.0,8.5244,-0.15,-1.02,0.03560000000000002,-7.288399999999999,1.1511999999999996,6.732800000000001,0,1,1,100.0
9,13.0,1,20.0,0.0,0,1,7.5406,-0.089,-0.0031599999999999797,0.0,42.0,25.97,0,6.0,2619.0,26.0,8.5282,-0.15,-1.02,0.029400000000000006,-7.8498,1.5119999999999998,5.7766,0,1,1,100.0
9,14.0,1,20.0,0.0,0,1,7.5704,-0.089,-0.011160000000000062,0.0,42.0,25.97,0,6.0,2619.0,26.0,8.466,-0.15,-1.02,0.02,-8.350399999999999,1.8087999999999997,4.273600000000002,0,1,1,100.0
9,15.0,1,20.0,0.0,0,1,7.635,-0.089,-0.064,0.0,42.0,25.97,0,6.0,2619.0,26.0,8.337,-0.15,-1.02,0.01,-8.645,2.001,2.716,0,1,1,100.0
9,16.0,1,20.0,0.0,0,1,7.7252,-0.089,-0.00955999999999989,0.0,42.0,25.97,0,6.0,2619.0,26.0,8.149600000000001,-0.15,-1.02,0.0008000000000000114,-8.578800000000001,2.0684,1.428400000000001,0,1,1,100.0
9,17.0,1,20.0,0.0,0,1,7.8278,-0.08954,-0.049219999999999785,0.0,42.0,25.97,0,6.0,2619.0,26.0,7.9398,-0.14,-1.02,-0.005399999999999978,-8.037,2.0076,0.5994000000000009,0,1,1,100.0
9,18.0,1,20.0,0.0,0,1,7.9348,-0.09223999999999999,-0.17255999999999988,0.0,42.0,25.97,0,6.0,2619.0,26.0,7.7404,-0.14,-1.02,-0.010799999999999983,-7.170800000000002,1.8712000000000002,0.21840000000000004,0,1,1,100.0
9,19.0,1,20.0,0.0,0,1,7.9834000000000005,-0.09467,-0.23898000000000005,0.0,42.0,25.97,0,6.0,2619.0,26.0,7.6432,-0.14,-1.02,-0.018900000000000007,-6.5714,1.7821,0.2022,0,1,1,100.0
9,20.0,1,20.0,0.0,0,1,8.08,-0.1024,-0.436,0.0,42.0,25.97,0,6.0,2619.0,26.0,7.4799999999999995,-0.13,-1.02,-0.024,-5.2459999999999996,1.5939999999999999,0.5800000000000001,0,1,1,100.0
9,21.0,1,20.0,0.0,6,2,8.2108,-0.08056000000000003,1.9638800000000012,3.2935999999999988,42.0,25.6478,0,18.0,2619.0,26.0,7.38,-0.13,-1.0202,-0.03,-2.557800000000001,-0.06119999999999823,1.8294000000000001,0,1,1,100.0
9,22.0,1,20.0,0.0,6,2,8.2628,-0.057080000000000006,0.6292000000000012,4.708719999999998,42.0,25.4728,0,18.0,2619.0,26.0,7.3671999999999995,-0.13,-1.03,-0.033199999999999986,-1.1020000000000012,-2.175599999999998,1.7456000000000003,0,1,1,100.0
9,23.0,1,20.0,1.0,6,2,8.3278,-0.053,0.007400000000000204,6.162539999999999,42.0,25.252200000000002,0,19.0,2619.0,26.0,7.2974,-0.13,-1.03,-0.04,1.2405999999999955,-5.587799999999995,1.487,0,1,1,100.0
9,24.0,1,20.0,1.0,6,2,8.3676,-0.05212,0.02459999999999969,6.244800000000001,42.0,25.23,0,19.0,2619.0,26.0,7.3252,-0.13,-1.03,-0.04,3.4155999999999938,-7.731999999999995,1.45,0,1,1,100.0
9,25.0,1,20.0,1.0,6,2,8.395000000000001,-0.050749999999999997,0.1245,6.07625,42.0,25.270000000000003,0,19.0,2619.0,26.0,7.425,-0.1325,-1.03,-0.0375,5.2775,-8.6525,1.4525,0,1,1,100.0
9,26.0,1,20.0,1.0,6,2,8.4224,-0.04676,0.1842800000000001,5.621080000000001,42.0,25.3736,0,19.0,2619.0,26.0,7.6344,-0.14,-1.0288,-0.02880000000000001,7.5375999999999985,-8.732,1.2576000000000003,0,1,1,100.0
9,27.0,1,20.0,1.0,6,2,8.4474,-0.04426,0.12335999999999997,5.15296,42.0,25.4518,0,19.0,2619.0,26.0,7.814,-0.14,-1.02,-0.02,8.954999999999998,-7.899000000000002,0.7314000000000009,0,1,1,100.0
9,28.0,1,20.0,1.0,6,2,8.463600000000001,-0.03992000000000001,0.17352000000000015,4.605760000000001,42.0,25.5352,0,19.0,2619.0,26.0,7.9244,-0.14,-1.02,-0.01,9.7572,-6.592400000000003,-0.06159999999999811,0,1,1,100.0
9,29.0,1,20.0,1.0,6,2,8.479800000000001,-0.03604000000000001,0.0813200000000003,4.28092,42.0,25.58,0,19.0,2619.0,26.0,7.940200000000001,-0.14,-1.02,-0.0002000000000000455,9.9986,-5.079000000000004,-0.9785999999999975,0,1,1,100.0
9,30.0,1,20.0,1.0,6,2,8.488,-0.0352,0.076,4.1484,42.0,25.612000000000002,0,19.0,2619.0,26.0,7.8999999999999995,-0.14,-1.02,0.0,9.92,-4.316,-1.4060000000000001,0,1,1,100.0
9,31.0,1,20.0,1.0,6,2,8.49,-0.033,0.09252000000000005,3.9615,42.0,25.65,0,19.0,2619.0,26.0,7.6979999999999995,-0.14,-1.02,0.01,9.334000000000001,-2.330400000000001,-2.2774,0,1,1,100.0
9,32.0,1,20.0,1.0,6,2,8.4816,-0.033,0.0290400000000001,3.92436,42.0,25.65,0,19.0,2619.0,26.0,7.5276000000000005,-0.13160000000000002,-1.02,0.01839999999999998,8.8648,-1.3464000000000012,-2.4268,0,1,1,100.0
9,33.0,1,20.0,1.0,6,2,8.4608,-0.033,-0.09859999999999991,3.97594,42.0,25.65,0,19.0,2619.0,26.0,7.3347999999999995,-0.13,-1.02,0.02,8.516399999999999,-0.7357999999999993,-2.1711999999999994,0,1,1,100.0
9,34.0,1,20.0,1.0,6,2,8.4284,-0.03308,-0.11416000000000068,4.037039999999999,42.0,25.62,0,19.0,2619.0,26.0,7.1404000000000005,-0.13,-1.02,0.02,8.3616,-0.42440000000000033,-1.5220000000000027,0,1,1,100.0
9,35.0,1,20.0,1.0,6,2,8.389000000000001,-0.0347,0.0304,4.1774,42.0,25.62,0,19.0,2619.0,26.0,6.9670000000000005,-0.123,-1.02,0.02,8.450000000000001,-0.353,-0.47300000000000003,0,1,1,100.0
9,36.0,1,20.0,1.0,6,2,8.337200000000001,-0.035,-0.02784000000000043,4.2462,42.0,25.5928,0,19.0,2619.0,26.0,6.88,-0.12,-1.02,0.03,8.6848,-0.3895999999999998,0.7403999999999951,0,1,1,100.0
9,37.0,1,20.0,1.0,6,2,8.281799999999999,-0.035,0.009360000000000012,4.23608,42.0,25.62,0,19.0,2619.0,26.0,6.927,-0.12,-1.02,0.03,8.8364,-0.41,1.7939999999999987,0,1,1,100.0
9,38.0,1,20.0,1.0,6,2,8.2276,-0.035,0.013759999999999934,4.18384,42.0,25.6024,0,19.0,2619.0,26.0,7.097200000000001,-0.13,-1.02,0.04,8.615599999999999,-0.2927999999999997,2.3252,0,1,1,100.0
9,39.0,1,20.0,1.1799999999999955,6,2,8.1764,-0.03382000000000001,0.1390200000000005,3.9961600000000006,42.0,25.6254,0,19.179999999999996,2619.0,26.0,7.289799999999999,-0.13,-1.01,0.05,7.991000000000002,-0.020400000000001,2.293200000000001,0,1,1,100.0
9,40.0,1,20.0,1.6,6,2,8.152000000000001,-0.032600000000000004,0.0356,3.8498,42.0,25.65,0,19.6,2619.0,26.0,7.412,-0.13,-1.01,0.05,7.288,0.256,1.916,0,1,1,100.0
9,41.0,1,20.0,1.2099999999999966,6,2,8.117899999999999,-0.03079,0.00985000000000005,3.7023200000000003,42.0,25.69,0,19.209999999999997,2619.0,26.0,7.5142,-0.13,-1.01,0.06,6.077200000000002,0.7003999999999992,1.0729000000000017,0,1,1,100.0
9,42.0,1,20.0,2.0,6,2,8.099599999999999,-0.03,-0.0031200000000001634,3.575,42.0,25.69,0,19.0,2619.0,26.0,7.5084,-0.13,-1.01,0.06,4.866400000000001,1.1171999999999997,0.16320000000000096,0,1,1,100.0
9,43.0,1,20.0,2.0,6,2,8.09,-0.03,0.026399999999999865,3.55388,42.0,25.69,0,19.0,2619.0,26.0,7.436999999999999,-0.13,-1.01,0.06,3.950199999999999,1.3890000000000002,-0.4776000000000008,0,1,1,100.0
9,44.0,1,20.0,2.0,6,2,8.08,-0.028720000000000006,0.01988000000000013,3.37496,42.0,25.6984,0,19.0,2619.0,26.0,7.356000000000001,-0.13,-1.01,0.06,3.1696000000000017,1.5751999999999995,-0.9571999999999988,0,1,1,100.0
9,45.0,1,20.0,2.0,6,2,8.08,-0.028,0.026449999999999998,3.33455,42.0,25.72,0,19.0,2619.0,26.0,7.293,-0.13,-1.0145,0.06,2.6799999999999997,1.6669999999999998,-1.22,0,1,1,100.0
9,46.0,1,20.0,2.0,6,2,8.07,-0.026480000000000007,0.0024800000000003474,3.120400000000001,42.0,25.7408,0,19.0,2619.0,26.0,7.1892000000000005,-0.13,-1.02,0.06,1.8828000000000022,1.7707999999999997,-1.6187999999999987,0,1,1,100.0
9,47.0,1,20.0,2.0,6,2,8.0586,-0.024720000000000006,0.08933999999999993,2.9073,42.0,25.764200000000002,0,19.0,2619.0,26.0,7.1144,-0.13,-1.02,0.06,1.3010000000000008,1.8483999999999998,-1.9435999999999993,0,1,1,100.0
9,48.0,1,20.0,2.0,6,2,8.0348,-0.02224000000000001,0.10080000000000018,2.636000000000001,42.75999999999999,25.79,0,19.0,2619.0,26.0,7.0572,-0.13,-1.02,0.06,0.7492000000000031,1.9683999999999993,-2.3627999999999973,0,1,1,100.0
9,49.0,1,20.0,2.0,6,2,8.0162,-0.021310000000000003,0.10427999999999997,2.4652400000000005,43.0,25.8176,0,19.0,2619.0,26.0,7.0224,-0.13,-1.02,0.06,0.4492000000000007,2.0658999999999996,-2.671499999999999,0,1,1,100.0
9,50.0,1,20.0,2.0,6,2,7.99,-0.019,0.15,2.108,43.0,25.83,0,19.0,2619.0,26.0,6.97,-0.12,-1.02,0.06,0.05,2.23,-3.21,0,1,1,100.0
9,51.0,1,20.0,2.0,6,2,7.9414,-0.014760000000000014,0.11205999999999991,1.7401800000000014,43.0,25.86,0,19.0,2619.0,26.0,6.8866000000000005,-0.12,-1.02,0.06,-0.36879999999999835,2.462999999999999,-4.034799999999996,0,1,1,100.0
9,52.0,1,20.0,1.0,6,2,7.8652,-0.011380000000000001,0.1563000000000001,1.29984,43.0,25.9,0,18.0,2619.0,26.0,6.7118,-0.12,-1.02,0.06,-0.7205999999999999,2.7691999999999997,-5.134799999999999,0,1,1,100.0
9,53.0,1,20.0,1.0,6,2,7.757000000000001,-0.008140000000000008,0.03359999999999946,0.9677000000000009,43.0,25.9258,0,18.0,2619.0,26.0,6.411000000000001,-0.1114000000000001,-1.02,0.05,-0.84,3.0917999999999988,-6.182599999999996,0,1,1,100.0
9,54.0,1,20.0,1.0,6,2,7.6564000000000005,-0.007,0.04427999999999972,0.8340800000000005,43.0,25.93,0,18.0,2619.0,26.0,6.1336,-0.11,-1.02,0.05,-0.6980000000000007,3.2535999999999996,-6.621599999999999,0,1,1,100.0
9,55.0,1,20.0,2.0,6,2,7.5409999999999995,-0.006,-0.0226,0.7005,43.0,25.93,0,19.0,2619.0,26.0,5.8309999999999995,-0.1,-1.02,0.05,-0.372,3.319,-6.729,0,1,1,100.0
9,56.0,1,20.0,2.0,6,2,7.4024,-0.006,-0.02800000000000034,0.6805200000000001,43.0,25.93,0,19.0,2619.0,26.0,5.516000000000002,-0.1,-1.02,0.04280000000000007,0.1319999999999976,3.2668000000000004,-6.450000000000002,0,1,1,100.0
9,57.0,1,20.0,2.0,6,2,7.246,-0.006,-0.06933999999999987,0.68258,43.0,25.93,0,19.0,2619.0,26.0,5.2122,-0.09,-1.0234,0.04,0.796399999999999,3.0856000000000003,-5.816600000000001,0,1,1,100.0
9,58.0,1,20.0,2.0,6,2,7.074400000000002,-0.006,-0.031960000000000675,0.70316,43.0,25.93,0,19.0,2619.0,26.0,4.936800000000002,-0.09,-1.03,0.04,1.5799999999999956,2.7784000000000018,-4.894400000000005,0,1,1,100.0
9,59.0,1,20.0,2.0,6,2,6.8962,-0.006579999999999996,0.009480000000000427,0.7467999999999999,43.0,25.93,0,19.0,2619.0,26.0,4.6988,-0.08420000000000004,-1.03,0.04,2.4431999999999974,2.3518000000000012,-3.7018000000000035,0,1,1,100.0
9,60.0,1,20.0,2.0,6,2,6.708,-0.0072,-0.0362,0.8712,43.0,25.93,0,19.0,2619.0,26.0,4.502,-0.08,-1.03,0.04,3.33,1.8399999999999999,-2.338,0,1,1,100.0
9,61.0,1,20.0,2.0,6,2,6.521600000000001,-0.008819999999999993,0.006319999999999138,1.057659999999999,43.0,25.93,0,19.0,2619.0,26.0,4.3644,-0.08,-1.03,0.04,4.212799999999996,1.2648000000000024,-0.8310000000000066,0,1,1,100.0
9,62.0,1,20.0,2.0,6,2,6.341600000000001,-0.01,-0.05043999999999989,1.1948799999999997,43.0,25.93,0,19.0,2619.0,26.0,4.2724,-0.08,-1.03,0.04,5.031199999999999,0.6816000000000008,0.7655999999999978,0,1,1,100.0
9,63.0,1,20.0,2.0,6,2,6.1770000000000005,-0.011029999999999995,0.006610000000000059,1.3068599999999997,43.0,25.9,0,19.0,2619.0,26.0,4.2397,-0.08,-1.03,0.05,5.731699999999998,0.10980000000000155,2.3599999999999954,0,1,1,100.0
9,64.0,1,20.0,2.0,6,2,6.096,-0.011839999999999998,-0.003919999999999971,1.3570799999999998,43.0,25.9,0,19.0,2619.0,26.0,4.2316,-0.08,-1.03,0.05,6.047599999999999,-0.1655999999999992,3.1699999999999977,0,1,1,100.0
9,65.0,1,20.0,2.0,6,2,5.948,-0.012,0.03115,1.3707500000000001,43.0,25.9,0,19.0,2619.0,26.0,4.2235,-0.08,-1.03,0.05,6.6845,-0.6695,5.003,0,1,1,100.0
9,66.0,1,20.0,2.0,6,2,5.803999999999999,-0.011079999999999994,0.04096000000000017,1.32168,43.0,25.9,0,19.0,2619.0,26.0,4.2292000000000005,-0.08,-1.0392000000000001,0.059200000000000044,7.3576000000000015,-0.9360000000000002,7.432000000000005,0,1,1,100.0
9,67.0,1,20.0,2.0,6,2,5.7492,-0.010460000000000013,0.07020000000000028,1.1805000000000017,43.0,25.9162,0,19.0,2619.0,26.0,4.276999999999999,-0.08,-1.04,0.06,7.748799999999997,-0.8352000000000016,9.276399999999985,0,1,1,100.0
9,68.0,1,20.0,2.0,6,2,5.73,-0.008680000000000018,0.2035200000000014,0.933440000000001,43.0,25.93,0,19.0,2619.0,26.0,4.399199999999999,-0.08,-1.04,0.07,8.063999999999998,-0.5236000000000026,11.15079999999999,0,1,1,100.0
9,69.0,1,20.0,2.0,6,2,5.7534,-0.006220000000000005,0.12101999999999974,0.7252400000000006,43.0,25.93,0,19.0,2619.0,26.0,4.648199999999999,-0.08779999999999995,-1.04,0.07,8.2758,-0.046000000000001345,12.926799999999995,0,1,1,100.0
9,70.0,1,20.0,2.0,6,2,5.788,-0.006,0.1424,0.6646,43.0,25.93,0,19.0,2619.0,26.0,4.865,-0.09,-1.04,0.077,8.363000000000001,0.22999999999999998,13.839,0,1,1,100.0
9,71.0,1,20.0,2.0,6,2,5.8516,-0.005979999999999996,-0.02525999999999983,0.5127400000000002,43.0,25.93,0,19.0,2619.0,26.0,5.267800000000001,-0.1,-1.04,0.08,8.461200000000002,0.6050000000000011,14.973200000000004,0,1,1,100.0
9,72.0,1,20.0,2.0,6,2,5.987599999999999,-0.005,0.018039999999999848,0.5381200000000003,43.0,25.93,0,19.0,2619.0,26.0,5.9379999999999935,-0.10639999999999987,-1.0336,0.08,8.5456,0.9523999999999978,15.914399999999992,0,1,1,100.0
9,73.0,1,20.0,2.0,6,2,6.298999999999999,-0.005259999999999991,0.014540000000000646,0.6375599999999995,43.0,25.93,0,18.0,2619.0,26.0,7.239999999999996,-0.1325999999999999,-1.02,0.09,8.6908,0.9866000000000008,16.404400000000003,0,1,1,100.0
9,74.0,1,20.0,2.0,6,2,6.5596,-0.006,-0.06263999999999988,0.7546799999999996,43.0,25.93,0,18.0,2619.0,26.0,8.005999999999998,-0.14,-1.0112,0.09,8.846799999999998,0.8584000000000003,16.228,0,1,1,100.0
9,75.0,1,20.0,2.0,6,2,6.715,-0.00675,-0.002999999999999994,0.8295,43.0,25.93,0,18.0,2619.0,26.0,8.345,-0.1475,-1.01,0.09,8.9575,0.8574999999999999,16.09,0,1,1,100.0
9,76.0,1,20.0,2.0,6,2,7.196400000000001,-0.007,-0.024319999999999824,0.8829600000000001,43.0,25.93,0,18.0,2619.0,26.0,8.923200000000001,-0.16,-1.01,0.10120000000000005,9.347600000000002,1.3164000000000022,16.060000000000002,0,1,1,100.0
9,77.0,1,20.0,2.0,6,2,7.567599999999997,-0.007,-0.007019999999999685,0.835240000000001,43.0,25.93,0,18.0,2619.0,26.0,9.0496,-0.16,-1.0173999999999999,0.11,9.757199999999996,2.2479999999999905,16.612999999999996,0,1,1,100.0
9,78.0,1,20.0,1.640000000000009,6,2,7.969999999999998,-0.00664000000000001,0.06932000000000058,0.7842000000000003,43.0,25.93,0,17.640000000000008,2619.0,26.0,9.0428,-0.16,-1.02,0.12,10.331199999999995,3.9167999999999874,17.619999999999994,0,1,1,100.0
9,79.0,1,20.0,1.0,6,2,8.394599999999999,-0.006,-0.017059999999999787,0.5327400000000011,43.0,25.93,0,17.0,2619.0,26.0,9.020199999999999,-0.16,-1.0298,0.12979999999999997,11.080199999999998,6.524799999999992,18.903599999999997,0,1,1,100.0
9,80.0,1,20.0,1.0,6,2,8.616,-0.0052,0.0524,0.4728,43.0,25.93,0,17.0,2619.0,26.0,9.052,-0.16,-1.03,0.138,11.538,8.288,19.584,0,1,1,100.0
9,81.0,1,20.0,1.0,6,2,9.251266666666668,-0.002926666666666665,0.017080000000000064,0.28055999999999975,43.0,25.93,0,17.0,2619.0,26.0,9.359066666666667,-0.17,-1.0292666666666668,0.15073333333333333,12.8618,14.354400000000005,21.1142,0,1,1,100.0
9,82.0,1,20.0,1.0,6,2,9.407866666666665,-0.002386666666666671,0.03975999999999981,0.19632000000000072,43.0,25.93,0,17.0,2619.0,26.0,9.499466666666665,-0.17,-1.0238666666666667,0.1561333333333333,13.169599999999997,16.006799999999988,21.2924,0,1,1,100.0
9,83.0,1,20.0,1.0,6,2,10.262599999999997,-0.001,-0.008260000000000624,-0.0032799999999993832,43.0,25.9516,0,17.0,2619.0,26.0,10.518599999999996,-0.1845999999999999,-1.0054,0.17459999999999992,14.665399999999995,23.341399999999986,20.36860000000001,0,1,1,100.0
9,84.0,1,20.0,1.0,6,2,10.775599999999999,7.999999999999545e-05,0.1306400000000003,-0.11891999999999955,43.0,25.93,0,17.0,2619.0,26.0,11.1564,-0.2,-0.9892000000000001,0.17,15.423599999999999,24.573600000000003,17.86120000000001,0,1,1,100.0
9,85.0,1,20.0,1.0,6,2,11.294,0.001,0.0487,-0.2555,43.0,25.93,0,17.0,2619.0,26.0,11.628,-0.2,-0.98,0.163,16.041,22.354,13.611,0,1,1,100.0
9,86.0,1,20.0,1.0,6,2,11.809200000000002,0.002320000000000005,0.04631999999999978,-0.45780000000000054,42.67999999999999,25.93,0,17.0,2619.0,26.0,11.8364,-0.2,-0.9667999999999999,0.15679999999999997,16.2648,17.20479999999998,7.959199999999982,0,1,1,100.0
9,87.0,1,20.0,1.0,0,5,12.301999999999996,0.003939999999999986,0.016759999999999945,-0.5754799999999994,42.0,25.93,0,17.0,2619.0,26.0,11.737200000000001,-0.2,-0.96,0.14060000000000014,15.738800000000007,9.907400000000065,1.247400000000059,0,1,1,100.0
9,88.0,1,20.0,0.0,0,6,12.771199999999997,0.004,0.017,-0.578,42.0,25.93,0,47.19999999999982,2619.0,26.0,11.209200000000003,-0.19,-0.95,0.11440000000000008,13.904400000000013,1.3480000000000496,-6.777999999999952,0,1,1,100.0
9,89.0,1,20.0,0.0,0,6,13.1678,0.017499999999999658,1.8301399999999544,-0.4739600000000026,42.0,25.93,0,63.40000000000032,2619.0,26.0,10.383800000000003,-0.17820000000000005,-0.9517999999999999,0.09820000000000005,10.734600000000011,-7.381599999999977,-15.618399999999976,0,1,1,100.0
9,90.0,1,20.0,0.0,0,6,13.468,0.08220000000000001,2.4204,0.0,42.0,25.962,0,6.0,2619.0,26.0,9.364,-0.162,-0.96,0.09,6.324,-15.315999999999999,-24.006,0,1,1,100.0
9,91.0,1,20.0,0.0,0,6,13.6494,0.1086600000000001,1.5838400000000021,0.0,42.0,25.97,0,6.0,2619.0,26.0,8.018399999999996,-0.13579999999999998,-0.97,0.08,1.137199999999985,-21.615600000000015,-31.28140000000002,0,1,1,100.0
9,92.0,1,20.0,0.0,0,6,13.6888,0.14441999999999985,1.551920000000003,0.0,42.0,25.97,0,6.0,2619.0,26.0,6.232000000000009,-0.1094000000000002,-0.9802,0.09,-4.193999999999978,-25.618999999999996,-37.684399999999975,0,1,1,100.0
9,93.0,1,20.0,0.0,0,6,13.6402,0.1614299999999999,1.184180000000002,0.0,42.0,25.97,0,6.0,2619.0,26.0,5.098000000000006,-0.08510000000000013,-0.9883,0.09,-6.785999999999985,-26.388499999999997,-40.69759999999998,0,1,1,100.0
9,94.0,1,20.0,0.0,0,6,13.2394,0.18914,0.22308000000000042,0.0,42.0,25.97,0,6.0,2619.0,26.0,1.4888000000000035,-0.025800000000000066,-1.0214,0.10139999999999998,-13.219399999999995,-23.967400000000005,-48.78339999999999,0,1,1,100.0
9,95.0,1,20.0,0.0,0,6,13.0045,0.18995,0.0789,0.0,42.0,25.97,0,6.0,2619.0,26.0,0.20899999999999996,-0.0014999999999999983,-1.0295,0.1095,-15.0095,-21.464499999999997,-51.4645,0,1,1,100.0
9,96.0,1,20.0,0.0,0,6,11.90960000000001,0.18948,0.03939999999999872,0.0,42.0,25.97,0,6.0,2619.0,26.0,-3.1403999999999814,0.06039999999999964,-1.0552,0.1251999999999998,-18.499999999999986,-9.051600000000104,-59.31679999999995,0,1,1,100.0
9,97.0,1,20.0,0.0,0,6,10.95340000000001,0.18886000000000003,-0.008499999999996255,0.0,42.0,25.97,0,6.0,2619.0,26.0,-4.373399999999996,0.08139999999999986,-1.0714,0.13,-19.063600000000005,0.5565999999999155,-63.52539999999997,0,1,1,100.0
9,98.0,1,20.0,0.0,0,6,10.167466666666668,0.18673333333333333,-0.2895866666666661,0.0,42.0,25.97,0,6.0,2619.0,26.0,-4.6096,0.09,-1.08,0.13,-18.660133333333334,7.460799999999981,-65.69466666666666,0,1,1,100.0
9,99.0,1,20.0,0.0,0,6,9.757066666666667,0.18403333333333333,-0.3846266666666664,0.0,42.0,25.97,0,6.0,2619.0,26.0,-4.5447999999999995,0.09,-1.08,0.13,-18.276733333333333,10.83039999999999,-66.45066666666666,0,1,1,100.0
9,100.0,1,20.0,0.0,0,6,7.86,0.174,-0.065,0.0,42.0,25.97,0,6.0,2619.0,26.0,-2.85,0.05,-1.08,0.12,-15.77,23.65,-66.06,0,1,1,100.0
10,0.0,1,20.0,0.0,0,1,-1.55,0.126,3.539,0.0,42.0,25.97,0,6.0,2619.0,26.0,12.26,-0.21,-0.99,0.04,-12.06,18.4,-2.13,0,1,1,100.0
10,1.0,1,20.0,0.0,0,1,-1.6314736842105264,0.12817263157894737,3.0759578947368422,0.0,42.0,25.97,0,6.0,2619.0,26.0,12.174,-0.20909473684210525,-0.99,0.04,-12.05818947368421,17.766315789473683,-1.5642105263157895,0,1,1,100.0
10,2.0,1,20.0,0.0,0,1,-1.7129473684210528,0.13034526315789474,2.6129157894736843,0.0,42.0,25.97,0,6.0,2619.0,26.0,12.088,-0.20818947368421054,-0.99,0.04,-12.05637894736842,17.132631578947368,-0.998421052631579,0,1,1,100.0
10,3.0,1,20.0,0.0,0,1,-1.794421052631579,0.1325178947368421,2.1498736842105264,0.0,42.0,25.97,0,6.0,2619.0,26.0,12.002,-0.2072842105263158,-0.99,0.04,-12.054568421052632,16.498947368421053,-0.4326315789473686,0,1,1,100.0
10,4.0,1,20.0,0.0,0,1,-1.8758947368421053,0.13469052631578948,1.6868315789473685,0.0,42.0,25.97,0,6.0,2619.0,26.0,11.916,-0.20637894736842105,-0.99,0.04,-12.052757894736843,15.865263157894736,0.133157894736842,0,1,1,100.0
10,5.0,1,20.0,0.0,0,1,-1.9573684210526316,0.13686315789473685,1.2237894736842105,0.0,42.0,25.97,0,6.0,2619.0,26.0,11.83,-0.2054736842105263,-0.99,0.04,-12.050947368421053,15.23157894736842,0.6989473684210525,0,1,1,100.0
10,6.0,1,20.0,0.0,0,1,-2.038842105263158,0.1390357894736842,0.7607473684210528,0.0,42.0,25.97,0,6.0,2619.0,26.0,11.744,-0.2045684210526316,-0.99,0.04,-12.049136842105263,14.597894736842106,1.2647368421052627,0,1,1,100.0
10,7.0,1,20.0,0.0,0,1,-2.1203157894736844,0.14120842105263157,0.2977052631578948,0.0,42.0,25.97,0,6.0,2619.0,26.0,11.658,-0.20366315789473685,-0.99,0.04,-12.047326315789473,13.964210526315789,1.8305263157894733,0,1,1,100.0
10,8.0,1,20.0,0.0,0,1,-2.2017894736842107,0.14338105263157894,-0.16533684210526317,0.0,42.0,25.97,0,6.0,2619.0,26.0,11.572000000000001,-0.2027578947368421,-0.99,0.04,-12.045515789473683,13.330526315789474,2.3963157894736837,0,1,1,100.0
10,9.0,1,20.0,0.0,0,1,-2.2832631578947367,0.1455536842105263,-0.6283789473684208,0.0,42.0,25.97,0,6.0,2619.0,26.0,11.486,-0.20185263157894737,-0.99,0.04,-12.043705263157895,12.696842105263158,2.962105263157894,0,1,1,100.0
10,10.0,1,20.0,0.0,0,1,-2.3647368421052635,0.14772631578947368,-1.0914210526315793,0.0,42.0,25.97,0,6.0,2619.0,26.0,11.4,-0.20094736842105265,-0.99,0.04,-12.041894736842105,12.063157894736843,3.527894736842105,0,1,1,100.0
10,11.0,1,20.0,0.0,0,1,-2.4462105263157894,0.14989894736842105,-1.5544631578947368,0.0,42.0,25.97,0,6.0,2619.0,26.0,11.314,-0.2000421052631579,-0.99,0.04,-12.040084210526315,11.429473684210528,4.093684210526315,0,1,1,100.0
10,12.0,1,20.0,0.0,0,1,-2.7779999999999996,0.12950000000000003,-2.1032599999999992,0.0,42.0,25.97,0,6.0,2619.0,26.0,10.572000000000001,-0.18770000000000003,-0.9941,0.048199999999999986,-11.8965,8.677600000000004,6.202799999999997,0,1,1,100.0
10,13.0,1,20.0,0.0,0,1,-3.122,0.10800000000000001,-2.65624,0.0,42.0,25.97,0,6.0,2619.0,26.0,9.798,-0.1748,-0.9984,0.056799999999999996,-11.745999999999999,5.822400000000001,8.387199999999998,0,1,1,100.0
10,14.0,1,20.0,0.0,0,1,-2.7828000000000013,-0.10515999999999999,-0.011719999999999729,0.0,42.0,25.97,0,6.0,2619.0,26.0,2.1911999999999985,-0.04079999999999998,-1.03,0.08920000000000002,-5.006799999999999,-1.0944000000000014,39.6208,0,1,1,100.0
10,15.0,1,20.0,0.0,0,1,1.322,-0.11,-0.038400000000000004,0.0,42.0,25.97,0,6.0,2619.0,26.0,6.874,-0.124,-1.01,0.056,-8.086,2.21,22.762,0,1,1,100.0
10,16.0,1,20.0,0.0,0,1,2.0731999999999995,-0.11,-0.04355999999999991,0.0,42.0,25.97,0,6.0,2619.0,26.0,7.414,-0.1352,-1.01,0.04480000000000001,-8.3744,2.3975999999999997,19.610000000000003,0,1,1,100.0
10,17.0,1,20.0,0.0,0,1,4.429199999999999,-0.10256000000000007,0.5575999999999951,0.6155999999999939,42.0,25.8568,0,18.0,2619.0,26.0,8.692400000000001,-0.15239999999999998,-1.01,0.027600000000000024,-8.795200000000001,2.1576000000000017,10.308400000000006,0,1,1,100.0
10,18.0,1,20.0,0.0,6,2,5.397999999999998,-0.055000000000000084,1.2641200000000035,3.4178399999999973,42.0,25.6528,0,18.0,2619.0,26.0,9.0628,-0.16,-1.01,0.02,-8.636000000000001,0.3992000000000043,5.546400000000009,0,1,1,100.0
10,19.0,1,20.0,1.0,6,2,6.266400000000001,-0.04364,0.2399600000000001,4.55312,42.0,25.552799999999998,0,19.0,2619.0,26.0,9.1836,-0.16,-1.01,0.01,-8.091199999999999,-2.0860000000000016,0.5019999999999964,0,1,1,100.0
10,20.0,1,20.0,1.0,6,2,7.01,-0.0372,0.258,4.1394,42.0,25.596,0,19.0,2619.0,26.0,9.1,-0.16,-1.014,0.0,-7.206,-4.1899999999999995,-3.874,0,1,1,100.0
10,21.0,1,20.0,1.0,6,2,7.635999999999999,-0.032760000000000004,0.12884000000000004,3.76952,42.0,25.654799999999998,0,19.0,2619.0,26.0,8.8772,-0.16,-1.02,-0.0011999999999999886,-6.097200000000001,-5.3924,-7.176799999999998,0,1,1,100.0
10,22.0,1,20.0,1.0,6,2,8.1184,-0.030160000000000003,-0.04071999999999958,3.6466,42.0,25.69,0,19.0,2619.0,26.0,8.508400000000002,-0.1516,-1.02,-0.01,-4.893600000000002,-5.6468,-9.164399999999999,0,1,1,100.0
10,23.0,1,20.0,1.0,6,2,8.475200000000001,-0.03111999999999999,-0.14527999999999952,3.921799999999999,42.0,25.6676,0,19.0,2619.0,26.0,7.999600000000001,-0.14440000000000003,-1.02,-0.01,-3.5920000000000027,-5.434800000000001,-9.5768,0,1,1,100.0
10,24.0,1,20.0,1.0,6,2,8.6952,-0.038399999999999976,-0.3817999999999997,5.004999999999997,42.0,25.512,0,19.0,2619.0,26.0,7.339600000000002,-0.13,-1.0228,-0.012799999999999956,-2.0716000000000045,-5.244400000000001,-8.102400000000008,0,1,1,100.0
10,25.0,1,20.0,1.0,6,2,8.81,-0.046,-0.151,5.777,42.0,25.37,0,19.0,2619.0,26.0,6.6,-0.12,-1.03,-0.02,-0.08,-5.23,-4.54,0,1,1,100.0
10,26.0,1,20.0,1.0,6,2,8.8228,-0.04628,0.116,5.605,42.0,25.3916,0,19.0,2619.0,26.0,6.0040000000000004,-0.11,-1.04,-0.02,2.748799999999998,-5.0792,0.5591999999999965,0,1,1,100.0
10,27.0,1,20.0,1.0,6,2,8.779,-0.04268,0.3215199999999998,4.835600000000001,42.0,25.4942,0,19.0,2619.0,26.0,5.7168,-0.1078,-1.05,-0.02,5.644399999999997,-4.708600000000001,5.224599999999997,0,1,1,100.0
10,28.0,1,20.0,1.0,6,2,8.682,-0.032520000000000014,0.27560000000000073,3.5859600000000005,42.0,25.661199999999997,0,19.0,2619.0,26.0,5.814799999999999,-0.11,-1.0584,-0.02,9.425199999999995,-3.862000000000002,10.384799999999993,0,1,1,100.0
10,29.0,1,20.0,1.0,6,2,8.596,-0.029120000000000007,0.03340000000000031,3.4245200000000002,42.0,25.6936,0,19.0,2619.0,26.0,6.463599999999998,-0.11879999999999995,-1.05,-0.011200000000000045,12.119599999999993,-2.9336000000000024,13.348399999999993,0,1,1,100.0
10,30.0,1,20.0,1.0,6,2,8.538,-0.0296,-0.106,3.5877999999999997,42.0,25.702,0,19.0,2619.0,26.0,7.59,-0.136,-1.028,-0.004,13.676,-2.218,14.366,0,1,1,100.0
10,31.0,1,20.0,1.0,6,2,8.5232,-0.03147999999999999,-0.07239999999999995,3.9847999999999986,42.0,25.6452,0,19.0,2619.0,26.0,8.839599999999997,-0.15319999999999992,-1.0084,0.01,14.109200000000001,-1.9579999999999997,13.743600000000004,0,1,1,100.0
10,32.0,1,20.0,1.0,6,2,8.5824,-0.037079999999999995,-0.06227999999999953,4.67012,42.0,25.5388,0,19.0,2619.0,26.0,10.282799999999998,-0.18039999999999998,-0.9896,0.020399999999999977,13.5884,-2.2347999999999995,11.361600000000003,0,1,1,100.0
10,33.0,1,20.0,1.0,6,2,8.700800000000001,-0.04052000000000001,-0.18955999999999978,4.97292,42.0,25.479599999999998,0,19.0,2619.0,26.0,11.1112,-0.19,-0.9723999999999999,0.03,12.629199999999999,-2.954800000000001,8.374799999999997,0,1,1,100.0
10,34.0,1,20.0,1.0,6,2,8.774266666666668,-0.04149333333333333,-0.1235866666666668,5.069159999999999,42.0,25.47,0,19.0,2619.0,26.0,11.269066666666665,-0.19493333333333332,-0.97,0.03,12.228533333333335,-3.336399999999999,7.131066666666669,0,1,1,100.0
10,35.0,1,20.0,1.0,6,2,8.975999999999999,-0.043,-0.0414,5.1842,42.0,25.47,0,19.0,2619.0,26.0,11.209999999999999,-0.19,-0.982,0.04,11.442,-4.258,4.73,0,1,1,100.0
10,36.0,1,20.0,1.0,6,2,9.2088,-0.043,-0.003960000000000081,5.14936,42.0,25.47,0,19.0,2619.0,26.0,10.678800000000003,-0.19,-0.99,0.04,10.958400000000001,-5.008799999999997,3.5284000000000035,0,1,1,100.0
10,37.0,1,20.0,1.0,6,2,9.606,-0.039720000000000005,0.08155999999999976,4.700960000000001,42.0,25.5292,0,19.0,2619.0,26.0,9.606000000000002,-0.17360000000000003,-1.0164,0.05639999999999998,10.596,-5.3944,4.507599999999998,0,1,1,100.0
10,38.0,1,20.0,1.0,6,2,9.8468,-0.038,0.02328000000000011,4.5086,42.0,25.54,0,19.0,2619.0,26.0,9.2148,-0.17,-1.03,0.06360000000000002,10.371599999999999,-5.0984,6.304000000000002,0,1,1,100.0
10,39.0,1,20.0,1.0,6,2,10.0056,-0.03746,0.08531999999999987,4.4746999999999995,42.0,25.5616,0,19.0,2619.0,26.0,9.2402,-0.17,-1.03,0.07,10.066400000000002,-4.678600000000001,7.574599999999998,0,1,1,100.0
10,40.0,1,20.0,1.0,6,2,10.166,-0.037,0.0752,4.4372,42.0,25.548,0,19.0,2619.0,26.0,9.564,-0.17,-1.022,0.078,9.478,-4.098,8.542,0,1,1,100.0
10,41.0,1,20.0,0.0,6,2,10.4972,-0.037,0.0011199999999996172,4.431439999999999,42.0,25.5592,0,18.0,2619.0,26.0,11.118399999999994,-0.19519999999999993,-0.9948,0.09519999999999994,7.078000000000007,-2.766000000000003,7.591200000000009,0,1,1,100.0
10,42.0,1,20.0,1.0,6,2,10.6988,-0.036,0.010199999999999874,4.38324,42.0,25.58,0,19.0,2619.0,26.0,12.197199999999999,-0.21239999999999998,-0.9776,0.1,5.178000000000002,-2.1252000000000004,4.722000000000005,0,1,1,100.0
10,43.0,1,20.0,1.0,6,2,10.9052,-0.036,0.03375999999999996,4.27976,42.0,25.58,0,19.0,2619.0,26.0,12.945600000000002,-0.22,-0.97,0.1,3.506399999999998,-1.7951999999999997,0.6787999999999945,0,1,1,100.0
10,44.0,1,20.0,1.0,6,2,11.0948,-0.03364000000000001,0.16411999999999963,4.010200000000001,42.0,25.6404,0,19.0,2619.0,26.0,13.0488,-0.22320000000000004,-0.97,0.09,2.3728000000000025,-1.8815999999999995,-3.561599999999989,0,1,1,100.0
10,45.0,1,20.0,1.0,6,2,11.200000000000001,-0.0323,0.0867,3.8541,42.0,25.65,0,19.0,2619.0,26.0,12.796,-0.22,-0.977,0.09,1.913,-2.0389999999999997,-5.727,0,1,1,100.0
10,46.0,1,20.0,1.0,6,2,11.4172,-0.030880000000000008,0.036880000000000177,3.6543200000000007,42.0,25.69,0,19.0,2619.0,26.0,11.498400000000006,-0.1988000000000001,-0.9912,0.09,1.1936000000000015,-2.3748,-8.686399999999999,0,1,1,100.0
10,47.0,1,20.0,1.0,6,2,11.512,-0.03,-0.0027999999999999544,3.52224,42.0,25.69,0,19.0,2619.0,26.0,10.337200000000003,-0.1816,-1.0084,0.09,0.8236000000000004,-2.368,-8.5524,0,1,1,100.0
10,48.0,1,20.0,1.0,6,2,11.5556,-0.02844000000000001,0.08848000000000084,3.3400400000000015,42.0,25.72,0,19.0,2619.0,26.0,9.334400000000004,-0.1644000000000001,-1.02,0.09,0.5104000000000014,-2.123600000000002,-6.888800000000011,0,1,1,100.0
10,49.0,1,20.0,1.0,6,2,11.5416,-0.02644000000000001,0.11979999999999973,3.0759600000000007,42.0,25.7312,0,19.0,2619.0,26.0,8.657200000000001,-0.15720000000000003,-1.03,0.09,0.27200000000000046,-1.7244000000000013,-4.394800000000007,0,1,1,100.0
10,50.0,1,20.0,1.0,6,2,11.48,-0.024,0.036,2.821,42.0,25.76,0,19.0,2619.0,26.0,8.35,-0.15,-1.03,0.09,0.12,-1.25,-1.71,0,1,1,100.0
10,51.0,1,20.0,1.0,6,2,11.3696,-0.022280000000000005,0.008800000000000582,2.577680000000001,42.0,25.79,0,19.0,2619.0,26.0,8.421999999999999,-0.15,-1.03,0.09,0.038400000000000205,-0.758400000000002,0.5395999999999919,0,1,1,100.0
10,52.0,1,20.0,1.0,6,2,11.2348,-0.020560000000000002,0.12335999999999989,2.3734800000000003,42.0,25.83,0,19.0,2619.0,26.0,8.7356,-0.16,-1.0256,0.09,0.04319999999999993,-0.2900000000000006,2.0439999999999987,0,1,1,100.0
10,53.0,1,20.0,1.0,6,2,11.0972,-0.01884000000000001,0.038960000000000175,2.153960000000001,42.0,25.834799999999998,0,19.0,2619.0,26.0,9.194799999999997,-0.1615999999999999,-1.0184000000000002,0.09,0.12119999999999936,0.10039999999999828,2.66,0,1,1,100.0
10,54.0,1,20.0,1.0,6,2,10.9992,-0.017560000000000003,0.013760000000000048,2.0064800000000003,42.0,25.86,0,19.0,2619.0,26.0,9.548799999999998,-0.17,-1.01,0.09,0.21079999999999985,0.3259999999999996,2.5456000000000008,0,1,1,100.0
10,55.0,1,20.0,1.0,6,2,10.854000000000001,-0.015,0.073,1.7646000000000002,42.0,25.86,0,19.0,2619.0,26.0,10.06,-0.18,-1.01,0.084,0.362,0.5,1.602,0,1,1,100.0
10,56.0,1,20.0,1.0,6,2,10.757200000000001,-0.014,0.08180000000000076,1.6494400000000005,42.0,25.9,0,19.0,2619.0,26.0,10.3188,-0.18,-1.0,0.08,0.43639999999999984,0.3000000000000017,0.5220000000000045,0,1,1,100.0
10,57.0,1,20.0,1.0,6,2,10.688799999999999,-0.013960000000000002,0.029400000000000207,1.55548,42.0,25.9,0,19.0,2619.0,26.0,10.419599999999999,-0.18,-1.0,0.08,0.4172000000000001,-0.3035999999999987,-0.5295999999999988,0,1,1,100.0
10,58.0,1,20.0,1.0,6,2,10.6448,-0.013,-0.021280000000000427,1.5095600000000005,42.0,25.9,0,19.0,2619.0,26.0,10.3644,-0.18,-1.0,0.08,0.2740000000000009,-1.4323999999999932,-1.258399999999997,0,1,1,100.0
10,59.0,1,20.0,1.0,6,2,10.6152,-0.012,0.035839999999999796,1.44344,42.0,25.9,0,19.0,2619.0,26.0,10.204,-0.18,-1.01,0.07760000000000003,0.05920000000000039,-2.705599999999998,-1.5324,0,1,1,100.0
10,60.0,1,20.0,1.0,6,2,10.586,-0.010799999999999999,0.0822,1.26,42.0,25.9,0,19.0,2619.0,26.0,9.872,-0.178,-1.01,0.07,-0.298,-4.56,-1.3179999999999998,0,1,1,100.0
10,61.0,1,20.0,1.0,6,2,10.5654,-0.01,0.019470000000000102,1.1684499999999998,42.0,25.9069,0,19.0,2619.0,26.0,9.6717,-0.17,-1.01,0.07,-0.4891000000000002,-5.450200000000001,-0.9664999999999996,0,1,1,100.0
10,62.0,1,20.0,1.0,6,2,10.5568,-0.01,0.057739999999999694,1.1319000000000004,42.0,25.9198,0,19.0,2619.0,26.0,9.5814,-0.17,-1.01,0.07,-0.5621999999999994,-5.768399999999997,-0.7730000000000016,0,1,1,100.0
10,63.0,1,20.0,1.0,6,2,10.536399999999999,-0.009,0.04083999999999983,1.0388200000000003,42.0,25.93,0,19.0,2619.0,26.0,9.281200000000002,-0.16820000000000004,-1.02,0.08,-0.7797999999999995,-6.584999999999999,0.06699999999999705,0,1,1,100.0
10,64.0,1,20.0,1.0,6,2,10.4784,-0.008,-0.009199999999999818,0.9279200000000003,42.0,25.93,0,19.0,2619.0,26.0,8.9492,-0.16,-1.02,0.08079999999999996,-0.9568000000000002,-6.496400000000002,2.010399999999997,0,1,1,100.0
10,65.0,1,20.0,1.0,6,2,10.434,-0.007,0.049,0.8684,42.0,25.93,0,19.0,2619.0,26.0,9.052,-0.16,-1.02,0.09,-0.694,-5.116,3.508,0,1,1,100.0
10,66.0,1,20.0,1.0,6,2,10.4148,-0.007,0.023200000000001064,0.8360800000000004,42.0,25.93,0,19.0,2619.0,26.0,9.2476,-0.16520000000000004,-1.0148,0.08479999999999996,-0.2639999999999986,-4.164399999999998,4.126000000000001,0,1,1,100.0
10,67.0,1,20.0,1.0,6,2,10.4,-0.007,0.03848000000000031,0.8065999999999999,42.0,25.93,0,19.0,2619.0,26.0,9.453999999999999,-0.17,-1.01,0.08,0.30879999999999497,-3.329200000000006,4.582399999999996,0,1,1,100.0
10,68.0,1,20.0,1.0,6,2,10.4096,-0.007,-0.09419999999999891,0.8755999999999995,42.0,25.93,0,19.0,2619.0,26.0,9.616399999999999,-0.17,-1.01,0.08,0.9547999999999965,-2.645200000000003,5.048799999999997,0,1,1,100.0
10,69.0,1,20.0,1.0,6,2,10.4336,-0.007,0.0029199999999995766,0.8559999999999995,42.0,25.93,0,19.0,2619.0,26.0,9.7072,-0.17,-1.01,0.08,1.6251999999999982,-2.0656000000000017,5.685599999999998,0,1,1,100.0
10,70.0,1,20.0,1.0,6,2,10.476,-0.007,-0.041,0.8403999999999999,42.0,25.93,0,19.0,2619.0,26.0,9.762,-0.17400000000000002,-1.014,0.08,2.278,-1.526,6.574,0,1,1,100.0
10,71.0,1,20.0,1.0,6,2,10.5168,-0.007,0.049080000000000096,0.8480800000000001,42.0,25.93,0,19.0,2619.0,26.0,9.8024,-0.18,-1.02,0.08,2.7072000000000007,-1.1719999999999993,7.326400000000001,0,1,1,100.0
10,72.0,1,20.0,1.0,6,2,10.622,-0.007839999999999986,0.0059600000000000816,0.89152,42.0,25.93,0,19.0,2619.0,26.0,9.9472,-0.18,-1.02,0.08,3.540799999999995,-0.5048000000000038,9.105599999999988,0,1,1,100.0
10,73.0,1,20.0,1.0,6,2,10.7096,-0.008279999999999996,-0.00412000000000021,0.9569199999999998,42.0,25.93,0,19.0,2619.0,26.0,10.0964,-0.18,-1.02,0.08,4.0863999999999985,-0.12280000000000109,10.405999999999995,0,1,1,100.0
10,74.0,1,20.0,1.0,6,2,10.8652,-0.009,0.03888000000000036,1.01544,42.0,25.9,0,19.0,2619.0,26.0,10.384799999999998,-0.19,-1.02,0.08,4.859199999999998,0.35159999999999897,12.383999999999995,0,1,1,100.0
10,75.0,1,20.0,1.0,6,2,11.03,-0.009,0.015,1.116,42.0,25.93,0,19.0,2619.0,26.0,10.68,-0.19,-1.02,0.08,5.53,0.73,14.24,0,1,1,100.0
10,76.0,1,20.0,1.0,6,2,11.2264,-0.01,-0.0329600000000002,1.1786800000000004,42.0,25.9,0,19.0,2619.0,26.0,11.028400000000001,-0.2,-1.02,0.09,6.154800000000002,1.1012000000000008,16.208000000000006,0,1,1,100.0
10,77.0,1,20.0,1.0,6,2,11.433,-0.01,0.011660000000000663,1.19184,42.0,25.9234,0,19.0,2619.0,26.0,11.405999999999999,-0.20219999999999994,-1.02,0.09,6.583999999999999,1.3463999999999992,17.921999999999993,0,1,1,100.0
10,78.0,1,20.0,1.0,6,2,11.5756,-0.01,-0.05072000000000076,1.2046800000000002,42.0,25.9,0,19.0,2619.0,26.0,11.697599999999998,-0.2115999999999999,-1.02,0.09,6.759199999999999,1.4527999999999992,18.94319999999999,0,1,1,100.0
10,79.0,1,20.0,1.0,6,2,12.0572,-0.01,0.02160000000000025,1.1670800000000001,42.0,25.93,0,19.0,2619.0,26.0,12.814799999999996,-0.22879999999999998,-1.01,0.09879999999999996,6.772,1.6879999999999995,21.304799999999997,0,1,1,100.0
10,80.0,1,20.0,1.0,6,2,12.432,-0.009,0.078,1.0196,42.0,25.918,0,19.0,2619.0,26.0,13.688,-0.246,-1.004,0.1,6.424,1.982,22.064,0,1,1,100.0
10,81.0,1,20.0,1.0,6,2,12.853200000000001,-0.008,0.09876000000000008,0.9187199999999999,42.0,25.93,0,19.0,2619.0,26.0,14.593200000000001,-0.26320000000000005,-0.9967999999999999,0.11,5.927199999999998,2.5668000000000024,22.2312,0,1,1,100.0
10,82.0,1,20.0,1.9600000000000137,6,2,13.321999999999996,-0.007,0.01712000000000064,0.8469600000000014,42.0,25.93,0,19.960000000000015,2619.0,26.0,15.437199999999994,-0.27039999999999986,-0.99,0.12,5.505600000000001,3.6055999999999875,21.948400000000007,0,1,1,100.0
10,83.0,1,20.0,1.0,6,2,13.845599999999997,-0.007,-0.008240000000000235,0.7264400000000003,42.0,25.93,0,19.0,2619.0,26.0,16.131199999999996,-0.2875999999999999,-0.9824,0.12,5.4228,5.31879999999999,21.442000000000004,0,1,1,100.0
10,84.0,1,20.0,1.4799999999999955,6,2,14.403199999999998,-0.005520000000000005,0.005200000000000159,0.5595600000000004,42.0,25.93,0,19.479999999999997,2619.0,26.0,16.654799999999998,-0.29479999999999995,-0.98,0.13,5.812799999999998,7.620799999999994,20.999200000000002,0,1,1,100.0
10,85.0,1,20.0,2.0,6,2,14.99,-0.004,0.0712,0.4128,42.0,25.93,0,20.0,2619.0,26.0,17.05,-0.3,-0.98,0.13,6.588,10.148000000000001,20.715999999999998,0,1,1,100.0
10,86.0,1,20.0,2.0,6,2,15.601200000000002,-0.0030799999999999955,0.03275999999999978,0.2685600000000001,42.0,25.93,0,19.079999999999995,2619.0,26.0,17.394000000000002,-0.30920000000000003,-0.98,0.13,7.5260000000000025,12.176800000000005,20.5096,0,1,1,100.0
10,87.0,1,20.0,1.3600000000000136,6,2,16.236799999999995,-0.0013600000000000138,0.09299999999999932,-0.003519999999998725,42.0,25.93,0,18.360000000000014,2619.0,26.0,17.679599999999997,-0.31,-0.98,0.12360000000000014,8.342399999999994,12.13560000000001,19.796800000000008,0,1,1,100.0
10,88.0,1,20.0,1.0,6,2,16.873199999999997,0.0003599999999999909,0.02339999999999918,-0.208199999999998,42.0,25.93,0,18.0,2619.0,26.0,17.802799999999998,-0.31,-0.9764,0.11640000000000009,8.8204,8.453600000000034,17.820000000000014,0,1,1,100.0
10,89.0,1,20.0,1.0,6,2,17.484799999999996,0.003039999999999998,0.14964000000000036,-0.6185999999999997,42.0,25.93,0,18.0,2619.0,26.0,17.6264,-0.30960000000000004,-0.9696,0.10960000000000002,8.870800000000001,0.15800000000001718,14.056400000000007,0,1,1,100.0
10,90.0,1,20.0,1.0,6,2,17.803,0.0039000000000000003,0.012899999999999991,-0.739,42.0,25.93,0,18.0,2619.0,26.0,17.334,-0.301,-0.961,0.101,8.673,-6.335,11.184,0,1,1,100.0
10,91.0,1,20.0,0.47999999999999543,0,6,18.696400000000004,0.005,-0.007239999999999714,-0.6800399999999996,42.0,25.93,0,18.520000000000003,3159.0,26.0,15.291599999999995,-0.25959999999999994,-0.95,0.09,6.884799999999996,-32.54280000000005,-1.5988000000000275,0,1,1,100.0
10,92.0,1,20.0,0.0,0,6,19.181199999999997,0.005,0.023,-0.645,42.0,25.93,0,41.399999999999864,3159.0,26.0,12.976800000000011,-0.2164000000000002,-0.9511999999999999,0.10119999999999994,5.030400000000009,-49.14959999999994,-12.08039999999995,0,1,1,100.0
10,93.0,1,20.0,0.0,0,6,19.404799999999998,0.005,0.023,-0.645,42.0,25.93,0,58.59999999999991,3159.0,26.0,11.377200000000009,-0.19060000000000013,-0.9597999999999999,0.10979999999999995,3.886600000000006,-56.74339999999996,-18.461599999999965,0,1,1,100.0
10,94.0,1,20.0,0.0,0,6,19.858,0.17383999999999994,0.6553600000000035,0.0,42.0,25.97,0,3.0,3159.0,26.0,5.55800000000001,-0.09280000000000019,-0.9767999999999999,0.14679999999999996,0.1348000000000063,-66.4228,-39.17559999999997,0,1,1,100.0
10,95.0,1,20.0,0.0,0,6,19.886,0.18,-0.009800000000000003,0.0,42.0,25.97,0,3.0,3159.0,26.0,2.21,-0.038000000000000006,-0.994,0.17400000000000002,-2.116,-59.252,-50.812000000000005,0,1,1,100.0
10,96.0,1,20.0,0.0,0,6,19.673800000000004,0.18,-0.07126000000000025,0.0,42.0,25.97,0,3.0,3159.0,26.0,-0.2299999999999909,0.0011999999999998182,-1.0206,0.1805999999999999,-3.8065999999999947,-43.419800000000116,-59.97519999999996,0,1,1,100.0
10,97.0,1,20.0,0.0,0,6,19.441600000000005,0.18,-0.046320000000000194,0.0,42.0,25.97,0,3.0,3159.0,26.0,-1.0899999999999932,0.018399999999999864,-1.0292,0.18919999999999992,-4.3311999999999955,-32.52360000000009,-63.77639999999997,0,1,1,100.0
10,98.0,1,20.0,0.0,0,6,18.218400000000006,0.18,0.07367999999999997,0.0,42.0,25.97,0,3.0,3159.0,26.0,-2.0788,0.04,-1.0655999999999999,0.1644000000000001,-3.9684000000000053,4.253199999999874,-71.95879999999998,0,1,1,100.0
10,99.0,1,20.0,0.0,0,6,17.010400000000004,0.18,-0.02907999999999995,0.0,42.0,25.97,0,3.0,3159.0,26.0,-1.6316000000000024,0.027200000000000044,-1.0728,0.13160000000000013,-2.745200000000003,26.119999999999948,-74.6856,0,1,1,100.0
10,100.0,1,20.0,0.0,0,7,15.49,0.179,0.085,0.0,42.0,25.97,0,3.0,3159.0,26.0,-0.54,0.01,-1.08,0.08,-2.02,43.86,-75.15,0,1,1,100.0
11,0.0,1,20.0,0.0,0,1,-1.74,0.062,-1.162,0.0,42.0,25.97,0,3.0,3159.0,26.0,9.59,-0.18,-1.08,0.13,-35.25,39.24,-2.92,0,1,1,100.0
11,1.0,1,20.0,0.0,0,1,-2.9728,0.022290000000000004,-1.36321,0.0,42.0,25.97,0,3.0,3159.0,26.0,7.304399999999999,-0.1446,-1.1077000000000001,0.2208,-32.5218,32.9191,6.548799999999999,0,1,1,100.0
11,2.0,1,20.0,0.0,0,1,-3.8975999999999997,-0.005479999999999999,-0.8529,0.0,42.0,25.97,0,3.0,3159.0,26.0,5.3154,-0.1046,-1.12,0.2554,-29.2192,28.234,16.0072,0,1,1,100.0
11,3.0,1,20.0,0.0,0,1,-4.3227,-0.020824999999999996,-1.1999799999999998,0.0,42.0,25.97,0,3.0,3159.0,26.0,4.3491,-0.0869,-1.12,0.25345,-26.8228,25.64315,21.481599999999997,0,1,1,100.0
11,4.0,1,20.0,0.0,0,1,-4.814,-0.06235999999999999,-1.0447199999999999,0.0,42.0,25.97,0,3.0,3159.0,26.0,3.1132,-0.06,-1.1092000000000002,0.2184,-20.720000000000002,20.2064,31.2428,0,1,1,100.0
11,5.0,1,20.0,0.0,0,1,-4.8260000000000005,-0.0916,-1.0128,0.0,42.0,25.936,0,3.0,3159.0,26.0,2.8775,-0.051500000000000004,-1.0915000000000001,0.183,-15.8525,16.4505,36.4195,0,1,1,100.0
11,6.0,1,20.0,0.0,0,1,-4.714700000000001,-0.10858,-1.20891,0.0,42.0,25.9624,0,3.0,3159.0,26.0,2.9429,-0.05809999999999999,-1.0819,0.1638,-13.301600000000002,14.592900000000002,38.6425,0,1,1,100.0
11,7.0,1,20.0,0.0,0,1,-4.54405,-0.12172999999999999,-1.16931,0.0,42.0,25.97,0,3.0,3159.0,26.0,3.1129000000000002,-0.06,-1.07305,0.1461,-11.076400000000001,13.027650000000001,40.3349,0,1,1,100.0
11,8.0,1,20.0,0.0,0,1,-3.3716000000000004,-0.14708,-0.17764000000000008,0.0,42.0,25.97,0,3.0,3159.0,26.0,4.6844,-0.08159999999999999,-1.0492000000000001,0.0892,-4.3616,8.214400000000001,43.0824,0,1,1,100.0
11,9.0,1,20.0,0.0,0,1,-2.9468000000000005,-0.14796499999999999,0.05865499999999978,0.0,42.0,25.97,0,3.0,3159.0,26.0,5.286199999999999,-0.09929999999999999,-1.04035,0.08035,-3.273050000000001,7.267450000000001,42.4452,0,1,1,100.0
11,10.0,1,20.0,0.0,0,1,-1.359,-0.12990000000000002,0.892,0.0,42.0,25.97,0,3.0,3159.0,26.0,7.3420000000000005,-0.134,-1.02,0.07,-2.203,5.33,35.949,0,1,1,100.0
11,11.0,1,20.0,0.0,0,1,-0.17570000000000083,-0.09801000000000001,1.25124,0.0,42.0,25.97,0,3.0,3159.0,26.0,8.6202,-0.15469999999999998,-1.01,0.06,-2.8443999999999994,4.6549000000000005,27.980200000000004,0,1,1,100.0
11,12.0,1,20.0,0.0,0,1,1.0603999999999985,-0.07432000000000001,0.5242000000000003,0.0,42.0,25.97,0,3.0,3159.0,26.0,9.584,-0.17,-1.0,0.05,-3.782399999999999,4.127600000000001,17.637600000000013,0,1,1,100.0
11,13.0,1,20.0,0.0,0,1,2.3068999999999993,-0.06397,0.3408700000000002,0.0,41.0,25.97,0,3.0,3159.0,26.0,9.9996,-0.18,-1.0,0.04,-4.634099999999999,3.6979,6.755100000000002,0,1,1,100.0
11,14.0,1,20.0,0.7799999999999984,0,1,3.504799999999999,-0.061779999999999995,0.020020000000000236,0.0,41.0,25.97,0,3.7799999999999985,3159.0,26.0,9.788400000000001,-0.17220000000000002,-1.0,0.03220000000000001,-5.2818,3.3262,-2.267999999999992,0,1,1,100.0
11,15.0,1,20.0,1.0,0,1,4.5889999999999995,-0.06520000000000001,-0.3585,0.0,41.0,25.97,0,4.0,3159.0,26.0,9.153500000000001,-0.1645,-1.01,0.02,-5.4095,2.8649999999999998,-8.0925,0,1,1,100.0
11,16.0,1,20.0,1.0,0,1,5.4452,-0.08008,-0.85556,0.0,41.0,25.97,0,4.0,3159.0,26.0,8.39,-0.1484,-1.0116,0.01,-4.8692,2.3572,-10.2392,0,1,1,100.0
11,17.0,1,20.0,0.9100000000000023,0,1,6.270599999999999,-0.11053999999999999,-1.4395499999999983,0.0237599999999994,41.0,25.9637,0,5.259999999999968,3159.0,26.0,7.444900000000001,-0.13,-1.0209,0.0,-3.437200000000002,1.6961000000000017,-8.548400000000004,0,1,1,100.0
11,18.0,1,20.0,0.0,6,2,6.820799999999999,-0.09364000000000008,1.2675399999999863,3.8372999999999853,41.0,25.5302,0,18.0,3159.0,26.0,6.832000000000001,-0.12140000000000004,-1.03,0.0,-1.7572000000000034,-0.06799999999999556,-4.411600000000009,0,1,1,100.0
11,19.0,1,20.0,0.6300000000000012,6,2,7.2034,-0.06559,0.4660699999999991,6.222060000000001,41.0,25.1677,0,18.630000000000003,3159.0,26.0,6.420299999999999,-0.12,-1.03,-0.01,0.1408000000000013,-3.1707000000000023,-0.13799999999999724,0,1,1,100.0
11,20.0,1,20.0,1.0,6,2,7.42,-0.0628,-0.0402,7.2862,41.0,24.974,0,19.0,3159.0,26.0,6.279999999999999,-0.112,-1.04,-0.01,2.23,-6.0,3.54,0,1,1,100.0
11,21.0,1,20.0,1.0,6,2,7.5785,-0.06166,0.11195000000000008,7.32282,41.0,24.9619,0,19.0,3159.0,26.0,6.5259,-0.12,-1.04,-0.011699999999999988,5.410499999999998,-8.788499999999999,7.552199999999997,0,1,1,100.0
11,22.0,1,20.0,1.0,6,2,7.6576,-0.05718000000000001,0.3343599999999993,6.551760000000002,41.0,25.1516,0,19.0,3159.0,26.0,7.069599999999999,-0.1294,-1.04,-0.02,8.227599999999997,-10.402599999999998,10.114399999999996,0,1,1,100.0
11,23.0,1,20.0,1.0,6,2,7.68565,-0.05272500000000001,0.21605500000000027,6.2218800000000005,41.0,25.21985,0,19.0,3159.0,26.0,7.449099999999999,-0.13855,-1.04,-0.011450000000000017,9.44005,-10.954449999999998,10.891099999999998,0,1,1,100.0
11,24.0,1,20.0,1.0,6,2,7.782,-0.04676,0.1948800000000002,5.67004,41.0,25.377200000000002,0,19.0,3159.0,26.0,8.562799999999998,-0.15239999999999998,-1.0276,0.0023999999999999772,11.361999999999998,-11.5884,11.199600000000002,0,1,1,100.0
11,25.0,1,20.0,1.0,6,2,7.827500000000001,-0.045875,0.11875,5.47925,41.0,25.4,0,19.0,3159.0,26.0,8.973749999999999,-0.16125,-1.02,0.01,11.59,-11.47625,10.75375,0,1,1,100.0
11,26.0,1,20.0,1.0,6,2,8.042,-0.044,-0.006519999999999914,5.3758799999999995,41.0,25.44,0,19.0,3159.0,26.0,10.0654,-0.18,-1.0098,0.030199999999999987,10.960600000000001,-9.835,7.987400000000001,0,1,1,100.0
11,27.0,1,20.0,1.0,6,2,8.2348,-0.044,0.018539999999999713,5.40794,41.0,25.44,0,19.0,3159.0,26.0,10.5117,-0.18789999999999998,-1.0,0.04789999999999998,10.120800000000001,-8.554900000000002,6.0031000000000025,0,1,1,100.0
11,28.0,1,20.0,1.0,6,2,8.4528,-0.047119999999999995,-0.12915999999999972,5.839079999999999,41.0,25.3476,0,19.0,3159.0,26.0,10.776,-0.19,-0.99,0.05559999999999997,9.330400000000003,-7.555600000000002,4.257200000000003,0,1,1,100.0
11,29.0,1,20.0,1.0,6,2,8.6862,-0.05032999999999999,-0.09956999999999941,6.14701,41.0,25.2769,0,19.0,3159.0,26.0,10.8135,-0.19,-0.99,0.06,8.701000000000002,-6.748100000000002,2.9917000000000025,0,1,1,100.0
11,30.0,1,20.0,1.0,6,2,8.934,-0.051,0.0111,6.2251,41.0,25.233,0,19.0,3159.0,26.0,10.633000000000001,-0.189,-0.991,0.07,8.179,-5.9719999999999995,2.332,0,1,1,100.0
11,31.0,1,20.0,1.0,6,2,9.11655,-0.051,0.05863500000000026,6.213655,41.0,25.246950000000002,0,19.0,3159.0,26.0,10.393,-0.18,-1.0,0.07,7.734700000000001,-5.305100000000002,2.3252499999999996,0,1,1,100.0
11,32.0,1,20.0,1.0,6,2,9.3868,-0.051,0.013679999999999972,6.20684,42.0,25.249200000000002,0,19.0,3159.0,26.0,9.984,-0.18,-1.01,0.08,6.630400000000002,-4.132800000000001,3.115599999999999,0,1,1,100.0
11,33.0,1,20.0,1.0,6,2,9.5951,-0.051,0.01627999999999979,6.17052,42.0,25.26,0,19.0,3159.0,26.0,9.8136,-0.18,-1.01,0.08,5.119499999999998,-3.7082,4.305700000000002,0,1,1,100.0
11,34.0,1,20.0,1.0,6,2,9.777999999999999,-0.050820000000000004,0.08071999999999999,6.050940000000001,42.0,25.26,0,19.0,3159.0,26.0,9.819,-0.18,-1.02,0.08,3.032400000000006,-4.0745999999999984,5.7293999999999965,0,1,1,100.0
11,35.0,1,20.0,1.0,6,2,9.90275,-0.049525,0.078775,6.0051749999999995,42.0,25.279,0,19.0,3159.0,26.0,9.91225,-0.18,-1.02,0.08,1.3135000000000001,-4.7307500000000005,6.7805,0,1,1,100.0
11,36.0,1,20.0,1.0,6,2,9.982399999999998,-0.04864,0.044920000000000265,5.92032,42.0,25.3108,0,19.0,3159.0,26.0,10.0204,-0.18,-1.02,0.08,0.15640000000000429,-5.238799999999999,7.438399999999998,0,1,1,100.0
11,37.0,1,20.0,1.0,6,2,10.269,-0.048,-0.0035599999999998983,5.81515,42.0,25.33,0,19.0,3159.0,26.0,10.736799999999999,-0.19,-1.01,0.08,-2.9435999999999987,-6.627599999999999,8.829,0,1,1,100.0
11,38.0,1,20.0,1.0,6,2,10.436,-0.048260000000000004,-0.10052000000000011,5.92068,42.0,25.2896,0,19.0,3159.0,26.0,11.3918,-0.20260000000000003,-1.0,0.08,-3.6712000000000002,-6.832199999999999,8.557399999999998,0,1,1,100.0
11,39.0,1,20.0,1.0,6,2,10.623299999999999,-0.05202999999999999,-0.13844000000000026,6.41798,42.0,25.2279,0,19.0,3159.0,26.0,12.173199999999998,-0.21029999999999996,-0.99,0.07,-3.6510000000000016,-6.664000000000001,7.2949000000000055,0,1,1,100.0
11,40.0,1,20.0,1.0,6,2,10.778,-0.053399999999999996,-0.0692,6.5816,42.0,25.144000000000002,0,19.0,3159.0,26.0,12.76,-0.224,-0.986,0.07,-3.18,-6.374,5.58,0,1,1,100.0
11,41.0,1,20.0,1.0,6,2,11.0384,-0.05813999999999998,-0.08404000000000018,7.055809999999998,42.0,25.0329,0,19.0,3159.0,26.0,13.4554,-0.23,-0.9743,0.07,-2.023700000000004,-5.831800000000002,1.9869000000000123,0,1,1,100.0
11,42.0,1,20.0,1.0,6,2,11.2321,-0.059,0.03207999999999997,7.13456,42.0,24.98,0,19.0,3159.0,26.0,13.6047,-0.24,-0.9717,0.06830000000000001,-1.1016000000000006,-5.3571,-0.9959999999999979,0,1,1,100.0
11,43.0,1,20.0,1.0,6,2,11.3521,-0.059,0.04341999999999982,7.1005199999999995,42.0,24.9844,0,19.0,3159.0,26.0,13.5025,-0.23889999999999997,-0.98,0.06,-0.622699999999999,-4.999399999999999,-2.664900000000004,0,1,1,100.0
11,44.0,1,20.0,1.0,6,2,11.5468,-0.05724000000000001,0.04087999999999965,6.932640000000001,42.0,25.046400000000002,0,19.0,3159.0,26.0,12.963200000000002,-0.23,-0.9887999999999999,0.06879999999999996,0.05039999999999846,-4.123600000000002,-5.215199999999994,0,1,1,100.0
11,45.0,1,20.0,1.0,6,2,11.7955,-0.056,0.028550000000000002,6.72995,42.0,25.09,0,19.0,3159.0,26.0,11.777000000000001,-0.21,-1.0,0.07,0.5155000000000001,-2.5625,-7.161499999999999,0,1,1,100.0
11,46.0,1,20.0,1.0,6,2,11.8784,-0.055,0.014,6.71959,43.0,25.0963,0,19.0,3159.0,26.0,11.156500000000001,-0.19790000000000005,-1.01,0.07,0.5011000000000003,-1.7734000000000016,-7.245900000000001,0,1,1,100.0
11,47.0,1,20.0,1.0,6,2,11.9281,-0.055,0.024839999999999918,6.66507,43.0,25.12,0,19.0,3159.0,26.0,10.5344,-0.19,-1.0119,0.07,0.2420000000000005,-0.9316000000000009,-6.581200000000001,0,1,1,100.0
11,48.0,1,20.0,1.0,6,2,11.910400000000001,-0.05404000000000001,-0.03047999999999919,6.572280000000001,43.0,25.12,0,19.0,3159.0,26.0,10.157600000000002,-0.1804000000000001,-1.02,0.07,-0.1215999999999981,-0.323200000000003,-5.612800000000005,0,1,1,100.0
11,49.0,1,20.0,1.0,6,2,11.875399999999999,-0.054,0.03865999999999982,6.500800000000001,43.0,25.1546,0,19.0,3159.0,26.0,10.0289,-0.18,-1.02,0.07,-0.3202999999999995,-0.059150000000000674,-5.105600000000002,0,1,1,100.0
11,50.0,1,20.0,1.0,6,2,11.725,-0.0525,-0.03950000000000001,6.3375,43.0,25.19,0,19.0,3159.0,26.0,9.845,-0.18,-1.02,0.065,-0.81,0.59,-3.905,0,1,1,100.0
11,51.0,1,20.0,1.0,6,2,11.5857,-0.051,0.038399999999999865,6.140110000000001,43.0,25.2381,0,19.0,3159.0,26.0,9.807300000000001,-0.18,-1.02,0.06,-1.0623999999999991,0.9612999999999987,-3.462200000000001,0,1,1,100.0
11,52.0,1,20.0,1.0,6,2,11.426,-0.048920000000000005,0.11120000000000005,5.83328,43.0,25.3012,0,19.0,3159.0,26.0,9.789599999999998,-0.1796,-1.02,0.06,-1.2743999999999998,1.2863999999999998,-3.332,0,1,1,100.0
11,53.0,1,20.0,1.0,6,2,11.257100000000001,-0.04619000000000001,0.09523999999999996,5.565800000000002,43.0,25.3624,0,19.0,3159.0,26.0,9.7638,-0.17,-1.0119,0.06,-1.4366999999999992,1.5614999999999988,-3.477199999999999,0,1,1,100.0
11,54.0,1,20.0,1.0,6,2,11.161000000000001,-0.04521,0.06914000000000008,5.366790000000001,43.0,25.4253,0,19.0,3159.0,26.0,9.7442,-0.17,-1.01,0.06,-1.4737,1.7005999999999997,-3.6422,0,1,1,100.0
11,55.0,1,20.0,2.0,6,2,10.915,-0.03995,0.17205,4.6548,43.0,25.520500000000002,0,20.0,3159.0,26.0,9.6255,-0.17,-1.01,0.05,-1.3275,1.9914999999999998,-4.3355,0,1,1,100.0
11,56.0,1,20.0,2.0,6,2,10.7492,-0.03688,0.09915999999999954,4.302440000000001,43.0,25.5448,0,20.0,3159.0,26.0,9.478000000000002,-0.17,-1.01,0.05,-1.0124000000000015,2.161999999999999,-4.895999999999998,0,1,1,100.0
11,57.0,1,20.0,2.0,6,2,10.581000000000001,-0.03422000000000001,0.17946999999999994,3.9736300000000004,43.0,25.6156,0,20.0,3159.0,26.0,9.2921,-0.17,-1.01,0.05,-0.5697000000000007,2.339,-5.391399999999999,0,1,1,100.0
11,58.0,1,20.0,2.0,6,2,10.4953,-0.03234000000000001,0.1620800000000001,3.822670000000001,43.0,25.62,0,20.0,3159.0,26.0,9.1804,-0.16170000000000004,-1.01,0.05,-0.29100000000000137,2.4246999999999996,-5.610899999999999,0,1,1,100.0
11,59.0,1,20.0,2.0,6,2,10.247,-0.02914000000000001,0.04430999999999947,3.4563000000000006,43.0,25.69,0,20.0,3159.0,26.0,8.8398,-0.16,-1.02,0.04,0.5275999999999985,2.6300999999999997,-5.9515,0,1,1,100.0
11,60.0,1,20.0,2.0,6,2,10.129999999999999,-0.0274,0.054599999999999996,3.3102,43.0,25.708,0,20.0,3159.0,26.0,8.676,-0.154,-1.02,0.04,0.896,2.694,-5.974,0,1,1,100.0
11,61.0,1,20.0,2.0,6,2,9.893,-0.026,-0.019620000000000207,3.12925,43.970000000000006,25.7212,0,19.0,3159.0,26.0,8.3245,-0.15,-1.02,0.04,1.6210000000000013,2.7006,-5.705399999999999,0,1,1,100.0
11,62.0,1,20.0,2.0,6,2,9.7393,-0.025,0.05361999999999982,2.986440000000001,44.0,25.76,0,19.0,3159.0,26.0,8.114500000000001,-0.14630000000000007,-1.02,0.04,2.006199999999998,2.6067000000000005,-5.331600000000003,0,1,1,100.0
11,63.0,1,20.0,2.0,6,2,9.613900000000001,-0.025,0.016960000000000947,2.94018,44.0,25.76,0,19.0,3159.0,26.0,7.943500000000001,-0.14,-1.02,0.04,2.292399999999998,2.4888000000000012,-4.936200000000003,0,1,1,100.0
11,64.0,1,20.0,2.0,6,2,9.3092,-0.023,0.05859999999999979,2.7904000000000004,44.0,25.79,0,19.0,3159.0,26.0,7.582000000000001,-0.13720000000000004,-1.02,0.04,2.7823999999999995,1.9220000000000015,-3.728400000000002,0,1,1,100.0
11,65.0,1,20.0,2.0,6,2,9.1145,-0.022,0.08465,2.64935,44.0,25.79,0,19.0,3159.0,26.0,7.417,-0.13,-1.02,0.04,2.847,1.1119999999999999,-2.8975,0,1,1,100.0
11,66.0,1,20.0,2.0,6,2,8.9198,-0.021179999999999997,0.06596000000000035,2.4880199999999997,44.0,25.79,0,19.0,3159.0,26.0,7.3272,-0.13,-1.02,0.04,2.6833999999999993,-0.46280000000000476,-2.133799999999998,0,1,1,100.0
11,67.0,1,20.0,2.0,6,2,8.767550000000002,-0.019705000000000007,0.07228500000000053,2.324980000000001,44.0,25.83,0,19.0,3159.0,26.0,7.3,-0.13,-1.02,0.03705000000000007,2.3992000000000018,-2.489699999999989,-1.624450000000002,0,1,1,100.0
11,68.0,1,20.0,2.0,6,2,8.5676,-0.01764000000000001,0.04479999999999973,2.1048800000000005,44.0,25.840799999999998,0,19.0,3159.0,26.0,7.29,-0.13,-1.02,0.03,1.8492000000000024,-6.38759999999998,-1.1116000000000017,0,1,1,100.0
11,69.0,1,20.0,2.0,6,2,8.409600000000001,-0.016740000000000012,0.06553000000000009,1.8819100000000004,44.0,25.86,0,19.0,3159.0,26.0,7.2661,-0.13,-1.02,0.028700000000000045,1.3423000000000012,-10.425899999999988,-0.8118000000000006,0,1,1,100.0
11,70.0,1,20.0,2.0,6,2,8.268,-0.015,0.011199999999999996,1.7164000000000001,44.0,25.86,0,19.0,3159.0,26.0,7.195,-0.13,-1.02,0.02,0.856,-14.772,-0.5640000000000001,0,1,1,100.0
11,71.0,1,20.0,2.0,6,2,8.166549999999999,-0.013664999999999998,0.10564999999999998,1.59321,44.0,25.9,0,19.0,3159.0,26.0,7.103199999999999,-0.13,-1.02,0.02,0.5396999999999996,-18.227200000000003,-0.3396999999999996,0,1,1,100.0
11,72.0,1,20.0,2.0,6,2,8.038,-0.013,-0.015400000000000203,1.51288,44.0,25.9,0,19.0,3159.0,26.0,6.926000000000001,-0.12,-1.02,0.03,0.28240000000000054,-22.718399999999974,0.12879999999999633,0,1,1,100.0
11,73.0,1,20.0,2.0,6,2,7.9495000000000005,-0.013,-0.02448000000000102,1.5311699999999993,44.0,25.9,0,19.0,3159.0,26.0,6.742700000000001,-0.12,-1.02,0.032099999999999906,0.35149999999999865,-25.482099999999992,0.710299999999996,0,1,1,100.0
11,74.0,1,20.0,2.0,6,2,7.8708,-0.013979999999999996,-0.017339999999999623,1.5861200000000002,44.0,25.9,0,19.0,3159.0,26.0,6.502800000000001,-0.12,-1.0298,0.049799999999999955,0.7345999999999988,-26.691599999999998,1.5889999999999975,0,1,1,100.0
11,75.0,1,20.0,2.0,6,2,7.8175,-0.01375,-0.024249999999999987,1.5782500000000002,44.0,25.9,0,19.0,3159.0,26.0,6.245,-0.11,-1.03,0.0575,1.3800000000000001,-25.8675,2.9125,0,1,1,100.0
11,76.0,1,20.0,2.0,6,2,7.7872,-0.014,0.008960000000000159,1.56432,44.0,25.9,0,19.0,3159.0,26.0,6.118799999999999,-0.11,-1.03,0.06760000000000002,1.814400000000001,-24.633999999999997,3.8724000000000025,0,1,1,100.0
11,77.0,1,20.0,2.0,6,2,7.7471000000000005,-0.011710000000000014,0.06885999999999817,1.3485800000000012,44.0,25.9,0,19.0,3159.0,26.0,5.9916,-0.11,-1.04,0.08,2.9130999999999947,-20.097400000000025,6.779599999999983,0,1,1,100.0
11,78.0,1,20.0,2.0,6,2,7.74,-0.00994000000000001,-0.049860000000001084,1.1398800000000004,44.0,25.901799999999998,0,19.0,3159.0,26.0,6.163199999999998,-0.1105999999999999,-1.04,0.08,3.512599999999998,-16.896600000000014,8.95959999999999,0,1,1,100.0
11,79.0,1,20.0,2.0,6,2,7.7566,-0.009,0.016350000000000253,1.0735700000000001,44.0,25.905099999999997,0,19.0,3159.0,26.0,6.643899999999999,-0.12,-1.0317,0.07170000000000006,3.7763999999999998,-14.859600000000004,10.896599999999996,0,1,1,100.0
11,80.0,1,20.0,2.0,6,2,7.8,-0.009,0.0098,1.0704,44.0,25.93,0,19.0,3159.0,26.0,7.21,-0.132,-1.028,0.06,3.6460000000000004,-14.664,11.975999999999999,0,1,1,100.0
11,81.0,1,20.0,2.0,6,2,7.8295,-0.009,-0.011440000000000056,1.08043,44.0,25.93,0,19.0,3159.0,26.0,7.505000000000001,-0.13790000000000002,-1.0221,0.06,3.4867,-15.0593,12.2887,0,1,1,100.0
11,82.0,1,20.0,2.0,6,2,7.929899999999999,-0.009569999999999993,-0.04204999999999956,1.1290599999999995,44.0,25.917099999999998,0,19.0,3159.0,26.0,8.457799999999995,-0.15,-1.0143,0.04430000000000007,2.5738000000000048,-18.27489999999998,12.525900000000002,0,1,1,100.0
11,83.0,1,20.0,1.0,6,2,8.259199999999998,-0.01,-0.12609999999999902,1.2740599999999995,44.0,25.9,0,18.0,3159.0,26.0,9.892999999999997,-0.17,-1.0,0.020900000000000092,-0.13439999999999228,-31.05679999999996,10.632000000000009,0,1,1,100.0
11,84.0,1,20.0,1.0,6,2,8.495199999999999,-0.011,0.060639999999999555,1.28496,44.0,25.909599999999998,0,18.0,3159.0,26.0,9.9856,-0.18,-1.0,0.026799999999999952,-1.3915999999999973,-38.56239999999998,9.287600000000003,0,1,1,100.0
11,85.0,1,20.0,1.0,6,2,8.64875,-0.011,0.091275,1.28255,44.0,25.9,0,18.0,3159.0,26.0,9.76425,-0.17275000000000001,-1.0,0.03725,-1.8800000000000001,-41.9225,8.78725,0,1,1,100.0
11,86.0,1,20.0,1.0,6,2,9.0474,-0.01,0.02220000000000027,1.1923199999999996,44.0,25.906599999999997,0,18.0,3159.0,26.0,8.545799999999996,-0.15779999999999997,-1.0222,0.08660000000000014,-1.8975999999999982,-43.50219999999999,9.414400000000004,0,1,1,100.0
11,87.0,1,20.0,1.0,6,2,9.348299999999997,-0.009010000000000013,0.10661999999999948,0.9437700000000023,44.0,25.93,0,18.0,3159.0,26.0,7.456200000000009,-0.14010000000000014,-1.0398999999999998,0.12979999999999972,-0.8572000000000098,-38.277100000000054,11.685099999999979,0,1,1,100.0
11,88.0,1,20.0,1.0,6,2,9.656799999999997,-0.005480000000000018,0.06016000000000053,0.5038800000000022,44.0,25.93,0,18.0,3159.0,26.0,6.464800000000005,-0.12240000000000009,-1.05,0.16519999999999982,1.2311999999999876,-27.90120000000006,15.27199999999998,0,1,1,100.0
11,89.0,1,20.0,1.0,6,2,9.965399999999999,-0.0019400000000000092,0.1367400000000002,-0.003119999999999084,44.0,25.93,0,18.0,3159.0,26.0,5.751000000000001,-0.10470000000000004,-1.0653,0.20059999999999992,4.237599999999992,-14.149200000000038,19.40019999999999,0,1,1,100.0
11,90.0,1,20.0,1.0,6,2,10.1605,0.00030000000000000003,0.1417,-0.3551,44.0,25.93,0,18.0,3159.0,26.0,5.506,-0.1,-1.07,0.2165,6.531,-4.9094999999999995,21.813,0,1,1,100.0
11,91.0,1,20.0,1.0,6,2,10.604000000000001,0.006140000000000009,0.13514999999999977,-1.0012200000000002,44.0,25.9,0,18.0,3159.0,26.0,5.596800000000001,-0.10070000000000005,-1.0593,0.23,12.381800000000013,9.539400000000006,24.141599999999993,0,1,1,100.0
11,92.0,1,20.0,1.0,6,2,10.966399999999997,0.007160000000000014,0.0344400000000008,-0.9742800000000011,44.0,25.9252,0,18.0,3159.0,26.0,6.038399999999997,-0.11,-1.0416,0.22160000000000013,17.256799999999963,9.171600000000026,20.672400000000042,0,1,1,100.0
11,93.0,1,20.0,1.0,6,2,11.350299999999997,0.007,-0.049699999999999356,-0.8807000000000003,44.0,25.9183,0,18.0,3159.0,26.0,6.2722,-0.11,-1.0239,0.2139000000000001,21.72079999999998,-0.9437999999999309,11.50720000000006,0,1,1,100.0
11,94.0,1,20.0,0.8100000000000023,0,5,11.7018,0.006,0.009059999999999834,-0.81114,44.0,25.93,0,18.189999999999998,3550.0,26.0,5.994500000000001,-0.10810000000000003,-1.01,0.2,24.602299999999996,-14.47809999999998,-0.5043999999999802,0,1,1,100.0
11,95.0,1,20.0,0.0,0,6,12.107,0.006,0.069,-0.816,44.0,25.93,0,42.0,3550.0,26.0,4.7835,-0.087,-1.0,0.19,26.1085,-30.523,-18.3565,0,1,1,100.0
11,96.0,1,20.0,0.0,0,6,12.388799999999998,0.1173199999999978,29.027839999999426,-0.06528000000001487,44.0,25.9944,0,7.480000000001022,3550.0,26.0,3.090000000000018,-0.05160000000000037,-1.0,0.18080000000000018,25.594000000000012,-38.26679999999994,-34.88559999999983,0,1,1,100.0
11,97.0,1,20.0,0.0,0,6,12.5038,0.15827999999999984,0.6957500000000141,0.0,44.0,25.9576,0,3.0,3550.0,26.0,1.491100000000011,-0.02620000000000027,-1.0,0.16310000000000013,23.431200000000022,-36.222700000000046,-49.036299999999905,0,1,1,100.0
11,98.0,1,20.0,0.0,0,6,12.4178,0.16254000000000002,-0.028889999999999805,0.0,44.0,25.93,0,3.0,3550.0,26.0,0.6010000000000014,-0.01,-1.01,0.14540000000000008,20.58780000000001,-27.642900000000036,-58.09519999999998,0,1,1,100.0
11,99.0,1,20.0,0.0,0,6,12.001800000000001,0.161,-0.08807000000000041,0.0,44.0,25.9608,0,3.0,3550.0,26.0,0.4028999999999989,-0.01,-1.01,0.10310000000000014,16.048100000000012,-10.68780000000004,-64.1362,0,1,1,100.0
11,100.0,1,20.0,0.0,0,7,11.3,0.161,0.001,0.0,44.0,25.93,0,3.0,3550.0,26.0,1.03,-0.02,-1.01,0.04,11.2,4.99,-64.27,0,1,1,100.0
12,0.0,1,20.0,0.0,0,1,-0.89,-0.035,-1.005,0.0,44.0,25.97,0,3.0,3550.0,26.0,2.8,-0.06,-1.13,0.29,-28.52,13.17,13.58,0,1,1,100.0
12,1.0,1,20.0,0.0,0,1,-1.8175999999999999,-0.06786,-1.68829,0.0,44.0,25.955199999999998,0,3.0,3550.0,26.0,2.2377000000000002,-0.0437,-1.13,0.29369999999999996,-25.2151,13.4956,26.5198,0,1,1,100.0
12,2.0,1,20.0,0.0,0,1,-2.5106,-0.1042,-1.30084,0.0,44.0,25.97,0,3.0,3550.0,26.0,2.1764,-0.04,-1.1174000000000002,0.27480000000000004,-21.191,13.3034,37.1618,0,1,1,100.0
12,3.0,1,20.0,0.0,0,1,-2.8379000000000003,-0.1279,-1.317415,0.0,44.0,25.97,0,3.0,3550.0,26.0,2.40015,-0.04445,-1.10555,0.2511,-18.0463,12.737449999999999,43.142450000000004,0,1,1,100.0
12,4.0,1,20.0,0.0,0,1,-3.012,-0.1468,-1.26692,0.0,44.0,25.97,0,3.0,3550.0,26.0,2.758,-0.055200000000000006,-1.0948,0.2244,-15.27,12.0668,47.358000000000004,0,1,1,100.0
12,5.0,1,20.0,0.0,0,1,-2.99675,-0.15712500000000001,0.440275,0.0,44.0,25.97,0,3.0,3550.0,26.0,3.90825,-0.07575,-1.0742500000000001,0.18425,-10.86225,10.73625,51.6785,0,1,1,100.0
12,6.0,1,20.0,0.0,0,1,-2.4903999999999997,-0.11983999999999997,1.73526,0.0,44.0,25.9388,0,3.0,3550.0,26.0,5.777600000000001,-0.10560000000000003,-1.0422,0.15219999999999997,-8.262799999999999,9.192799999999998,48.7602,0,1,1,100.0
12,7.0,1,20.0,0.0,0,1,-1.8090999999999995,-0.08197999999999998,1.3756999999999997,0.0,44.0,25.97,0,3.0,3550.0,26.0,7.272600000000001,-0.13410000000000002,-1.0259,0.12589999999999998,-7.9015,7.930199999999999,40.669599999999996,0,1,1,100.0
12,8.0,1,20.0,0.0,0,1,-0.9351999999999996,-0.05063999999999999,1.0098799999999997,0.0,43.0,25.9316,0,3.0,3550.0,26.0,8.52,-0.1504,-1.0196,0.10959999999999999,-8.4648,6.7136,28.945199999999996,0,1,1,100.0
12,9.0,1,20.0,0.0,0,1,-0.11889999999999945,-0.03898499999999999,0.5529599999999996,0.0,43.0,25.97,0,3.0,3550.0,26.0,9.0871,-0.16,-1.01,0.09665,-9.277750000000001,5.879,18.46664999999999,0,1,1,100.0
12,10.0,1,20.0,0.0,0,1,1.207,-0.0323,-0.0365,0.0,43.0,25.97,0,3.0,3550.0,26.0,9.216999999999999,-0.16,-1.01,0.077,-10.343,4.764,3.9559999999999995,0,1,1,100.0
12,11.0,1,20.0,0.4650000000000006,0,1,2.0015500000000004,-0.034395,-0.22013000000000016,0.0,43.0,25.97,0,3.4650000000000007,3550.0,26.0,8.88865,-0.15535,-1.01,0.06534999999999999,-10.56465,4.16285,-2.5787500000000025,0,1,1,100.0
12,12.0,1,20.0,1.0,0,1,3.3516000000000012,-0.05496000000000004,-0.9436399999999996,0.0,43.0,25.9524,0,4.0,3550.0,26.0,7.829599999999999,-0.14439999999999997,-1.0156,0.04439999999999998,-9.768799999999997,3.132399999999999,-9.039600000000004,0,1,1,100.0
12,13.0,1,20.0,0.8099999999999994,0,1,4.265000000000001,-0.08399000000000001,-1.3834600000000004,0.0,43.0,25.9624,0,3.8099999999999996,3550.0,26.0,6.851699999999999,-0.12,-1.0219,0.028099999999999993,-8.0226,2.4516,-9.0504,0,1,1,100.0
12,14.0,1,20.0,0.27333333333333387,0,1,4.787533333333333,-0.10865333333333335,-1.8949933333333335,0.0,43.0,25.940933333333334,0,3.273333333333334,3550.0,26.0,6.247866666666666,-0.11726666666666666,-1.03,0.017266666666666663,-6.375333333333332,2.0670666666666664,-6.649799999999998,0,1,1,100.0
12,15.0,1,20.0,0.8166666666666667,0,1,5.021166666666667,-0.12386666666666667,-2.052016666666667,0.0,43.0,25.962666666666667,0,3.816666666666667,3550.0,26.0,5.965333333333334,-0.11183333333333333,-1.03,0.011833333333333335,-5.451666666666666,1.8823333333333334,-4.8405000000000005,0,1,1,100.0
12,16.0,1,20.0,0.0,0,1,6.0576,-0.19796000000000002,-0.4534400000000004,0.0,43.0,25.97,0,3.0,3550.0,26.0,5.0104,-0.09,-1.04,-0.0008000000000000114,1.4216000000000029,1.6396,13.328000000000008,0,1,1,100.0
12,17.0,1,20.0,0.0,0,1,6.394900000000001,-0.21397000000000002,-0.5332799999999993,0.0,43.0,25.9416,0,3.0,3550.0,26.0,5.385600000000001,-0.09710000000000002,-1.04,-0.01,5.607300000000007,1.7926000000000002,23.288000000000014,0,1,1,100.0
12,18.0,1,20.0,0.0,0,1,6.6644000000000005,-0.221,-0.11033999999999966,0.0,43.0,25.97,0,3.0,3550.0,26.0,6.311600000000002,-0.11340000000000003,-1.0366,-0.01,9.759200000000007,1.7457999999999996,31.07780000000001,0,1,1,100.0
12,19.0,1,20.0,0.0,0,1,6.9349,-0.22003,-0.014930000000000035,0.0,43.0,25.97,0,3.0,3550.0,26.0,7.643899999999999,-0.1394,-1.03,-0.00030000000000001136,13.269999999999998,1.4466,35.7795,0,1,1,100.0
12,20.0,1,20.0,0.0,0,1,7.0840000000000005,-0.22,0.11159999999999999,0.0,43.0,25.97,0,3.0,3550.0,26.0,8.438,-0.148,-1.022,0.0,14.57,1.232,36.69,0,1,1,100.0
12,21.0,1,20.0,0.0,0,1,7.6444,-0.21408,0.22996999999999992,0.0,43.0,25.97,0,3.0,3550.0,26.0,10.8777,-0.19460000000000002,-1.0077,0.02230000000000001,16.4269,0.6339999999999998,34.8871,0,1,1,100.0
12,22.0,1,20.0,0.0,0,1,8.135200000000001,-0.20842,0.2165400000000001,0.0,43.0,25.97,0,3.0,3550.0,26.0,12.431200000000002,-0.21860000000000002,-0.9914,0.03860000000000002,16.1318,0.3509999999999997,30.641599999999993,0,1,1,100.0
12,23.0,1,20.0,0.0,0,1,8.731100000000001,-0.20501999999999998,0.10779000000000023,0.0,43.0,25.9504,0,3.0,3550.0,26.0,13.733000000000002,-0.23980000000000007,-0.98,0.05490000000000003,14.934299999999997,0.17079999999999973,25.02169999999999,0,1,1,100.0
12,24.0,1,20.0,0.0,0,1,9.1652,-0.20288,0.1647200000000001,0.0,43.0,25.9524,0,3.0,3550.0,26.0,14.414800000000001,-0.25560000000000005,-0.98,0.06560000000000002,13.855199999999998,0.1075999999999999,21.06679999999999,0,1,1,100.0
12,25.0,1,20.0,0.0,0,1,10.135,-0.196,0.3255,0.0,43.0,25.97,0,3.0,3550.0,26.0,15.3675,-0.2675,-0.97,0.0775,11.287500000000001,0.105,13.205,0,1,1,100.0
12,26.0,1,20.0,0.0,0,1,10.8948,-0.18748,0.2512600000000001,0.0,43.0,25.97,0,3.0,3550.0,26.0,15.7646,-0.27380000000000004,-0.97,0.08380000000000001,9.268799999999999,0.15900000000000006,7.899599999999997,0,1,1,100.0
12,27.0,1,20.0,0.0,6,2,11.644400000000001,-0.18098999999999998,0.21260000000000034,-0.00035000000000007963,43.0,25.929299999999998,0,3.150000000000034,3550.0,26.0,15.950199999999999,-0.28,-0.97,0.09,7.268499999999998,0.27230000000000054,3.0981999999999927,0,1,1,100.0
12,28.0,1,20.0,0.0,6,2,12.342400000000001,-0.14159999999999978,2.9585200000000134,1.5106000000000082,43.0,25.725599999999996,0,18.0,3550.0,26.0,15.982800000000001,-0.28,-0.97,0.09640000000000004,5.4195999999999955,0.6216000000000006,-2.674000000000014,0,1,1,100.0
12,29.0,1,20.0,0.0,6,2,12.655100000000001,-0.09925666666666659,3.603739999999997,2.660670000000001,43.0,25.6373,0,18.0,3550.0,26.0,15.9773,-0.28,-0.97,0.1,4.571266666666665,0.7281000000000001,-6.245500000000008,0,1,1,100.0
12,30.0,1,20.0,0.0,6,2,12.867,-0.07263333333333333,2.5637999999999996,3.0209,43.0,25.621000000000002,0,18.0,3550.0,26.0,15.961,-0.28,-0.97,0.1,3.9953333333333334,0.777,-8.935,0,1,1,100.0
12,31.0,1,20.0,1.0,6,2,13.9166,-0.024289999999999992,0.5030099999999997,2.3373399999999993,43.0,25.8112,0,19.0,3550.0,26.0,14.9962,-0.2647,-0.9853,0.1,0.684799999999999,1.1372000000000002,-26.643000000000004,0,1,1,100.0
12,32.0,1,20.0,1.0,6,2,14.1844,-0.01435999999999999,0.34039999999999965,1.4926799999999991,43.0,25.9,0,19.0,3550.0,26.0,14.102799999999998,-0.24839999999999998,-0.99,0.1,-0.5756000000000014,1.6260000000000008,-32.16480000000001,0,1,1,100.0
12,33.0,1,20.0,1.0,6,2,14.2837,-0.009420000000000003,0.07170000000000039,1.0669800000000003,43.0,25.9237,0,19.0,3550.0,26.0,12.947500000000002,-0.23210000000000003,-0.9979,0.1,-1.5407999999999988,2.1727999999999996,-35.09119999999999,0,1,1,100.0
12,34.0,1,20.0,1.0,6,2,14.2269,-0.008210000000000002,0.03595999999999994,1.00721,43.0,25.93,0,19.0,3550.0,26.0,11.760999999999997,-0.20789999999999997,-1.0,0.09789999999999999,-2.0315000000000003,2.5499000000000005,-35.473,0,1,1,100.0
12,35.0,1,20.0,1.0,6,2,14.1315,-0.009,0.01755,1.0108,43.0,25.93,0,19.0,3550.0,26.0,11.004000000000001,-0.199,-1.0005,0.09,-2.1475,2.7035,-34.842,0,1,1,100.0
12,36.0,1,20.0,1.0,6,2,13.542799999999998,-0.01,-0.032320000000000335,1.2238000000000004,43.0,25.93,0,19.0,3550.0,26.0,8.658799999999994,-0.15319999999999992,-1.01,0.09,-1.5779999999999972,2.644799999999999,-29.22639999999998,0,1,1,100.0
12,37.0,1,20.0,1.0,6,2,12.992199999999999,-0.011,0.03249999999999989,1.28686,43.0,25.9,0,19.0,3550.0,26.0,7.444699999999998,-0.1369,-1.02,0.08,-0.8373999999999989,2.3479999999999994,-24.313499999999994,0,1,1,100.0
12,38.0,1,20.0,1.0,6,2,12.344600000000002,-0.011,0.07789999999999982,1.27032,43.0,25.9,0,19.0,3550.0,26.0,6.521200000000001,-0.12060000000000001,-1.02,0.08,-0.14400000000000093,2.0408000000000004,-19.263600000000004,0,1,1,100.0
12,39.0,1,20.0,1.0,6,2,11.974599999999999,-0.011,0.025694999999999833,1.3106050000000002,43.0,25.9,0,19.0,3550.0,26.0,6.175999999999999,-0.11214999999999997,-1.02,0.08,0.14690000000000075,1.9200999999999995,-16.858449999999994,0,1,1,100.0
12,40.0,1,20.0,1.0,6,2,10.856,-0.009,0.059399999999999994,1.0224,43.0,25.93,0,19.0,3550.0,26.0,5.512,-0.1,-1.02,0.08,0.744,1.744,-11.154,0,1,1,100.0
12,41.0,1,20.0,1.0,6,2,10.098199999999997,-0.008169999999999993,-0.04993000000000048,0.9832499999999998,43.0,25.93,0,19.0,3550.0,26.0,5.235499999999999,-0.09169999999999993,-1.02,0.08,1.012800000000001,1.7117,-8.297099999999988,0,1,1,100.0
12,42.0,1,20.0,1.0,6,2,9.3722,-0.009,-0.0023999999999999772,1.00014,43.0,25.9162,0,19.0,3550.0,26.0,5.0148,-0.09,-1.02,0.08,1.2590000000000003,1.6715999999999998,-6.005799999999997,0,1,1,100.0
12,43.0,1,20.0,1.0,6,2,8.702900000000001,-0.009,-0.039865000000000005,0.999215,43.0,25.93,0,19.0,3550.0,26.0,4.8464,-0.09,-1.02,0.08,1.5185499999999998,1.5964000000000003,-4.133200000000001,0,1,1,100.0
12,44.0,1,20.0,1.0,6,2,8.393199999999998,-0.009,-0.037419999999999995,1.02122,43.0,25.93,0,19.0,3550.0,26.0,4.781199999999999,-0.09,-1.02,0.08,1.6734000000000004,1.5312,-3.285599999999998,0,1,1,100.0
12,45.0,1,20.0,1.0,6,2,7.531499999999999,-0.009349999999999999,-0.009950000000000002,1.1208500000000001,43.0,25.93,0,19.0,3550.0,26.0,4.6495,-0.08,-1.02,0.08,2.2645,1.224,-1.0435,0,1,1,100.0
12,46.0,1,20.0,1.0,6,2,7.065399999999998,-0.01,-0.05752000000000017,1.1822199999999998,43.0,25.900599999999997,0,19.0,3550.0,26.0,4.6202,-0.08,-1.02,0.08,2.704600000000002,0.9533999999999988,0.19520000000000498,0,1,1,100.0
12,47.0,1,20.0,1.0,6,2,6.6697,-0.010610000000000001,-0.04264999999999992,1.23821,43.0,25.9183,0,19.0,3550.0,26.0,4.6322,-0.08,-1.02,0.08,3.1103000000000005,0.5996999999999995,1.2682000000000013,0,1,1,100.0
12,48.0,1,20.0,1.0,6,2,6.376399999999999,-0.011,0.027839999999999917,1.2791599999999999,43.0,25.9,0,19.0,3550.0,26.0,4.663200000000001,-0.08,-1.02,0.08,3.4336000000000007,0.2283999999999992,2.1084000000000014,0,1,1,100.0
12,49.0,1,20.0,1.0,6,2,6.2840333333333325,-0.011,0.013169999999999958,1.2802466666666665,43.0,25.9,0,19.0,3550.0,26.0,4.684933333333333,-0.08,-1.02,0.08,3.5259666666666667,0.08169999999999956,2.3692000000000006,0,1,1,100.0
12,50.0,1,20.0,1.0,6,2,5.89,-0.010499999999999999,-0.009,1.2469999999999999,43.0,25.9,0,19.0,3550.0,26.0,4.82,-0.09,-1.02,0.08,3.8600000000000003,-0.65,3.48,0,1,1,100.0
12,51.0,1,20.0,1.0,6,2,5.7509,-0.01,0.045200000000000275,1.20918,43.0,25.926099999999998,0,19.0,3550.0,26.0,4.9191,-0.09,-1.02,0.09,3.91,-1.0134000000000012,3.894700000000001,0,1,1,100.0
12,52.0,1,20.0,1.0,6,2,5.652,-0.01,0.05035999999999991,1.1939600000000001,43.0,25.9,0,19.0,3550.0,26.0,5.0332,-0.09,-1.02,0.09,3.9024,-1.2688000000000004,4.1664,0,1,1,100.0
12,53.0,1,20.0,1.1950000000000045,6,2,5.6061000000000005,-0.009804999999999996,-0.07515999999999949,1.1032549999999997,43.0,25.93,0,19.195000000000004,3550.0,26.0,5.1356,-0.09,-1.02,0.09,3.8661,-1.3758500000000002,4.3117,0,1,1,100.0
12,54.0,1,20.0,2.0,6,2,5.5802000000000005,-0.009,0.0555599999999999,1.06096,43.0,25.900599999999997,0,20.0,3550.0,26.0,5.2716,-0.09020000000000004,-1.02,0.09,3.84,-1.3791999999999998,4.3802,0,1,1,100.0
12,55.0,1,20.0,2.0,6,2,5.5965,-0.00835,0.01905,0.9827,43.0,25.93,0,20.0,3550.0,26.0,5.3955,-0.1,-1.02,0.09,3.8595,-1.3075,4.3965000000000005,0,1,1,100.0
12,56.0,1,20.0,2.0,6,2,5.6384,-0.008,-0.07995999999999971,0.9171199999999999,43.0,25.93,0,20.0,3550.0,26.0,5.4968,-0.1,-1.02,0.1,3.9452000000000007,-1.2287999999999997,4.434,0,1,1,100.0
12,57.0,1,20.0,2.0,6,2,5.696400000000001,-0.007089999999999998,-0.02533999999999994,0.88471,43.0,25.93,0,20.0,3550.0,26.0,5.5946,-0.1,-1.02,0.1,4.1192,-1.1635999999999997,4.5519,0,1,1,100.0
12,58.0,1,20.0,2.0,6,2,5.767,-0.007540000000000009,-0.040680000000000834,0.9098600000000001,43.0,25.93,0,19.45999999999999,3550.0,26.0,5.687,-0.1,-1.02,0.1,4.382600000000002,-1.0929999999999995,4.797200000000002,0,1,1,100.0
12,59.0,1,20.0,2.0,6,2,5.8502,-0.008,-0.005620000000000392,0.8922100000000001,43.0,25.93,0,19.0,3550.0,26.0,5.7685,-0.1,-1.02,0.1,4.729100000000002,-0.9929999999999995,5.167600000000001,0,1,1,100.0
12,60.0,1,20.0,2.0,6,2,5.948,-0.0072,0.04940000000000001,0.9062,43.0,25.93,0,19.0,3550.0,26.0,5.842,-0.1,-1.02,0.1,5.12,-0.798,5.664000000000001,0,1,1,100.0
12,61.0,1,20.0,2.0,6,2,6.0601,-0.007,0.0466499999999997,0.87116,43.0,25.93,0,19.0,3550.0,26.0,5.925800000000001,-0.11,-1.02,0.11,5.513200000000002,-0.49539999999999845,6.276300000000003,0,1,1,100.0
12,62.0,1,20.0,2.0,6,2,6.1742,-0.007060000000000002,0.02181999999999988,0.9057999999999999,43.0,25.93,0,19.0,3550.0,26.0,6.0248,-0.11,-1.02,0.11,5.9044,-0.11439999999999942,6.988800000000001,0,1,1,100.0
12,63.0,1,20.0,2.0,6,2,6.295200000000001,-0.008,-0.05284000000000033,0.9014900000000002,43.0,25.93,0,19.0,3550.0,26.0,6.162100000000001,-0.11,-1.02,0.11,6.295600000000002,0.28870000000000207,7.805700000000005,0,1,1,100.0
12,64.0,1,20.0,2.0,6,2,6.3794,-0.007339999999999998,-0.017139999999999836,0.90074,43.0,25.93,0,19.0,3550.0,26.0,6.2692000000000005,-0.11,-1.02,0.11,6.521800000000001,0.49860000000000043,8.346200000000001,0,1,1,100.0
12,65.0,1,20.0,1.0,6,2,6.585,-0.007,-0.02365,0.87015,43.0,25.93,0,18.0,3550.0,26.0,6.592,-0.12,-1.02,0.1195,7.0200000000000005,0.815,9.7095,0,1,1,100.0
12,66.0,1,20.0,0.42000000000000454,6,2,6.747999999999999,-0.007,0.017,0.8825400000000002,43.0,25.93,0,17.420000000000005,3550.0,26.0,6.9018,-0.12579999999999997,-1.02,0.12,7.291199999999999,0.8268000000000002,10.703799999999998,0,1,1,100.0
12,67.0,1,20.0,1.0,6,2,6.925200000000002,-0.007,0.012960000000001037,0.88179,42.0,25.93,0,18.0,3550.0,26.0,7.288800000000004,-0.13,-1.02,0.12,7.458400000000001,0.6316999999999969,11.655500000000007,0,1,1,100.0
12,68.0,1,20.0,0.719999999999997,6,2,7.0564,-0.007,0.051719999999999766,0.8756799999999999,42.0,25.93,0,17.719999999999995,3550.0,26.0,7.591200000000001,-0.13280000000000003,-1.02,0.12,7.4872000000000005,0.35479999999999895,12.230000000000002,0,1,1,100.0
12,69.0,1,20.0,0.17666666666666517,6,2,7.127033333333333,-0.007,0.010426666666666551,0.8653566666666667,42.0,25.93,0,17.176666666666666,3550.0,26.0,7.748766666666667,-0.13823333333333335,-1.02,0.12,7.481766666666667,0.17006666666666614,12.501666666666667,0,1,1,100.0
12,70.0,1,20.0,1.0,6,2,7.587000000000001,-0.007,0.0070999999999999995,0.7663,42.0,25.93,0,18.0,3550.0,26.0,8.802,-0.16,-1.01,0.12,7.022,-1.7189999999999999,13.788,0,1,1,100.0
12,71.0,1,20.0,1.0,6,2,7.8641,-0.006270000000000005,0.0016799999999999276,0.6865200000000004,42.0,25.93,0,18.0,3550.0,26.0,9.309,-0.16729999999999998,-1.01,0.12729999999999997,6.5291000000000015,-3.050499999999996,14.207899999999999,0,1,1,100.0
12,72.0,1,20.0,1.0,6,2,8.124200000000002,-0.006,-0.05609999999999963,0.6399199999999996,42.0,25.93,0,18.0,3550.0,26.0,9.715000000000002,-0.17180000000000006,-1.01,0.13,5.999799999999998,-4.299400000000006,14.502400000000002,0,1,1,100.0
12,73.0,1,20.0,1.0,6,2,8.27905,-0.006,-0.011274999999999747,0.5942799999999997,42.0,25.93,0,18.0,3550.0,26.0,9.918750000000001,-0.17995000000000003,-1.01,0.13,5.681949999999998,-4.975850000000004,14.6491,0,1,1,100.0
12,74.0,1,20.0,1.0,6,2,8.442,-0.005189999999999998,0.05461000000000018,0.5753699999999999,42.0,25.93,0,18.0,3550.0,26.0,10.106300000000001,-0.18,-1.01,0.13,5.355999999999999,-5.587500000000002,14.7958,0,1,1,100.0
12,75.0,1,20.0,1.0,6,2,9.1875,-0.005,0.0355,0.596,42.0,25.93,0,18.0,3550.0,26.0,10.817499999999999,-0.19,-1.0,0.15,4.08,-7.275,15.465,0,1,1,100.0
12,76.0,1,20.0,1.0,6,2,9.5712,-0.005,0.04396000000000015,0.5322000000000002,42.0,25.93,0,18.0,3550.0,26.0,11.1272,-0.19879999999999998,-1.0,0.15879999999999997,3.602400000000001,-7.392399999999999,15.841199999999999,0,1,1,100.0
12,77.0,1,20.0,1.0,6,2,9.977500000000003,-0.005,0.009480000000000658,0.507159999999999,42.0,25.93,0,18.0,3550.0,26.0,11.452000000000004,-0.2,-1.0,0.16,3.2330999999999976,-6.940699999999994,16.252600000000005,0,1,1,100.0
12,78.0,1,20.0,1.0,6,2,10.2482,-0.004429999999999996,-0.009750000000000349,0.3861999999999994,42.0,25.9528,0,18.0,3550.0,26.0,11.675400000000002,-0.20570000000000005,-1.0,0.16570000000000004,3.0544999999999995,-6.399399999999997,16.5396,0,1,1,100.0
12,79.0,1,20.0,1.0,6,2,10.5602,-0.004,0.05579000000000057,0.3121399999999999,42.0,25.9392,0,18.0,3550.0,26.0,11.939400000000001,-0.21,-1.0,0.17,2.9052999999999995,-5.603299999999997,16.891000000000002,0,1,1,100.0
12,80.0,1,20.0,1.0,6,2,11.272,-0.002,0.0686,0.12119999999999999,42.0,25.93,0,18.0,3550.0,26.0,12.518,-0.22,-1.0,0.17,2.816,-3.3680000000000003,17.822,0,1,1,100.0
12,81.0,1,20.0,1.0,6,2,11.7287,-0.0009700000000000046,-0.003660000000000355,-0.042059999999999535,42.0,25.9312,0,18.0,3550.0,26.0,12.855699999999999,-0.23,-1.0003,0.17,2.9232999999999993,-1.7997000000000047,18.6074,0,1,1,100.0
12,82.0,1,20.0,1.0,6,2,12.201400000000005,0.0006600000000000137,0.09510000000000048,-0.238680000000002,42.0,25.9436,0,18.0,3550.0,26.0,13.172000000000002,-0.23660000000000014,-1.01,0.17660000000000015,3.1092000000000013,-0.12039999999998542,19.59240000000001,0,1,1,100.0
12,83.0,1,20.0,0.2900000000000091,6,2,12.677000000000003,0.002580000000000018,0.1457999999999993,-0.5514800000000019,42.0,25.93,0,17.29000000000001,3550.0,26.0,13.542500000000002,-0.2429000000000001,-1.01,0.18,3.2861000000000007,1.7625000000000113,20.684300000000004,0,1,1,100.0
12,84.0,1,20.0,1.0,6,2,13.0326,0.004920000000000005,0.08623999999999998,-0.7917000000000004,42.0,25.93,0,18.0,3550.0,26.0,13.8534,-0.25,-1.0054,0.18,3.373,3.2296000000000027,21.413,0,1,1,100.0
12,85.0,1,20.0,1.0,6,2,13.3705,0.0071,0.15065,-1.0158,42.0,25.9135,0,18.0,3550.0,26.0,14.1915,-0.2555,-1.0,0.18,3.4165,4.482,21.8585,0,1,1,100.0
12,86.0,1,20.0,1.0,6,2,14.199399999999999,0.011179999999999995,0.10215999999999995,-1.5163399999999996,42.0,25.9,0,18.0,3550.0,26.0,15.093999999999998,-0.27,-0.9882000000000001,0.18820000000000003,3.610399999999999,3.533200000000015,20.39820000000001,0,1,1,100.0
12,87.0,1,20.0,1.0,6,2,14.737300000000005,0.012,-0.007880000000002009,-1.5315499999999993,42.0,25.9,0,18.0,3550.0,26.0,15.469600000000002,-0.27,-0.9718999999999999,0.18,4.196400000000006,-3.8218000000000796,16.093199999999957,0,1,1,100.0
12,88.0,1,20.0,1.0,6,2,15.212600000000002,0.012,0.05086000000000006,-1.5003999999999997,42.0,25.9,0,18.0,3550.0,26.0,15.356399999999997,-0.2678,-0.9577999999999999,0.17779999999999996,4.963200000000002,-15.281200000000045,9.498799999999973,0,1,1,100.0
12,89.0,1,20.0,0.9299999999999955,6,2,15.8117,0.010929999999999995,-0.11277000000000005,-1.3838299999999997,42.0,25.8923,0,18.070000000000004,3485.0,27.0,14.208799999999995,-0.2385999999999999,-0.95,0.17,5.864700000000001,-34.40320000000004,-2.566800000000033,0,1,1,100.0
12,90.0,1,20.0,0.0,1,6,16.303,-0.014500000000000002,-2.3833,-1.9612,42.0,25.741,0,19.0,3485.0,27.0,12.08,-0.199,-0.95,0.17,5.983,-48.778999999999996,-14.011000000000001,0,1,1,100.0
12,91.0,1,20.0,0.0,1,6,16.7093,-0.08619999999999982,-2.8455100000000035,-2.577149999999998,42.0,25.7101,0,19.0,3485.0,27.0,9.186700000000009,-0.1568000000000002,-0.9532999999999999,0.17,5.209300000000003,-55.999199999999995,-23.09229999999998,0,1,1,100.0
12,92.0,1,20.0,0.0,1,6,17.003600000000002,-0.14564000000000046,-2.0539599999999956,-2.9751200000000013,42.0,25.6516,0,19.0,3485.0,27.0,5.76639999999997,-0.1011999999999996,-0.9696000000000001,0.16039999999999988,3.6815999999999858,-55.02519999999998,-28.92720000000004,0,1,1,100.0
12,93.0,1,20.0,0.0,1,6,17.111800000000002,-0.1885700000000002,-1.587349999999997,-3.400780000000004,42.0,25.6323,0,19.0,3485.0,27.0,2.078899999999979,-0.03639999999999964,-0.9959000000000001,0.14409999999999992,1.655299999999988,-46.808899999999944,-32.43640000000002,0,1,1,100.0
12,94.0,1,20.0,0.0,1,6,17.0457,-0.21854000000000004,-1.0953699999999995,-3.8282000000000003,42.0,25.58,0,19.0,3485.0,27.0,-1.3266000000000049,0.024400000000000092,-1.0211000000000001,0.11779999999999995,-0.5459000000000038,-35.82369999999998,-35.77020000000001,0,1,1,100.0
12,95.0,1,20.0,0.0,1,6,16.93975,-0.22995000000000002,-0.905475,-4.0075,42.0,25.58,0,19.0,3485.0,27.0,-3.0055,0.056999999999999995,-1.02925,0.1015,-1.92325,-29.03475,-38.0685,0,1,1,100.0
12,96.0,1,20.0,0.0,1,6,16.20799999999999,-0.2509200000000001,-0.3785599999999977,-5.018800000000004,42.0,25.4556,0,19.0,3485.0,27.0,-6.654800000000014,0.12480000000000019,-1.0648000000000002,0.04039999999999964,-7.456000000000045,-3.699199999999791,-48.10280000000008,0,1,1,100.0
12,97.0,1,20.0,0.0,1,6,15.488649999999996,-0.25605500000000003,-0.06827500000000004,-5.520970000000001,42.0,25.3678,0,19.0,3485.0,27.0,-7.023249999999995,0.12944999999999993,-1.0805500000000001,0.008899999999999865,-11.372550000000016,15.880100000000093,-54.566000000000024,0,1,1,100.0
12,98.0,1,20.0,0.0,1,6,15.024099999999997,-0.25687,-0.07235000000000003,-5.727980000000001,42.0,25.335199999999997,0,19.0,3485.0,27.0,-6.330499999999996,0.12129999999999995,-1.0887000000000002,-0.007400000000000091,-13.336700000000011,27.143400000000064,-57.17400000000002,0,1,1,100.0
12,99.0,1,20.0,0.0,1,6,13.408299999999999,-0.257,0.10710500000000008,-5.911815,42.0,25.3,0,19.0,3485.0,27.0,-1.071399999999992,0.01889999999999986,-1.08815,-0.043700000000000044,-18.275200000000005,58.318600000000025,-59.60805,0,1,1,100.0
12,100.0,1,20.0,0.0,3,7,12.74,-0.257,0.134,-5.911,42.0,25.3,0,19.0,3485.0,27.0,1.83,-0.03,-1.08,-0.06,-19.84,67.74,-58.41,0,1,1,100.0
13,0.0,1,20.0,0.0,0,1,3.03,0.02,1.523,-0.265,42.0,25.97,0,19.0,3485.0,27.0,15.94,-0.31,-1.09,0.17,-31.46,28.17,1.08,0,1,1,100.0
13,1.0,1,20.0,0.0,0,1,2.0394,0.012530000000000012,0.5163500000000014,-0.24115000000000006,42.0,25.97,0,54.05000000000001,3485.0,27.0,11.5923,-0.2273,-1.1209,0.19,-26.114,12.894200000000001,4.9799999999999995,0,1,1,100.0
13,2.0,1,20.0,0.0,0,1,1.5825,-0.07656999999999999,-4.608060000000002,0.0,42.0,25.97,0,4.0,3485.0,27.0,9.5215,-0.1882,-1.13,0.18409999999999999,-20.8547,5.2076,9.9992,0,1,1,100.0
13,3.0,1,20.0,0.0,0,1,1.2119,-0.11362,-0.48715000000000014,0.0,42.0,25.97,0,4.0,3485.0,27.0,7.7333,-0.15,-1.1173000000000002,0.1673,-11.636700000000001,-2.1720999999999995,21.264899999999997,0,1,1,100.0
13,4.0,1,20.0,0.0,0,1,1.2696,-0.11828,0.16843999999999984,0.0,42.0,25.944399999999998,0,4.0,3485.0,27.0,7.6584,-0.15,-1.0964,0.15,-7.038400000000001,-3.6308,27.7516,0,1,1,100.0
13,5.0,1,20.0,0.0,0,1,1.5945,-0.0969,1.22485,0.0,42.0,25.951999999999998,0,4.0,3485.0,27.0,8.309,-0.1545,-1.0655000000000001,0.14,-5.789000000000001,-3.02,28.683,0,1,1,100.0
13,6.0,1,20.0,0.0,0,1,2.0358,-0.06458000000000001,1.1094600000000001,0.0,42.0,25.97,0,4.0,3485.0,27.0,9.052,-0.17,-1.0482,0.1282,-6.9224,-1.8622000000000003,24.3686,0,1,1,100.0
13,7.0,1,20.0,0.0,0,1,2.2517666666666667,-0.051343333333333345,0.9332033333333335,0.0,42.0,25.97,0,4.0,3485.0,27.0,9.330666666666668,-0.17,-1.0412333333333335,0.12123333333333333,-7.744466666666666,-1.367566666666667,21.4217,0,1,1,100.0
13,8.0,1,20.0,0.7199999999999989,0,1,3.7151999999999994,-0.011960000000000009,0.42288000000000003,0.0,42.0,25.9412,0,4.719999999999999,3485.0,27.0,9.6388,-0.1728,-1.0128,0.08280000000000001,-12.810399999999998,0.7635999999999995,0.20760000000000622,0,1,1,100.0
13,9.0,1,20.0,1.0,0,1,4.563999999999999,-0.007,-0.003299999999999982,0.0,42.0,25.97,0,5.0,3485.0,27.0,8.795,-0.16,-1.0181,0.05190000000000001,-14.071100000000001,1.2938999999999998,-9.063699999999997,0,1,1,100.0
13,10.0,1,20.0,1.0,0,1,5.173,-0.007,-0.043149999999999994,0.0,42.0,25.948,0,5.0,3485.0,27.0,7.851,-0.141,-1.02,0.0355,-13.7805,1.468,-13.2895,0,1,1,100.0
13,11.0,1,20.0,1.0,0,1,5.9174,-0.016919999999999984,-0.9039899999999985,0.0,42.0,25.97,0,5.0,3485.0,27.0,6.266200000000001,-0.11010000000000002,-1.0299,0.00010000000000002275,-11.521300000000002,1.3808,-14.7025,0,1,1,100.0
13,12.0,1,20.0,0.9200000000000017,0,1,6.2988,-0.06135999999999997,-1.37352,0.0,42.0,25.97,0,4.920000000000002,3485.0,27.0,4.9628000000000005,-0.08920000000000002,-1.0308,-0.010799999999999983,-8.367200000000002,1.0308000000000004,-10.361200000000007,0,1,1,100.0
13,13.0,1,20.0,0.0,0,1,6.47255,-0.09068,-0.4926849999999999,0.0,42.0,25.97,0,4.0,3485.0,27.0,3.9245000000000005,-0.07,-1.04085,-0.03,-4.226000000000001,0.5045000000000002,-1.668200000000003,0,1,1,100.0
13,14.0,1,20.0,0.0,0,1,6.4848,-0.10577999999999999,-0.2492400000000006,0.0,42.0,25.97,0,4.0,3485.0,27.0,3.566,-0.06259999999999996,-1.05,-0.04,1.1881999999999913,-0.13279999999999906,9.167799999999986,0,1,1,100.0
13,15.0,1,20.0,0.0,0,1,6.4159999999999995,-0.109,0.0757,0.0,42.0,25.97,0,4.0,3485.0,27.0,4.0875,-0.07350000000000001,-1.04,-0.04,6.347499999999999,-0.6635,17.157999999999998,0,1,1,100.0
13,16.0,1,20.0,0.0,0,1,6.347799999999999,-0.108,-0.007559999999999946,0.0,42.0,25.97,0,4.0,3485.0,27.0,5.064199999999999,-0.09219999999999999,-1.03,-0.03,10.0644,-0.9697999999999999,20.673000000000002,0,1,1,100.0
13,17.0,1,20.0,0.0,0,1,6.34,-0.108,-0.03917000000000005,0.0,42.0,25.97,0,4.0,3485.0,27.0,5.868599999999997,-0.10529999999999996,-1.0247000000000002,-0.024700000000000045,11.822399999999995,-1.0506,21.084600000000002,0,1,1,100.0
13,18.0,1,20.0,0.0,0,1,6.492,-0.108,-0.05138000000000006,0.0,42.0,25.97,0,4.0,3485.0,27.0,7.5976,-0.1362,-1.01,0.0061999999999999885,13.2376,-0.9104000000000001,17.848000000000003,0,1,1,100.0
13,19.0,1,20.0,0.0,0,1,6.756499999999999,-0.10871,-0.12892999999999938,0.0,42.0,25.958399999999997,0,4.0,3485.0,27.0,8.4172,-0.14709999999999995,-1.0029000000000001,0.017099999999999966,12.799900000000001,-0.7190000000000003,14.375600000000006,0,1,1,100.0
13,20.0,1,20.0,0.0,0,1,7.14,-0.1188,-0.3744,0.0,42.0,25.97,0,4.0,3485.0,27.0,8.894,-0.158,-1.0,0.027999999999999997,12.180000000000001,-0.5720000000000001,11.704,0,1,1,100.0
13,21.0,1,20.0,0.0,0,1,7.492349999999999,-0.131225,-0.4966000000000004,0.0,42.0,25.97,0,4.0,3485.0,27.0,9.10895,-0.16,-1.01,0.03,11.97555,-0.48330000000000006,10.8777,0,1,1,100.0
13,22.0,1,20.0,0.0,0,1,8.085199999999999,-0.13898000000000002,-0.07188000000000043,0.0,42.0,25.97,0,4.0,3485.0,27.0,9.4172,-0.16979999999999998,-1.01,0.04,12.187399999999998,-0.42,11.263799999999998,0,1,1,100.0
13,23.0,1,20.0,0.0,6,2,8.5868,-0.13799000000000003,0.1252199999999962,0.25238999999999706,42.0,25.845299999999998,0,18.0,3485.0,27.0,9.821,-0.1707,-1.01,0.05,12.3423,-0.4055999999999999,11.254800000000001,0,1,1,100.0
13,24.0,1,20.0,0.0,6,2,9.059199999999999,-0.060720000000000024,1.7538400000000023,3.381119999999999,42.0,25.647599999999997,0,18.0,3485.0,27.0,10.453199999999999,-0.19,-1.01,0.06,11.8968,-0.7131999999999995,7.368400000000006,0,1,1,100.0
13,25.0,1,20.0,1.0,6,2,9.555,-0.039,0.33425,4.0475,42.0,25.6275,0,19.0,3485.0,27.0,11.002500000000001,-0.1925,-1.0,0.07250000000000001,10.3475,-1.2650000000000001,0.5,0,1,1,100.0
13,26.0,1,20.0,0.33999999999999775,6,2,9.984599999999999,-0.030980000000000008,0.2213800000000001,3.4397400000000005,42.0,25.7002,0,18.339999999999996,3485.0,27.0,11.2368,-0.2,-1.0,0.08339999999999997,7.7668000000000035,-1.3156000000000003,-5.844399999999994,0,1,1,100.0
13,27.0,1,20.0,1.0,6,2,10.334499999999998,-0.024710000000000013,0.20867000000000013,2.7921800000000014,42.0,25.7729,0,19.0,3485.0,27.0,11.1441,-0.2,-1.0,0.09,4.489100000000008,-0.7380000000000019,-10.678399999999991,0,1,1,100.0
13,28.0,1,20.0,1.0,6,2,10.576799999999999,-0.01944000000000002,0.17895999999999915,2.1968000000000023,42.0,25.845599999999997,0,19.0,3485.0,27.0,10.729600000000001,-0.19,-1.0,0.1,1.2616000000000098,0.21479999999999666,-13.807199999999993,0,1,1,100.0
13,29.0,1,20.0,1.0,6,2,10.668299999999999,-0.015585000000000014,0.2001650000000002,1.8058450000000013,42.0,25.8922,0,19.0,3485.0,27.0,10.33435,-0.18195000000000003,-1.0,0.09195000000000005,-0.38599999999999457,0.8363999999999978,-14.943749999999996,0,1,1,100.0
13,30.0,1,20.0,1.0,6,2,10.672,-0.012,0.0291,1.4346,42.0,25.9,0,19.0,3485.0,27.0,9.135,-0.163,-1.01,0.09,-2.551,1.892,-15.293,0,1,1,100.0
13,31.0,1,20.0,1.0,6,2,10.511000000000001,-0.012,-0.0032699999999999717,1.45259,42.0,25.9,0,19.0,3485.0,27.0,8.192400000000001,-0.14210000000000003,-1.01,0.08,-2.8542,2.1874000000000002,-13.841100000000003,0,1,1,100.0
13,32.0,1,20.0,1.0,6,2,10.294,-0.012439999999999998,-0.018919999999999958,1.51088,42.0,25.9,0,19.0,3485.0,27.0,7.508400000000001,-0.13560000000000003,-1.02,0.07,-2.494800000000001,2.1504000000000003,-11.971200000000003,0,1,1,100.0
13,33.0,1,20.0,1.0,6,2,9.8657,-0.013,-0.07706000000000002,1.5263,42.0,25.9,0,19.0,3485.0,27.0,6.6884000000000015,-0.12,-1.02,0.07,-1.424100000000003,1.844200000000001,-8.62020000000001,0,1,1,100.0
13,34.0,1,20.0,1.0,6,2,9.446800000000003,-0.012940000000000009,-0.021500000000000682,1.49306,42.0,25.9,0,19.0,3485.0,27.0,6.262200000000001,-0.11,-1.02,0.06,-0.46600000000000363,1.574000000000001,-6.068800000000009,0,1,1,100.0
13,35.0,1,20.0,1.0,6,2,8.9985,-0.012,0.0383,1.4242,42.0,25.9,0,19.0,3485.0,27.0,6.0395,-0.11,-1.02,0.06,0.3065,1.401,-4.1305000000000005,0,1,1,100.0
13,36.0,1,20.0,1.0,6,2,8.562,-0.012,-0.05944000000000016,1.35316,42.0,25.9,0,19.0,3485.0,27.0,5.908,-0.11,-1.02,0.06,0.8975999999999994,1.3028000000000002,-2.7900000000000014,0,1,1,100.0
13,37.0,1,20.0,1.0,6,2,8.1606,-0.011329999999999995,0.003929999999999904,1.368,42.0,25.9099,0,19.0,3485.0,27.0,5.8035000000000005,-0.1,-1.02,0.06,1.402499999999999,1.2202000000000002,-1.8447000000000018,0,1,1,100.0
13,38.0,1,20.0,1.0,6,2,7.802800000000001,-0.012,-0.04207999999999984,1.4411399999999996,42.0,25.9,0,19.0,3485.0,27.0,5.699,-0.1,-1.02,0.06,1.9375999999999982,1.0396000000000007,-0.971000000000003,0,1,1,100.0
13,39.0,1,20.0,1.0,6,2,7.546200000000001,-0.013169999999999996,-0.0637800000000002,1.5921599999999996,42.0,25.9,0,19.0,3485.0,27.0,5.6032,-0.1,-1.02,0.06,2.429299999999999,0.8162000000000004,-0.12820000000000162,0,1,1,100.0
13,40.0,1,20.0,1.0,6,2,7.448666666666666,-0.013866666666666666,-0.017799999999999993,1.6952666666666667,42.0,25.9,0,19.0,3485.0,27.0,5.575333333333334,-0.1,-1.02,0.06,2.631333333333333,0.7186666666666667,0.24800000000000005,0,1,1,100.0
13,41.0,1,20.0,1.0,6,2,7.131,-0.015,-0.022410000000000024,1.85521,42.0,25.8724,0,19.0,3485.0,27.0,5.5269,-0.1,-1.02,0.06,3.3617999999999997,0.3679000000000002,1.7411999999999987,0,1,1,100.0
13,42.0,1,20.0,2.0,6,2,6.885400000000001,-0.015,-0.03036000000000017,1.86734,42.0,25.86,0,20.0,3485.0,27.0,5.6746,-0.1,-1.02,0.07,3.8045999999999998,0.27559999999999996,2.6847999999999996,0,1,1,100.0
13,43.0,1,20.0,2.0,6,2,6.785200000000001,-0.015,0.016439999999999916,1.8207700000000002,42.0,25.86,0,20.0,3485.0,27.0,5.8583,-0.1,-1.02,0.07,3.8139000000000003,0.39959999999999946,2.7178000000000004,0,1,1,100.0
13,44.0,1,20.0,2.0,6,2,6.7208,-0.015,-0.028039999999999555,1.7510400000000002,42.0,25.86,0,20.0,3485.0,27.0,6.017199999999999,-0.11,-1.02,0.07,3.634000000000001,0.6059999999999991,2.358400000000002,0,1,1,100.0
13,45.0,1,20.0,2.0,6,2,6.6995000000000005,-0.01495000000000001,-0.028950000000000694,1.7038000000000004,42.0,25.898,0,20.0,3485.0,27.0,6.092,-0.11,-1.02,0.0704999999999999,3.503500000000001,0.7149999999999989,2.0855000000000032,0,1,1,100.0
13,46.0,1,20.0,2.0,6,2,6.69,-0.014,-0.0009599999999999678,1.6211200000000001,42.0,25.9,0,19.0,3485.0,27.0,6.191400000000001,-0.11,-1.02,0.08,3.1474,0.9683999999999998,1.2022000000000006,0,1,1,100.0
13,47.0,1,20.0,2.0,6,2,6.7046,-0.013770000000000004,0.018240000000000055,1.56393,42.0,25.9,0,19.0,3485.0,27.0,6.2,-0.11,-1.02,0.08,2.9985,1.0669,0.694000000000001,0,1,1,100.0
13,48.0,1,20.0,2.0,6,2,6.7316,-0.013,0.035840000000000434,1.53936,42.0,25.9,0,19.0,3485.0,27.0,6.186800000000001,-0.11,-1.02,0.08,2.9384,1.0868000000000002,0.3708000000000004,0,1,1,100.0
13,49.0,1,20.0,2.0,6,2,6.7541,-0.013,0.011759999999999673,1.52808,42.0,25.9,0,19.0,3485.0,27.0,6.1418,-0.11,-1.02,0.08,2.9441,1.0195000000000005,0.18360000000000037,0,1,1,100.0
13,50.0,1,20.0,2.0,6,2,6.78,-0.0125,0.02,1.5095,42.0,25.9,0,19.0,3485.0,27.0,6.11,-0.11,-1.02,0.08,2.965,0.935,0.15,0,1,1,100.0
13,51.0,1,20.0,2.0,6,2,6.7959,-0.012,0.014339999999999646,1.4425000000000006,42.0,25.9,0,19.0,3485.0,27.0,6.1,-0.11,-1.02,0.08,2.9582000000000006,0.8941000000000001,0.14410000000000014,0,1,1,100.0
13,52.0,1,20.0,2.0,6,2,6.8,-0.011320000000000004,-0.05455999999999981,1.3172800000000002,42.0,25.9204,0,19.0,3485.0,27.0,6.1068,-0.11,-1.02,0.08,2.8928000000000003,0.9136,0.05920000000000028,0,1,1,100.0
13,53.0,1,20.0,2.0,6,2,6.8,-0.011,0.009560000000001307,1.2852399999999997,42.0,25.9069,0,19.0,3485.0,27.0,6.1023,-0.11,-1.02,0.08769999999999982,2.8269000000000006,0.9730999999999994,-0.11929999999999838,0,1,1,100.0
13,54.0,1,20.0,2.0,6,2,6.7914,-0.011,-0.06185999999999909,1.33312,42.0,25.9,0,19.0,3485.0,27.0,6.0642,-0.11,-1.02,0.09,2.8272,0.99,-0.24439999999999965,0,1,1,100.0
13,55.0,1,20.0,2.0,6,2,6.7805,-0.012,0.01705,1.35005,42.0,25.9,0,19.0,3485.0,27.0,5.992,-0.11,-1.02,0.09,2.956,0.9225,-0.17350000000000002,0,1,1,100.0
13,56.0,1,20.0,2.0,6,2,6.7648,-0.012,-0.005560000000000151,1.4339599999999997,42.0,25.9,0,19.0,3485.0,27.0,5.919200000000001,-0.11,-1.02,0.09,3.152799999999999,0.8132000000000006,0.06399999999999864,0,1,1,100.0
13,57.0,1,20.0,2.0,6,2,6.738700000000001,-0.013,-0.05008000000000038,1.4871499999999997,42.0,25.9,0,19.0,3485.0,27.0,5.8274,-0.1,-1.02,0.09,3.5507999999999993,0.5518000000000006,0.7441999999999984,0,1,1,100.0
13,58.0,1,20.0,2.0,6,2,6.7177999999999995,-0.013,0.06310000000000264,1.5501600000000004,42.0,25.9,0,19.0,3485.0,27.0,5.7834,-0.1,-1.02,0.09,3.8707999999999974,0.18940000000000418,1.5123999999999924,0,1,1,100.0
13,59.0,1,20.0,2.0,6,2,6.69845,-0.013,-0.04278999999999992,1.5367600000000001,42.0,25.9,0,19.0,3485.0,27.0,5.723800000000001,-0.1,-1.03,0.09,4.154799999999999,-0.3033999999999987,2.4083499999999973,0,1,1,100.0
13,60.0,1,20.0,2.0,6,2,6.68,-0.013,0.0216,1.5108,42.0,25.9,0,19.0,3485.0,27.0,5.606,-0.1,-1.03,0.09,4.544,-0.8340000000000001,3.876,0,1,1,100.0
13,61.0,1,20.0,2.0,6,2,6.68,-0.013,0.021630000000000177,1.4866100000000002,42.0,25.9,0,19.0,3485.0,27.0,5.4953,-0.1,-1.03,0.09,5.0075999999999965,-0.9555000000000007,5.764699999999986,0,1,1,100.0
13,62.0,1,20.0,2.0,6,2,6.7029000000000005,-0.012,0.023739999999999765,1.46275,42.0,25.9,0,19.0,3485.0,27.0,5.5045,-0.1,-1.04,0.1,5.486999999999999,-0.7449000000000005,7.755099999999997,0,1,1,100.0
13,63.0,1,20.0,2.0,6,2,6.730099999999999,-0.012,0.05210000000000127,1.4664399999999995,42.0,25.920099999999998,0,19.0,3485.0,27.0,5.613699999999998,-0.1,-1.04,0.1,5.907699999999994,-0.4693000000000038,9.410699999999979,0,1,1,100.0
13,64.0,1,20.0,2.0,6,2,6.855599999999999,-0.012,-0.05831999999999904,1.4445200000000002,42.0,25.9,0,19.0,3485.0,27.0,6.287999999999998,-0.11,-1.03,0.10759999999999992,6.887999999999997,0.16919999999999843,12.89519999999999,0,1,1,100.0
13,65.0,1,20.0,2.0,6,2,7.008,-0.012,-0.030449999999999998,1.39365,42.0,25.9,0,19.0,3485.0,27.0,7.0415,-0.1285,-1.03,0.11,7.3715,0.435,14.5595,0,1,1,100.0
13,66.0,1,20.0,2.0,6,2,7.213399999999998,-0.011060000000000013,0.08439999999999849,1.301420000000001,42.0,25.901799999999998,0,19.0,3485.0,27.0,7.952999999999994,-0.13939999999999989,-1.02,0.11,7.4812,0.44300000000000067,15.287999999999998,0,1,1,100.0
13,67.0,1,20.0,2.0,6,2,7.50225,-0.008985000000000002,0.018809999999999875,1.0541400000000003,42.0,25.93,0,19.0,3485.0,27.0,8.916899999999998,-0.16015,-1.01,0.12,7.084300000000001,0.03460000000000082,14.952800000000002,0,1,1,100.0
13,68.0,1,20.0,1.0,6,2,7.851599999999997,-0.007,0.10608000000000074,0.7897200000000013,42.0,25.93,0,18.0,3485.0,27.0,9.857999999999993,-0.17119999999999982,-1.0,0.12,6.126800000000011,-0.889199999999988,13.777200000000011,0,1,1,100.0
13,69.0,1,20.0,1.0,6,2,8.2541,-0.006,-0.021779999999999834,0.6401300000000004,42.0,25.93,0,18.0,3485.0,27.0,10.630899999999997,-0.19,-1.0,0.12,4.706200000000007,-2.5425999999999904,12.347700000000007,0,1,1,100.0
13,70.0,1,20.0,1.0,6,2,8.709,-0.0057,-0.0293,0.5714,42.0,25.93,0,18.0,3485.0,27.0,11.103,-0.2,-1.0,0.12,2.9989999999999997,-5.034,11.26,0,1,1,100.0
13,71.0,1,20.0,1.0,6,2,9.029849999999998,-0.0056949999999999935,0.03150999999999988,0.6349349999999998,42.0,25.93,0,18.0,3485.0,27.0,11.17305,-0.2,-1.0,0.12,1.792300000000006,-6.986899999999991,11.01525,0,1,1,100.0
13,72.0,1,20.0,1.0,6,2,9.6752,-0.005520000000000005,-0.01571999999999982,0.5671999999999999,42.0,25.93,0,18.0,3485.0,27.0,10.557200000000002,-0.19,-1.0148,0.13,-0.11599999999999794,-9.953999999999997,12.713999999999995,0,1,1,100.0
13,73.0,1,20.0,1.0,6,2,10.171099999999996,-0.004430000000000018,0.08493999999999924,0.32113000000000347,42.0,25.93,0,18.0,3485.0,27.0,9.786200000000006,-0.18,-1.0256999999999998,0.14,-0.5429000000000006,-10.027800000000008,16.52529999999996,0,1,1,100.0
13,74.0,1,20.0,1.0,6,2,10.668399999999998,-0.0013400000000000092,0.12407999999999919,-0.10111999999999835,42.0,25.93,0,18.0,3485.0,27.0,9.3804,-0.17,-1.0466,0.15,0.05019999999999572,-8.13800000000001,22.011199999999974,0,1,1,100.0
13,75.0,1,20.0,1.0,6,2,10.96,0.00075,0.07262500000000001,-0.36162500000000003,42.0,25.93,0,18.0,3485.0,27.0,9.4825,-0.17875,-1.05,0.15,0.76125,-6.5225,25.455,0,1,1,100.0
13,76.0,1,20.0,1.0,6,2,11.726799999999995,0.007519999999999959,0.07872000000000126,-1.1590399999999959,42.0,25.93,0,18.0,3485.0,27.0,11.09359999999999,-0.20679999999999973,-1.0416,0.14160000000000014,2.92479999999999,-2.650800000000016,32.58999999999997,0,1,1,100.0
13,77.0,1,20.0,1.0,6,2,12.348299999999998,0.01185999999999999,0.1416699999999999,-1.6472799999999992,42.0,25.9,0,18.0,3485.0,27.0,13.317399999999996,-0.2385999999999999,-1.0114,0.14,4.030599999999998,-1.1550000000000022,35.30349999999999,0,1,1,100.0
13,78.0,1,20.0,1.0,6,2,13.067799999999993,0.014,0.0046800000000012006,-1.8036200000000004,42.0,25.9,0,18.0,3485.0,27.0,16.168999999999976,-0.28039999999999965,-0.9796000000000004,0.13,4.1844000000000054,-1.2101999999999906,35.44400000000002,0,1,1,100.0
13,79.0,1,20.0,1.0,6,2,13.677549999999998,0.014,-0.038910000000000174,-1.7583600000000001,42.0,25.9,0,18.0,3485.0,27.0,18.378099999999993,-0.3166499999999999,-0.9489000000000001,0.13,3.6491500000000023,-2.087399999999997,33.944050000000004,0,1,1,100.0
13,80.0,1,20.0,1.0,6,2,14.868,0.012799999999999999,-0.0308,-1.5892,42.0,25.9,0,18.0,3485.0,27.0,21.68,-0.362,-0.908,0.14,2.226,-3.738,29.302,0,1,1,100.0
13,81.0,1,20.0,1.0,6,2,15.920799999999993,0.011710000000000014,-0.05838000000000107,-1.4087200000000004,42.0,25.9,0,18.0,3485.0,27.0,23.314999999999994,-0.38289999999999985,-0.8971000000000001,0.15,1.5326000000000009,-3.7105000000000077,24.76650000000003,0,1,1,100.0
13,82.0,1,20.0,1.0,6,2,16.934499999999996,0.011,0.027689999999999656,-1.35452,42.0,25.9057,0,18.0,3485.0,27.0,23.9847,-0.4,-0.8919,0.16,1.7830999999999988,-2.067800000000003,20.858500000000006,0,1,1,100.0
13,83.0,1,20.0,1.0,6,2,18.18849999999999,0.011,-0.02003000000000093,-1.4239599999999988,41.0,25.914099999999998,0,18.0,3485.0,27.0,24.033,-0.4,-0.9046999999999998,0.17,3.3664999999999825,1.6476999999999653,17.120200000000025,0,1,1,100.0
13,84.0,1,20.0,0.44000000000000905,0,5,19.311199999999996,0.012,0.034319999999999795,-1.569559999999999,41.0,25.9,0,18.55999999999999,3485.0,27.0,23.7292,-0.4,-0.92,0.17,5.60279999999999,5.819999999999982,14.711600000000011,0,1,1,100.0
13,85.0,1,20.0,0.0,0,5,20.219249999999995,0.012,0.044,-1.625,41.0,25.9,0,45.49999999999977,3485.0,27.0,23.4445,-0.4032499999999999,-0.9332499999999999,0.17,7.475749999999989,8.901249999999983,12.213750000000019,0,1,1,100.0
13,86.0,1,20.0,0.0,0,5,20.905199999999994,0.06379999999999905,19.572599999999643,-0.42250000000002214,41.0,26.0036,0,19.040000000000735,3485.0,27.0,23.261200000000002,-0.41,-0.94,0.17,8.60059999999999,10.797599999999983,9.960400000000021,0,1,1,100.0
13,87.0,1,20.0,0.0,0,5,22.066,0.10939499999999996,0.9381650000000008,0.0,41.0,25.97,0,5.0,3485.0,27.0,23.03925,-0.41,-0.9541499999999999,0.17414999999999997,9.4166,13.738199999999997,6.990450000000002,0,1,1,100.0
13,88.0,1,20.0,0.0,0,5,22.640399999999996,0.12987999999999975,0.7422799999999998,0.0,41.0,25.97,0,5.0,3485.0,27.0,22.982400000000002,-0.41,-0.96,0.18,9.3572,15.483199999999979,6.01560000000001,0,1,1,100.0
13,89.0,1,20.0,0.0,0,5,23.612599999999997,0.16916999999999985,1.07603,0.0,41.0,25.97,0,5.0,3485.0,27.0,22.9095,-0.40990000000000004,-0.96,0.19,8.9903,20.248999999999985,5.319000000000001,0,1,1,100.0
13,90.0,1,20.0,0.0,0,5,24.1105,0.20584999999999978,1.3559500000000029,0.0,41.0,25.97,0,5.0,3485.0,27.0,22.7755,-0.4,-0.96,0.19,9.149999999999999,24.110999999999983,5.056500000000003,0,1,1,100.0
13,91.0,1,20.0,0.0,0,5,24.5152,0.24004499999999993,0.8317750000000004,0.0,41.0,25.97,0,5.0,3485.0,27.0,22.616200000000003,-0.4,-0.96,0.18905000000000008,9.644199999999998,26.22745000000001,4.1507500000000075,0,1,1,100.0
13,92.0,1,20.0,0.0,0,5,24.8464,0.26228,0.3745600000000032,0.0,41.0,25.97,0,5.0,3485.0,27.0,22.478,-0.39720000000000005,-0.9572,0.1644000000000001,10.598399999999998,18.471600000000034,-0.1091999999999834,0,1,1,100.0
13,93.0,1,20.0,0.0,0,6,25.0796,0.2556700000000002,-0.5660299999999978,0.0,41.0,25.97,0,5.0,3485.0,27.0,21.715100000000014,-0.3763000000000002,-0.9463000000000001,0.1363000000000002,11.513999999999996,-4.147699999999741,-10.618899999999872,0,1,1,100.0
13,94.0,1,20.0,0.0,0,6,25.181099999999997,0.24343000000000004,-0.8731399999999986,0.0,41.0,25.97,0,5.0,3485.0,27.0,20.310200000000005,-0.34810000000000013,-0.9327000000000001,0.12270000000000005,11.4356,-24.268999999999927,-21.10549999999996,0,1,1,100.0
13,95.0,1,20.0,0.0,0,6,25.1935,0.22154999999999997,0.023624999999998238,0.0,41.0,25.97,0,5.0,3485.0,27.0,14.950750000000033,-0.24625000000000058,-0.92,0.12,7.984250000000029,-57.25574999999991,-45.12324999999989,0,1,1,100.0
13,96.0,1,20.0,0.0,0,6,24.892000000000003,0.22527999999999998,0.14603999999999984,0.0,41.0,25.97,0,5.0,3485.0,27.0,7.622800000000044,-0.12160000000000082,-0.9263999999999999,0.12639999999999987,0.6396000000000491,-65.23400000000002,-67.59559999999988,0,1,1,100.0
13,97.0,1,20.0,0.0,0,6,24.228,0.228,0.02813000000000009,0.0,41.0,25.97,0,5.0,3485.0,27.0,1.482800000000012,-0.02350000000000023,-0.9472999999999999,0.14,-6.875799999999984,-49.60160000000005,-84.79989999999997,0,1,1,100.0
13,98.0,1,20.0,0.0,0,6,23.422333333333338,0.228,-0.012766666666666272,0.0,41.0,25.97,0,5.0,3485.0,27.0,-1.6953999999999916,0.02819999999999982,-0.9754666666666665,0.13726666666666673,-11.432333333333318,-28.066666666666762,-95.33179999999997,0,1,1,100.0
13,99.0,1,20.0,0.0,0,6,22.9695,0.228,-0.0580499999999998,0.0,41.0,25.97,0,5.0,3485.0,27.0,-2.677699999999996,0.04909999999999991,-0.9894,0.13030000000000003,-13.069499999999993,-16.92000000000005,-99.49089999999998,0,1,1,100.0
13,100.0,1,20.0,0.0,0,7,18.97,0.221,-0.136,0.0,41.0,25.97,0,5.0,3485.0,27.0,-1.38,0.03,-1.05,0.06,-18.68,43.56,-110.33,0,1,1,100.0
18,0.0,1,20.0,0.0,0,1,10.32,-0.165,-0.749,-4.008,41.0,25.58,0,19.0,2552.0,30.0,6.9,-0.12,-1.02,0.08,3.15,6.35,1.25,0,1,1,100.0
18,1.0,1,20.0,0.0,0,1,10.3056,-0.165,-0.749,-4.008,41.0,25.58,0,43.4,2552.0,30.0,6.8420000000000005,-0.12,-1.03,0.08,3.0380000000000003,5.9954,4.422999999999999,0,1,1,100.0
18,2.0,1,20.0,0.0,0,1,10.2724,-0.13508,7.106319999999997,-2.2444800000000007,41.0,25.689999999999998,0,33.92000000000001,2552.0,30.0,7.0123999999999995,-0.1244,-1.03,0.0756,2.9335999999999998,4.72,6.1236,0,1,1,100.0
18,3.0,1,20.0,0.0,0,1,10.223600000000001,-0.09832,5.98432000000001,0.0,41.0,25.896,0,2.0,2552.0,30.0,7.327999999999999,-0.13,-1.03,0.0766,2.8538,3.2214000000000005,6.9008,0,1,1,100.0
18,4.0,1,20.0,0.0,0,1,10.192400000000001,-0.09724000000000001,0.21376,0.0,41.0,25.947599999999998,0,2.0,2552.0,30.0,7.579599999999999,-0.13440000000000002,-1.03,0.08,2.7904,2.3392,7.0124,0,1,1,100.0
18,5.0,1,20.0,0.0,0,1,10.166,-0.095,0.14,0.0,41.0,25.965999999999998,0,2.0,2552.0,30.0,7.805,-0.14100000000000001,-1.03,0.08,2.724,1.657,6.958,0,1,1,100.0
18,6.0,1,20.0,0.0,0,1,10.1204,-0.095,-0.025280000000000052,0.0,41.0,25.9428,0,2.0,2552.0,30.0,8.222399999999999,-0.15,-1.03,0.08,2.5128000000000004,0.7244000000000007,6.526000000000001,0,1,1,100.0
18,7.0,1,20.0,0.0,0,1,10.0892,-0.095,-0.027479999999999945,0.0,41.0,25.97,0,2.0,2552.0,30.0,8.5966,-0.15539999999999998,-1.0246,0.08,2.2458000000000005,0.11940000000000035,5.9392000000000005,0,1,1,100.0
18,8.0,1,20.0,0.0,0,1,10.0724,-0.095,-0.02066000000000003,0.0,41.0,25.97,0,2.0,2552.0,30.0,8.817400000000001,-0.16,-1.02,0.08,2.0526,-0.14739999999999992,5.506200000000001,0,1,1,100.0
18,9.0,1,20.0,0.0,6,2,10.0602,-0.095,0.03606999999999998,0.0,41.0,25.97,0,2.0,2552.0,30.0,8.9577,-0.16,-1.02,0.08,1.9122999999999999,-0.28769999999999996,5.1951,0,1,1,100.0
18,10.0,1,20.0,0.2,6,2,10.084,-0.0406,1.0444,2.4236,41.0,25.79,0,18.2,2552.0,30.0,9.552,-0.17,-1.02,0.08,1.294,-1.74,1.2519999999999998,0,1,1,100.0
18,11.0,1,20.0,0.5800000000000011,6,2,10.1084,-0.029320000000000006,0.3901400000000004,2.6507799999999997,41.0,25.79,0,18.580000000000002,2552.0,30.0,9.6652,-0.17,-1.02,0.08,1.0786000000000002,-2.511999999999999,-1.2661999999999978,0,1,1,100.0
18,12.0,1,20.0,0.6399999999999978,6,2,10.1392,-0.025720000000000007,0.15796000000000016,2.7766800000000003,41.0,25.79,0,18.639999999999997,2552.0,30.0,9.7,-0.17,-1.02,0.08,0.8840000000000003,-3.167199999999999,-3.7443999999999957,0,1,1,100.0
18,13.0,1,20.0,1.0,6,2,10.1586,-0.02414,0.13342,2.73419,41.0,25.79,0,19.0,2552.0,30.0,9.674199999999999,-0.17,-1.02,0.08,0.7698,-3.4776,-5.1638,0,1,1,100.0
18,14.0,1,20.0,1.0,6,2,10.2008,-0.022920000000000003,0.04107999999999991,2.70892,41.0,25.7932,0,19.0,2552.0,30.0,9.517199999999999,-0.17,-1.01,0.08079999999999998,0.5604000000000001,-3.7876,-7.460399999999998,0,1,1,100.0
18,15.0,1,20.0,1.0,6,2,10.21,-0.022,0.0766,2.6368,41.0,25.83,0,19.0,2552.0,30.0,9.318999999999999,-0.167,-1.01,0.09,0.42,-3.703,-8.423,0,1,1,100.0
18,16.0,1,20.0,1.0,6,2,10.21,-0.022,0.04168000000000002,2.55772,41.0,25.809199999999997,0,19.0,2552.0,30.0,9.096,-0.16,-1.01,0.09,0.2980000000000001,-3.4192,-8.884,0,1,1,100.0
18,17.0,1,20.0,1.0,6,2,10.1878,-0.021260000000000005,0.025120000000000028,2.50496,41.0,25.819599999999998,0,19.0,2552.0,30.0,8.8446,-0.16,-1.01,0.09,0.1908000000000002,-2.9988000000000006,-8.943,0,1,1,100.0
18,18.0,1,20.0,1.0,6,2,10.151200000000001,-0.020040000000000002,0.04791999999999998,2.3893199999999997,41.0,25.83,0,19.0,2552.0,30.0,8.5884,-0.1504,-1.01,0.09,0.11240000000000004,-2.4968000000000004,-8.6996,0,1,1,100.0
18,19.0,1,20.0,1.0,6,2,10.1146,-0.02,-0.018849999999999898,2.34311,41.0,25.83,0,19.0,2552.0,30.0,8.4561,-0.15,-1.01,0.09,0.08640000000000005,-2.2263,-8.4776,0,1,1,100.0
18,20.0,1,20.0,1.0,6,2,10.065999999999999,-0.0196,-0.0252,2.2624,41.0,25.83,0,19.0,2552.0,30.0,8.286,-0.15,-1.01,0.09,0.066,-1.878,-8.158,0,1,1,100.0
18,21.0,1,20.0,1.0,6,2,9.9742,-0.019,0.04219999999999999,2.17942,41.0,25.848599999999998,0,19.0,2552.0,30.0,8.0422,-0.1438,-1.01,0.09,0.0662,-1.3658000000000006,-7.6024,0,1,1,100.0
18,22.0,1,20.0,1.0,6,2,9.7576,-0.018,-0.003399999999999807,2.1578,41.0,25.8552,0,19.0,2552.0,30.0,7.647200000000001,-0.14,-1.01,0.08160000000000002,0.17879999999999985,-0.5360000000000008,-6.536800000000001,0,1,1,100.0
18,23.0,1,20.0,1.0,6,2,9.622200000000001,-0.018,0.02401999999999994,2.1163600000000002,41.0,25.86,0,19.0,2552.0,30.0,7.451600000000001,-0.13,-1.02,0.08,0.2741999999999998,-0.15320000000000097,-5.9742000000000015,0,1,1,100.0
18,24.0,1,20.0,1.0,6,2,9.4664,-0.018,0.04251999999999996,2.1256399999999998,41.0,25.86,0,19.0,2552.0,30.0,7.283600000000001,-0.13,-1.0172,0.08,0.35679999999999973,0.17999999999999886,-5.460800000000002,0,1,1,100.0
18,25.0,1,20.0,1.0,6,2,9.31,-0.018,0.0415,2.1239999999999997,41.0,25.86,0,19.0,2552.0,30.0,7.130000000000001,-0.13,-1.01,0.08,0.41,0.47,-5.005,0,1,1,100.0
18,26.0,1,20.0,1.0,6,2,9.1464,-0.018,-0.03079999999999989,2.10652,41.0,25.86,0,19.0,2552.0,30.0,6.9836,-0.1228,-1.01,0.08,0.42,0.7239999999999998,-4.5924000000000005,0,1,1,100.0
18,27.0,1,20.0,1.0,6,2,9.0442,-0.018,-0.01652000000000009,2.10353,41.0,25.86,0,19.0,2552.0,30.0,6.8889000000000005,-0.12,-1.0147,0.08,0.4153,0.8645999999999998,-4.349600000000001,0,1,1,100.0
18,28.0,1,20.0,1.0,6,2,8.8092,-0.01784,0.022800000000000067,2.08804,41.0,25.8552,0,19.0,2552.0,30.0,6.6444,-0.12,-1.02,0.08,0.4675999999999996,1.1159999999999997,-3.7612000000000014,0,1,1,100.0
18,29.0,1,20.0,1.0,6,2,8.6506,-0.017379999999999996,-0.03085999999999956,2.11122,41.0,25.8414,0,19.0,2552.0,30.0,6.4454,-0.11620000000000004,-1.02,0.08,0.6359999999999991,1.2151999999999998,-3.1986000000000026,0,1,1,100.0
18,30.0,1,20.0,1.0,6,2,8.491999999999999,-0.018,-0.0712,2.1398,41.0,25.86,0,19.0,2552.0,30.0,6.2379999999999995,-0.11,-1.02,0.08,0.9580000000000001,1.228,-2.474,0,1,1,100.0
18,31.0,1,20.0,1.0,6,2,8.333400000000001,-0.018,-0.08259999999999997,2.17642,41.0,25.8354,0,19.0,2552.0,30.0,6.0306,-0.11,-1.0282,0.08,1.4425999999999997,1.1626,-1.554000000000001,0,1,1,100.0
18,32.0,1,20.0,1.0,6,2,8.1878,-0.01898,-0.050060000000000104,2.18824,41.0,25.830599999999997,0,19.0,2552.0,30.0,5.8368,-0.10980000000000001,-1.03,0.07,2.051599999999999,1.0480000000000003,-0.4590000000000012,0,1,1,100.0
18,33.0,1,20.0,1.0,6,2,8.1207,-0.01837,0.009109999999999839,2.16506,41.0,25.8489,0,19.0,2552.0,30.0,5.7392,-0.10370000000000001,-1.03,0.07,2.4053999999999993,0.9870000000000002,0.1814999999999981,0,1,1,100.0
18,34.0,1,20.0,1.0,6,2,7.922000000000001,-0.016520000000000007,0.1297999999999995,1.8848000000000016,41.0,25.86,0,19.0,2552.0,30.0,5.4236,-0.1,-1.04,0.07,3.4883999999999973,0.9631999999999996,2.388399999999994,0,1,1,100.0
18,35.0,1,20.0,1.0,6,2,7.8,-0.0139,0.1457,1.5278,41.0,25.887999999999998,0,19.0,2552.0,30.0,5.204000000000001,-0.093,-1.04,0.077,4.175,1.178,4.109,0,1,1,100.0
18,36.0,1,20.0,1.0,6,2,7.696400000000001,-0.010240000000000004,0.2025199999999999,1.1671600000000004,41.0,25.9,0,19.0,2552.0,30.0,4.9844,-0.09,-1.0492000000000001,0.08,4.8184,1.6271999999999995,6.058799999999999,0,1,1,100.0
18,37.0,1,20.0,1.0,6,2,7.6116,-0.007720000000000005,0.1772600000000002,0.8336000000000008,41.0,25.93,0,19.0,2552.0,30.0,4.7818000000000005,-0.09,-1.0514000000000001,0.08139999999999997,5.428599999999999,2.3435999999999986,8.289999999999996,0,1,1,100.0
18,38.0,1,20.0,1.1799999999999984,6,2,7.551,-0.0056400000000000035,0.11825999999999982,0.4790000000000004,41.0,25.93,0,19.18,2552.0,30.0,4.6574,-0.09,-1.06,0.09,5.939999999999999,3.1311999999999984,10.396999999999997,0,1,1,100.0
18,39.0,1,20.0,1.7899999999999978,6,2,7.5205,-0.004420000000000005,0.18352999999999975,0.32650000000000057,41.0,25.93,0,19.79,2552.0,30.0,4.6147,-0.09,-1.06,0.09,6.244999999999998,3.643599999999998,11.708499999999995,0,1,1,100.0
18,40.0,1,20.0,1.2,6,2,7.486000000000001,-0.0024000000000000002,0.1436,0.09639999999999999,41.0,25.93,0,18.4,2552.0,30.0,4.6,-0.09,-1.068,0.09,6.782,4.532,13.968,0,1,1,100.0
18,41.0,1,20.0,2.0,6,2,7.4706,0.0010399999999999977,0.08921999999999998,-0.3798199999999997,41.0,25.93,0,19.0,2552.0,30.0,4.895999999999999,-0.09019999999999999,-1.07,0.09019999999999999,8.174999999999999,6.557599999999999,19.084999999999997,0,1,1,100.0
18,42.0,1,20.0,2.0,6,2,7.512,0.0032399999999999977,0.0894400000000001,-0.6416799999999997,41.0,25.93,0,19.0,2552.0,30.0,5.2836,-0.1,-1.07,0.1,9.113999999999999,7.635999999999998,21.801199999999994,0,1,1,100.0
18,43.0,1,20.0,2.0,6,2,7.5868,0.004460000000000002,0.07394000000000009,-0.7598000000000001,41.0,25.93,0,19.0,2552.0,30.0,5.796200000000001,-0.10460000000000003,-1.0654000000000001,0.1,10.197000000000003,8.766200000000001,24.326200000000007,0,1,1,100.0
18,44.0,1,20.0,2.0,6,2,7.7048,0.005679999999999996,0.16163999999999956,-0.8689599999999996,41.0,25.93,0,19.0,2552.0,30.0,6.430799999999998,-0.11679999999999995,-1.06,0.1,11.410399999999996,10.031199999999995,26.573199999999993,0,1,1,100.0
18,45.0,1,20.0,2.0,6,2,7.857,0.0069,0.09939999999999999,-0.9558,41.0,25.93,0,19.0,2552.0,30.0,7.1770000000000005,-0.129,-1.0510000000000002,0.109,12.712,11.514000000000001,28.462,0,1,1,100.0
18,46.0,1,20.0,2.0,6,2,8.062799999999998,0.008119999999999994,0.07400000000000034,-1.0819199999999998,41.0,25.93,0,19.0,2552.0,30.0,8.044799999999995,-0.15119999999999992,-1.0388000000000002,0.11119999999999994,14.057199999999993,13.221199999999989,29.915599999999994,0,1,1,100.0
18,47.0,1,20.0,2.0,6,2,8.2691,0.009,0.031019999999999992,-1.12361,41.0,25.93,0,19.0,2552.0,30.0,8.8896,-0.16169999999999998,-1.0283,0.12169999999999999,15.1549,14.808399999999999,30.7852,0,1,1,100.0
18,48.0,1,20.0,2.0,6,2,8.4094,0.009,0.03467999999999997,-1.14374,41.0,25.93,0,19.0,2552.0,30.0,9.426399999999996,-0.16779999999999998,-1.0222,0.12779999999999997,15.746599999999995,15.735599999999993,31.1268,0,1,1,100.0
18,49.0,1,20.0,2.0,6,2,8.956199999999999,0.009,-0.021459999999999743,-1.21302,41.0,25.9,0,19.0,2552.0,30.0,11.398999999999996,-0.2055999999999999,-1.0022,0.13,17.188999999999997,18.386999999999993,31.415399999999998,0,1,1,100.0
18,50.0,1,20.0,2.0,6,2,9.35,0.009,-0.07,-1.2,41.0,25.93,0,19.0,2552.0,30.0,12.75,-0.22,-0.98,0.13,17.56,19.32,31.07,0,1,1,100.0
18,51.0,1,20.0,1.0,6,2,9.795799999999998,0.009,-0.031939999999999816,-1.2174600000000004,41.0,25.9,0,18.0,2552.0,30.0,14.183999999999992,-0.24439999999999987,-0.9678,0.13,17.342200000000002,19.211600000000004,30.363800000000005,0,1,1,100.0
18,52.0,1,20.0,1.0,6,2,10.280399999999998,0.009,-0.06663999999999994,-1.1466,41.0,25.9132,0,18.0,2552.0,30.0,15.652399999999997,-0.2688,-0.9556,0.12560000000000002,16.559600000000003,17.946,29.4536,0,1,1,100.0
18,53.0,1,20.0,1.0,6,2,10.800399999999996,0.008340000000000009,-0.0912599999999999,-1.0179600000000013,41.0,25.93,0,18.0,2552.0,30.0,17.115399999999987,-0.2931999999999998,-0.9434,0.11340000000000008,15.178800000000013,15.353800000000025,28.439000000000007,0,1,1,100.0
18,54.0,1,20.0,1.0,6,2,11.152399999999998,0.0075600000000000025,-0.07608000000000009,-0.9078400000000003,41.0,25.93,0,18.0,2552.0,30.0,18.0128,-0.30439999999999995,-0.9356,0.10560000000000003,13.977600000000004,12.913600000000008,27.7716,0,1,1,100.0
18,55.0,1,20.0,1.0,6,2,11.940000000000001,0.0059,-0.1432,-0.7019,41.0,25.93,0,18.0,2552.0,30.0,19.76,-0.332,-0.929,0.089,10.712,5.843999999999999,26.394,0,1,1,100.0
18,56.0,1,20.0,1.0,6,2,12.553199999999997,0.005,-0.015520000000000268,-0.5930400000000001,41.0,25.93,0,18.0,2552.0,30.0,20.809999999999995,-0.3531999999999999,-0.92,0.07680000000000008,7.725200000000018,-1.0731999999999573,25.486000000000004,0,1,1,100.0
18,57.0,1,20.0,1.0,6,2,13.1808,0.004460000000000002,0.020179999999999962,-0.6053199999999999,41.0,25.93,0,18.0,2552.0,30.0,21.6386,-0.36539999999999995,-0.92,0.06460000000000002,4.391000000000006,-9.072199999999984,24.664400000000004,0,1,1,100.0
18,58.0,1,20.0,1.0,6,2,13.822799999999994,0.004759999999999991,0.020400000000000088,-0.6411199999999999,41.0,25.93,0,18.0,2552.0,30.0,22.2444,-0.37759999999999994,-0.92,0.05240000000000009,0.7924000000000271,-17.914399999999933,23.914000000000005,0,1,1,100.0
18,59.0,1,20.0,1.0,6,2,14.479199999999997,0.005,0.00918000000000004,-0.6665399999999999,41.0,25.93,0,18.0,2552.0,30.0,22.6636,-0.3898,-0.92,0.05,-3.007199999999985,-27.314599999999963,23.182000000000006,0,1,1,100.0
18,60.0,1,20.0,1.0,6,2,14.706,0.0054,0.0298,-0.7022,41.0,25.93,0,18.0,2552.0,30.0,22.754,-0.39,-0.924,0.046,-4.358,-30.642,22.918,0,1,1,100.0
18,61.0,1,20.0,1.0,6,2,14.925599999999998,0.005806666666666665,0.05094666666666654,-0.7379866666666665,41.0,25.93,0,18.0,2552.0,30.0,22.839399999999998,-0.39,-0.9280666666666667,0.04193333333333336,-5.667466666666659,-33.866866666666645,22.6618,0,1,1,100.0
