gait_percent,walk_dt_ms_mean,walk_dt_ms_sd,walk_exec_ms_mean,walk_exec_ms_sd,walk_tilt_forward_deg_mean,walk_tilt_forward_deg_sd,walk_pos_rad_mean,walk_pos_rad_sd,walk_vel_rad_s_mean,walk_vel_rad_s_sd,walk_tq_nm_mean,walk_tq_nm_sd,walk_temp_c_mean,walk_temp_c_sd,walk_vbus_v_mean,walk_vbus_v_sd,walk_fb_age_ms_mean,walk_fb_age_ms_sd,walk_typical_stride_ms_mean,walk_typical_stride_ms_sd,walk_effective_step_count_mean,walk_effective_step_count_sd,walk_tilt_accel_deg_mean,walk_tilt_accel_deg_sd,walk_acc_x_mean,walk_acc_x_sd,walk_acc_y_mean,walk_acc_y_sd,walk_acc_z_mean,walk_acc_z_sd,walk_gyr_x_mean,walk_gyr_x_sd,walk_gyr_y_mean,walk_gyr_y_sd,walk_gyr_z_mean,walk_gyr_z_sd,cfg_assist_pct_mean,cfg_assist_pct_sd
0.0,20.0,0.0,0.09090909090909091,0.3015113445777636,0.4781818181818185,9.843959384497499,-0.004545454545454544,0.16847692045877596,-0.2130909090909091,1.9905580852889198,-0.8878181818181818,1.7093413244979376,40.72727272727273,1.4893561757289013,25.89272727272727,0.09675648909410767,12.909090909090908,8.287997893997627,3192.7272727272725,1077.1545006088115,6.636363636363637,3.9312269655344827,3.4045454545454543,9.342278484006311,-0.06727272727272728,0.16947512555480873,-1.0318181818181815,0.061614638166296476,0.015454545454545459,0.06105139414683933,-9.366363636363637,7.019762492744713,10.040909090909091,20.63096820536809,-0.7309090909090908,3.3907977071640665,100.0,0.0
1.0,20.0,0.0,0.0,0.0,-0.5059545454545454,10.297442728013944,-0.007532727272727269,0.1563569502191002,0.7592890909090909,1.6228743339670793,-0.6647245454545454,1.3155571871367937,40.54545454545455,1.5724907862137931,25.895418181818183,0.09827445057777535,24.290909090909096,21.639660558587998,3192.7272727272725,1077.1545006088115,6.636363636363637,3.9312269655344827,1.775363636363636,8.972512371267339,-0.034509090909090906,0.1622569225305685,-1.0359818181818181,0.05843072510557817,0.022145454545454548,0.05289883483851726,-8.880799999999999,7.101141351501179,7.014818181818183,22.739579477765993,4.142145454545455,9.996906374610461,100.0,0.0
2.0,20.0,0.0,0.14424242424242423,0.3080443363078002,-1.428254545454546,10.618084066286501,0.08041818181818182,0.16625364409950127,-0.9883209090909074,12.533095220028017,-0.019540909090909084,0.04131566396768795,40.54545454545455,1.5724907862137931,25.94511818181818,0.017299758274716463,14.627272727272727,17.019114601476247,3192.7272727272725,1077.1545006088115,6.636363636363637,3.9312269655344827,-0.41576969696969696,9.59809128608918,0.007806060606060607,0.17420778322845892,-1.0369272727272727,0.051820017192376416,0.02756666666666667,0.04688795391379563,-7.648093939393937,6.652427411033562,4.852545454545455,21.8675111010999,5.0735636363636365,16.380171423539664,100.0,0.0
3.0,20.0,0.0,0.37257575757575767,0.45009589326199495,-1.9890227272727274,10.761437291815708,0.07236,0.17525113487507007,-0.5287645454545454,1.2505285082685136,-0.008545454545454545,0.028342066390309777,40.54545454545455,1.5724907862137931,25.935745454545454,0.013323390231946173,10.378636363636362,16.6384314301122,3192.7272727272725,1077.1545006088115,6.636363636363637,3.9312269655344827,-1.819707575757576,10.516394302102693,0.03609848484848486,0.18977816354519259,-1.0327363636363636,0.050537491483596125,0.03326515151515152,0.05767346031973915,-7.1422606060606055,6.910259512232811,2.973713636363635,18.948589106238106,5.888281818181818,22.384105675314263,100.0,0.0
4.0,20.0,0.0,0.36363636363636365,0.504524979109513,-2.3431272727272727,10.704022842753178,0.05681818181818183,0.16816017137349626,-0.5214236363636363,1.4319152251671377,0.0,0.0,40.54545454545455,1.5724907862137931,25.937272727272727,0.016180796699117466,5.363636363636363,6.3130456559845545,3192.7272727272725,1077.1545006088115,6.636363636363637,3.9312269655344827,-2.3660727272727273,11.688795893255293,0.049800000000000004,0.20949949880608307,-1.0309272727272727,0.057906840544258535,0.03465454545454545,0.06888489476853926,-6.926490909090908,8.382457933262122,0.18769090909090866,16.86041925537171,6.686927272727274,26.71298053550337,100.0,0.0
5.0,20.0,0.0,0.22272727272727275,0.4070403151799809,-2.5460909090909096,10.451827091035762,0.04663636363636363,0.17062689133150888,-0.5403318181818182,0.47201891343076874,-0.21247727272727268,0.704707390114378,40.54545454545455,1.5724907862137931,25.918227272727275,0.07331826635851485,5.3136363636363635,6.335775047659557,3192.7272727272725,1077.1545006088115,6.636363636363637,3.9312269655344827,-2.668409090909091,12.400725222377483,0.05500000000000001,0.22303968256792334,-1.030590909090909,0.05440901496159356,0.030000000000000002,0.06793636728586538,-6.592045454545455,10.306013092982527,-3.325272727272727,19.363989243391504,8.381772727272725,28.68490527730886,100.0,0.0
6.0,20.0,0.0,0.23090909090909123,0.3832089389733636,-2.546736363636364,10.041478400541697,0.020518181818181807,0.150177325440173,-0.4959309090909088,0.6244680509754607,-0.31182272727272725,1.034198987468958,40.54545454545455,1.5724907862137931,25.913490909090907,0.08875766394566134,5.321818181818182,6.429274948517629,3192.7272727272725,1077.1545006088115,6.636363636363637,3.9312269655344827,-2.6423999999999994,11.788660275620805,0.05285454545454547,0.2152015072606898,-1.0317272727272728,0.03927584730872379,0.020809090909090906,0.05619162668130287,-4.858636363636363,11.24060180722302,-5.1437727272727285,19.329942988642827,12.321118181818184,27.963611219827033,100.0,0.0
7.0,20.0,0.0,0.2727272727272727,0.46709936649691375,-2.5054318181818185,9.693485667918242,0.006751545454545454,0.13876177735339343,-0.4954563636363638,0.5305902872372005,-0.26018636363636366,0.8629405437487883,40.54545454545455,1.5724907862137931,25.922196363636363,0.06025743560303944,5.363636363636363,6.3130456559845545,3192.7272727272725,1077.1545006088115,6.636363636363637,3.9312269655344827,-2.341684545454545,11.165818872300738,0.04518090909090908,0.20313934579271173,-1.0323136363636363,0.028634368256599388,0.01468272727272727,0.04691438033074913,-3.4795790909090907,11.421513024674494,-5.359901818181818,18.0732527678317,15.344568181818182,24.753086772383284,100.0,0.0
8.0,20.0,0.0,0.2727272727272727,0.46709936649691375,-2.3912545454545455,9.144030407688247,-0.007213818181818183,0.12849922143096287,-0.46581818181818196,0.3869348454150435,-0.21707272727272728,0.7199487885827839,40.54545454545455,1.5724907862137931,25.93085818181818,0.03737582689872746,5.363636363636363,6.576818794413105,3192.7272727272725,1077.1545006088115,6.636363636363637,3.9312269655344827,-1.6011381818181811,10.425329760330671,0.030469090909090904,0.1889172043755965,-1.0305454545454547,0.02682343615707594,0.007421818181818179,0.04451373312095534,-1.5828436363636358,10.392663247356063,-3.631407272727273,14.224635373849898,17.955327272727274,20.066354143445732,100.0,0.0
9.0,20.0,0.0,0.18181818181818182,0.40451991747794525,-2.013218181818182,8.794022805271565,-0.024204999999999997,0.12093371806489701,-0.5255181818181819,0.40638895404693726,-0.21992954545454546,0.7294237825861402,40.54545454545455,1.5724907862137931,25.931818181818183,0.038423477671387915,5.2727272727272725,6.634619945270551,3192.7272727272725,1077.1545006088115,6.636363636363637,3.9312269655344827,-0.5087818181818182,9.715848899614297,0.010936363636363636,0.17368181408960048,-1.0251454545454548,0.026635591363300515,0.002145454545454547,0.04148399965375479,-0.6350045454545453,9.673316365405778,-2.4724500000000003,10.841267423368912,19.26940454545454,17.99968874919028,100.0,0.0
10.0,20.0,0.0,0.09090909090909091,0.30151134457776363,-1.803969696969697,8.42200656673343,-0.04536818181818181,0.10808346375076826,-0.533339393939394,0.35502799852599476,-0.2204090909090909,0.7310142549287878,40.54545454545455,1.5724907862137931,25.934727272727272,0.03946920548754679,5.181818181818182,6.675600075171996,3192.7272727272725,1077.1545006088115,6.636363636363637,3.9312269655344827,0.39418181818181813,9.037761413294575,-0.0047272727272727275,0.15979429959112493,-1.020090909090909,0.020796415775101985,-0.003545454545454546,0.041639797397114306,-0.05959090909090917,8.992516757888698,-1.7176212121212122,7.384319601580285,21.754136363636363,15.330290835615138,100.0,0.0
11.0,20.0,0.0,0.09090909090909091,0.30151134457776363,-1.3762818181818182,8.136366239767995,-0.05732772727272726,0.10629186477251296,-0.5056781818181814,0.27980105691609464,-0.20800545454545435,0.7439446567637091,40.54545454545455,1.5724907862137931,25.9278,0.044243779223751244,6.636363636363637,7.593059031414509,3192.7272727272725,1077.1545006088115,6.636363636363637,3.9312269655344827,1.470513636363637,8.4139546654974,-0.024154545454545474,0.15014096285582001,-1.0159545454545453,0.017493505288327094,-0.0028136363636363636,0.044466156180341755,-0.17445000000000024,8.14087789286266,-0.390295454545454,4.700104929278416,21.440445454545454,14.25622105700621,100.0,0.0
12.0,20.0,0.0,0.1563636363636368,0.3534762432546989,-0.6859818181818178,8.022107939665007,-0.06399999999999997,0.09521458039607167,0.006034545454546573,1.5120972002114415,0.15242545454545506,1.203184293816735,40.54545454545455,1.5724907862137931,25.881066666666666,0.11583226186554804,8.156363636363636,8.219789866812013,3192.7272727272725,1077.1545006088115,6.636363636363637,3.9312269655344827,2.4792303030303042,7.683771676598738,-0.04303636363636366,0.13790468645210918,-1.0149454545454544,0.01197500427025926,-0.007636363636363638,0.04357961157989531,-0.8592787878787882,6.747074522113231,0.11456969696969722,3.017249901389399,20.97521818181818,13.947754329483882,100.0,0.0
13.0,20.0,0.0,0.14909090909090914,0.3413342803017168,0.01955000000000022,7.808010615931564,-0.06291886363636363,0.09053311799670077,-0.021937272727272927,0.8581769073109675,0.26734090909090913,1.374478897811491,40.54545454545455,1.5724907862137931,25.8897,0.11050635275856302,8.149090909090908,8.20953769044939,3192.7272727272725,1077.1545006088115,6.636363636363637,3.9312269655344827,3.2859068181818185,7.122313759692939,-0.05869772727272728,0.12742450336108113,-1.0150272727272727,0.0050008181148869894,-0.01108181818181818,0.04491331246260553,-1.3864909090909094,5.924139464167695,0.4147363636363636,2.0737101201820507,19.412020454545452,13.158354250156144,100.0,0.0
14.0,20.0,0.0,0.24272727272727287,0.42436048140916505,0.7485848484848492,7.530379155208051,-0.06561333333333332,0.08986072487775489,-0.09357090909090916,0.4663970596274067,0.25596454545454544,1.2653639906000458,40.54545454545455,1.5724907862137931,25.893990909090913,0.09068749036714419,9.489999999999997,8.659712466358219,3192.7272727272725,1077.1545006088115,6.636363636363637,3.9312269655344827,4.050887878787879,6.649718986214091,-0.07295151515151516,0.11934414882425472,-1.0160636363636364,0.006119194837112588,-0.013918181818181817,0.04836119969938336,-1.7902151515151532,5.608854496703574,0.4697212121212124,1.655812559123011,17.355709090909087,12.998971393264512,100.0,0.0
15.0,20.0,0.0,0.24318181818181817,0.41110991673318176,1.478090909090909,7.308045151811057,-0.05938181818181818,0.09230851334716444,0.05519999999999998,0.37034371214454287,0.5476136363636364,1.4292966007954593,40.54545454545455,1.5724907862137931,25.890113636363637,0.09650902572016036,9.51590909090909,8.686557666354899,3192.7272727272725,1077.1545006088115,6.636363636363637,3.9312269655344827,4.788681818181818,6.250723774182983,-0.08575,0.112019083195677,-1.0152272727272726,0.00658545228653142,-0.01740909090909091,0.048066655896691096,-2.2055454545454545,5.669455650477149,0.5144318181818183,1.4275082840867732,14.921681818181817,12.588390731191035,100.0,0.0
16.0,20.0,0.0,0.2836363636363635,0.46146013321353624,2.272069090909091,7.071216861255854,-0.05617963636363635,0.09506954869701731,-0.01808618181818193,0.3532768236558458,0.620401818181818,1.4274315073573105,40.54545454545455,1.5724907862137931,25.895963636363636,0.09563237184894309,9.834545454545456,8.478896583443346,3192.7272727272725,1077.1545006088115,6.636363636363637,3.9312269655344827,5.453767272727273,6.184253290461332,-0.0971381818181818,0.11126104276144295,-1.0125454545454544,0.006246337108476248,-0.020218181818181816,0.04863459300090458,-2.932167272727274,6.000126092990197,0.5592618181818184,1.5457439618631423,11.480814545454544,12.540237599883316,100.0,0.0
17.0,20.0,0.0,0.40181818181818224,0.48993506063187975,3.021233636363637,6.762059215153728,-0.05919427272727273,0.09880231678871795,-0.09636827272727251,0.24472751110330412,0.7291986363636365,1.4880993355990904,40.54545454545455,1.5724907862137931,25.88974545454545,0.11083555714333136,11.22,8.680576017753662,3192.7272727272725,1077.1545006088115,6.636363636363637,3.9312269655344827,6.105466363636364,6.362786684625335,-0.1078127272727273,0.11264059917196013,-1.0080045454545454,0.017471583422023547,-0.022863636363636364,0.0508816523459542,-3.0644390909090933,6.479758462767657,0.5240963636363638,1.6870300200486814,9.065224545454539,12.207813203544163,100.0,0.0
18.0,20.0,0.0,0.5954545454545455,0.6316227297424253,3.715612121212121,6.48535222756761,-0.06408363636363636,0.09917306481829906,-0.2003333333333334,0.4163665263069175,0.8285348484848485,1.7048605448849041,40.54545454545455,1.5724907862137931,25.86526060606061,0.12023415101670222,14.413636363636364,7.5921515695187125,3192.7272727272725,1077.1545006088115,6.636363636363637,3.9312269655344827,6.420460606060605,6.53875138435497,-0.11159090909090909,0.11424379593260595,-1.006030303030303,0.026365623470915735,-0.029472727272727275,0.05101813581284778,-2.775081818181819,6.436296017558264,0.3430818181818181,1.6899110644162205,6.557245454545455,12.093922638198379,100.0,0.0
19.0,20.0,0.0,0.5554545454545452,0.5116906025395356,4.331287878787879,6.12572894113695,-0.06964727272727272,0.09900575004421804,-0.24187666666666646,0.5485399170667115,1.0604665151515156,1.7989264017176798,40.54545454545455,1.5724907862137931,25.845680303030303,0.12243203802250206,14.373636363636365,7.558812436788298,3192.7272727272725,1077.1545006088115,6.636363636363637,3.9312269655344827,6.568798484848483,6.647908102505523,-0.1156818181818182,0.11473620891577183,-1.0058787878787878,0.03063669286158265,-0.03537272727272728,0.05199609775567953,-2.251459090909091,6.3467578184778,0.14901363636363588,1.590465770787116,5.360718181818182,11.74936720541308,100.0,0.0
20.0,20.0,0.0,0.6121212121212122,0.49154466899373606,4.890454545454546,5.892717291091375,-0.0750939393939394,0.10024998622131445,-0.14149090909090908,0.2905343093493278,1.1984636363636363,1.9455428179676373,40.54545454545455,1.5724907862137931,25.827272727272724,0.13859371624218172,15.521212121212123,6.579889778328319,3192.7272727272725,1077.1545006088115,6.636363636363637,3.9312269655344827,6.687,6.6460938753526495,-0.11727272727272728,0.11377969142961403,-1.0069090909090908,0.03350658008646823,-0.03936363636363637,0.05246002807332976,-1.3840606060606062,5.499206279734441,-0.29421212121212115,1.9724059322604366,5.203424242424242,12.765507574964055,100.0,0.0
21.0,20.0,0.0,0.6609090909090908,0.47624478045338303,5.344521212121212,5.637908724617325,-0.07109363636363637,0.08126038549289898,0.31592181818181847,1.9396799500502455,1.9897127272727273,2.2175035189784515,40.54545454545455,1.5724907862137931,25.71904545454545,0.34065378425502996,15.842727272727272,6.6398856780958075,3192.7272727272725,1077.1545006088115,6.636363636363637,3.9312269655344827,6.5956787878787875,6.512779369909298,-0.11637727272727273,0.11333755194911431,-1.0114181818181815,0.028897433041078887,-0.04285151515151515,0.05241821431448416,-0.02263333333333288,4.721901104398758,-0.6039469696969699,2.14388063324454,5.652995454545455,12.89586814146749,100.0,0.0
22.0,20.0,0.0,0.6363636363636364,0.504524979109513,5.677130303030302,5.506908676813851,-0.06967757575757576,0.07881347996787393,-0.28348727272727253,0.8082226974483626,2.3605151515151515,3.1754782714868712,40.54545454545455,1.5724907862137931,25.648939393939393,0.5075898348115728,16.064242424242423,6.183208281019223,3192.7272727272725,1077.1545006088115,6.636363636363637,3.9312269655344827,6.6686181818181804,6.238408698028397,-0.11843030303030305,0.10878927383253414,-1.0131636363636363,0.023361133222824314,-0.04321818181818182,0.050853865500703435,1.1533727272727283,4.950718855295846,-0.715542424242424,2.555442337534667,5.571330303030308,13.807059782689711,100.0,0.0
23.0,20.0,0.0,0.7272727272727273,0.46709936649691375,5.956827272727273,5.388102241504336,-0.07494984848484851,0.08359812539915312,-0.30154666666666635,0.6469737411239254,2.575026818181818,3.1136101347514455,40.54545454545455,1.5724907862137931,25.634056060606063,0.4793641350947639,16.956969696969697,5.395834906984677,3192.7272727272725,1077.1545006088115,6.636363636363637,3.9312269655344827,6.567313636363636,6.125928651155306,-0.11635303030303032,0.10802412354505252,-1.0152181818181818,0.019913466206656166,-0.045036363636363645,0.05415199484279915,2.6259681818181835,4.621921787539935,-1.084374242424243,2.8074456316726737,6.356419696969703,14.544113749518546,100.0,0.0
24.0,20.0,0.0,0.7272727272727273,0.46709936649691375,6.248787878787879,5.116757678740463,-0.06936,0.0831342451700862,0.010789090909091425,0.1951155197033051,3.137844848484848,2.8378488816035614,40.54545454545455,1.5724907862137931,25.59375757575758,0.45942087145809224,17.181818181818183,5.381787469199835,3192.7272727272725,1077.1545006088115,6.636363636363637,3.9312269655344827,6.8436,5.91438577030616,-0.1222,0.10493415078038228,-1.0180181818181817,0.019916315833096165,-0.04299999999999999,0.055088365377818214,4.512654545454547,4.927949507120304,-1.6411454545454547,2.6316972137248746,8.212660606060611,15.02701135139888,100.0,0.0
25.0,20.0,0.0,0.7499999999999996,0.43301270189221996,6.60344696969697,5.044964968256404,-0.07001515151515152,0.082297316837099,0.009617424242424212,0.11246640982820806,3.298647727272727,2.632652345317706,40.54545454545455,1.5724907862137931,25.605000000000004,0.4185630179554807,17.204545454545453,5.386114301862454,3192.7272727272725,1077.1545006088115,6.636363636363637,3.9312269655344827,7.447992424242423,5.604192437419625,-0.1334848484848485,0.09958372955417565,-1.0169318181818179,0.01726053696626026,-0.04,0.05604685539796145,6.357386363636365,5.075102168138633,-2.289734848484848,2.6228961693184214,9.197689393939399,16.162218990170793,100.0,0.0
26.0,20.0,0.0,0.8036363636363639,0.35438038115202464,6.8977272727272725,4.884329305051187,-0.06892363636363637,0.08276025269085725,-0.002709999999999964,0.15370563522525763,3.177378181818182,2.524254634116052,40.50545454545455,1.5080872894919821,25.62011818181818,0.3708515789859376,18.06181818181818,2.589786934023027,3192.7272727272725,1077.1545006088115,6.636363636363637,3.9312269655344827,8.030627272727275,5.373891253103454,-0.1412909090909091,0.09526842556214997,-1.0114454545454543,0.016079637037965992,-0.03212727272727272,0.056475784030132606,7.321309090909091,5.767863136457824,-2.440163636363636,2.776425933560169,8.17979090909091,14.929613890215283,100.0,0.0
27.0,20.0,0.0,0.9127272727272725,0.5327117590046409,7.203654545454544,4.822556065742239,-0.061667272727272744,0.07111283106316457,0.4796100000000004,1.4848475155651522,3.499109090909091,2.439070375563012,40.45090909090909,1.438231236939697,25.550513636363636,0.3880769370182346,18.82181818181818,0.3965304069505437,3192.7272727272725,1077.1545006088115,6.636363636363637,3.9312269655344827,8.634945454545456,5.164536386959364,-0.15389545454545456,0.0913365711381412,-1.0066045454545454,0.014444660856964693,-0.023936363636363634,0.05220138451664424,7.800040909090909,6.251548417984867,-2.466431818181818,2.42568869831567,6.4605999999999995,13.286616758960871,100.0,0.0
28.0,20.0,0.0,0.8581818181818185,0.33050924894223965,7.446172727272728,4.8125257073788,-0.05432727272727274,0.06443542582941608,0.1602218181818188,0.4364395785402209,3.6447618181818173,2.9362548224628524,40.36363636363637,1.433368568981982,25.512290909090908,0.47702008648388167,18.767272727272726,0.4144657020572605,3192.7272727272725,1077.1545006088115,6.636363636363637,3.9312269655344827,8.878509090909093,4.8073922780348495,-0.1561545454545455,0.08440691160842655,-1.0046545454545452,0.014218042315056165,-0.01729090909090907,0.048920618445507304,7.555236363636363,6.403852144338239,-2.344909090909091,2.060516914492354,4.4619909090909085,11.85059844045477,100.0,0.0
29.0,20.0,0.0,0.7718181818181826,0.4107753201402966,7.661740151515151,4.74103732078402,-0.050659696969696945,0.05932754695482326,0.1726407575757599,0.41423933829730114,3.76735878787879,3.2248904761510095,40.36909090909091,1.4235550888213273,25.458468181818183,0.5574682924941678,18.680909090909093,0.4626111660013089,3192.7272727272725,1077.1545006088115,6.636363636363637,3.9312269655344827,9.014963636363635,4.73092985474795,-0.15874318181818187,0.08259891652657218,-1.004590909090909,0.015203055912904814,-0.011950000000000006,0.0465866236166563,7.011540909090908,6.297731138466386,-2.251389393939394,2.385589808881102,2.701500757575757,10.615349671741372,100.0,0.0
30.0,20.0,0.0,0.8181818181818182,0.40451991747794525,8.061045454545456,4.52103714016234,-0.041127272727272735,0.03459566709601337,0.32129545454545455,1.0371048246090038,4.151463636363636,3.0566395532586856,40.45454545454545,1.2933395813657265,25.41772727272727,0.5627656867487728,18.727272727272727,0.46709936649691375,3192.7272727272725,1077.1545006088115,6.636363636363637,3.9312269655344827,9.167772727272727,4.55934171434669,-0.1621818181818182,0.08018580695087901,-1.0034545454545454,0.015423123136146185,-0.007545454545454546,0.0437752524524157,6.177181818181818,5.869973097352012,-2.169090909090909,2.72368762726365,0.27504545454545454,9.263957600438772,100.0,0.0
31.0,20.0,0.0,0.9199999999999999,0.26532998322843226,8.418036363636363,4.414565337442119,-0.037174090909090914,0.02348955329696393,0.045314090909090894,0.14072037064366655,4.409441363636363,2.7096611897763996,40.46545454545455,1.2896229188128103,25.428445454545454,0.523225812367158,18.829090909090908,0.38119429548340733,3192.7272727272725,1077.1545006088115,6.636363636363637,3.9312269655344827,9.256004545454546,4.414761329588189,-0.16241818181818182,0.07701011385762026,-1.0054681818181819,0.014351659707630924,-0.004859090909090909,0.039589675536570244,5.177236363636363,5.567815445625462,-3.7057954545454552,4.289573660077104,-2.5173954545454555,8.184882357201431,100.0,0.0
32.0,20.0,0.0,1.0,0.0,8.635969696969697,4.373999760947373,-0.036171515151515156,0.02119744179343014,0.055816363636363636,0.07581280779297477,4.347352727272728,2.4974996564608007,40.48727272727273,1.2852166425088878,25.46328484848485,0.46519622152942286,18.90909090909091,0.30151134457776363,3192.7272727272725,1077.1545006088115,6.636363636363637,3.9312269655344827,9.23747272727273,3.8485581406783784,-0.16394545454545456,0.06866324145620223,-1.010418181818182,0.014950706885081943,-0.0057272727272727275,0.03762300070194005,4.421787878787876,5.282196976664428,-6.167284848484849,8.874845434552196,-3.3913393939393965,7.690497669574928,100.0,0.0
33.0,20.0,0.0,1.0,0.0,8.820863636363638,4.326839031272766,-0.03506000000000001,0.019197657669622097,0.04881818181818189,0.06690081342079202,4.191413181818183,2.296067927947987,40.54545454545455,1.2933395813657267,25.510809090909085,0.38931944583990397,18.90909090909091,0.30151134457776363,3192.7272727272725,1077.1545006088115,6.636363636363637,3.9312269655344827,9.438668181818182,3.4129937191762254,-0.16841818181818183,0.061143418585843205,-1.0119,0.015969470874139816,-0.004963636363636377,0.04084233765903397,3.655604545454544,4.771326344343604,-8.877581818181822,16.422573037244696,-3.173427272727274,7.513282148980021,100.0,0.0
34.0,20.0,0.0,1.0,0.0,8.909663636363636,4.260913047756954,-0.034306060606060604,0.01794838982677102,-0.0002548484848486859,0.15582578973088032,4.146727272727273,2.114676314413584,40.54545454545455,1.2933395813657267,25.528509090909093,0.36910954865607315,18.90909090909091,0.30151134457776363,3192.7272727272725,1077.1545006088115,6.636363636363637,3.9312269655344827,9.163903030303029,3.071024493460503,-0.16321818181818182,0.054308780472071314,-1.014072727272727,0.011533350849522523,-0.00330303030303029,0.043737239293422485,2.840709090909089,4.88957427951648,-10.959909090909093,21.861485272023703,-2.1093636363636366,7.777138846037497,100.0,0.0
35.0,20.0,0.0,1.059090909090909,0.32925535820862645,8.991768181818182,4.202229300756488,-0.03362575757575757,0.01710047654247676,0.0647530303030303,0.06817096352316555,4.011710909090909,2.0602569423761423,40.54545454545455,1.2933395813657267,25.548363636363636,0.34968851074271007,18.96818181818182,0.45949577107560385,3192.7272727272725,1077.1545006088115,6.636363636363637,3.9312269655344827,8.802215151515153,2.8019013525090277,-0.15636818181818182,0.050385723537165125,-1.0130227272727272,0.01201585127313842,-0.001569696969696971,0.0474221829352407,1.9928454545454548,4.432506854222255,-11.720363636363636,25.019507013619304,-1.5319500000000004,7.556205537338169,100.0,0.0
36.0,20.0,0.0,1.0400000000000003,0.39069169430639283,9.045574545454544,4.032410848602518,-0.03232,0.016245575397627502,0.03759636363636375,0.0624963728983896,3.8859120000000003,1.9671792507730452,40.54545454545455,1.2933395813657267,25.572072727272726,0.3058647972255355,18.85818181818182,0.5479747837595842,3192.7272727272725,1077.1545006088115,6.636363636363637,3.9312269655344827,7.703665454545453,3.7755655990496675,-0.13480727272727275,0.06731262423808912,-1.0129090909090908,0.012372991113344799,0.0022218181818181746,0.04517741511378929,1.506389090909091,4.837195497693792,-10.221545454545456,22.149139005946196,-1.579447272727274,5.538580967195642,100.0,0.0
37.0,20.0,0.0,1.1818181818181819,0.40451991747794525,9.055708181818181,3.8392536972875817,-0.03150000000000001,0.015700699506709884,0.0392827272727272,0.06670639067449374,3.7589539999999997,1.8938928873164924,40.54545454545455,1.2933395813657267,25.59437727272727,0.2814041394184139,19.0,0.4472135954999579,3192.7272727272725,1077.1545006088115,6.636363636363637,3.9312269655344827,7.316539999999998,4.380964222634099,-0.1312009090909091,0.07825998472457625,-1.014,0.008685735432305096,0.005170909090909093,0.045871901084333845,1.0494827272727276,4.907984501715732,-8.597704545454546,18.768350616562643,-1.2759172727272736,4.954199826418169,100.0,0.0
38.0,20.0,0.0,1.1818181818181819,0.40451991747794525,9.068451515151516,3.6679831653364934,-0.030449090909090905,0.015983675080872645,0.018534242424242293,0.08267858121250711,3.6432727272727274,1.9193960555762895,40.54545454545455,1.2933395813657267,25.610727272727274,0.2768735635300302,19.0,0.4472135954999579,3192.7272727272725,1077.1545006088115,6.636363636363637,3.9312269655344827,7.22240909090909,4.404210912854775,-0.129230303030303,0.07831753805934381,-1.0168181818181816,0.008396763445735313,0.006,0.04880991702512923,0.8543272727272732,4.986027772102942,-6.565881818181817,14.620192188464431,-1.1212999999999993,4.749534385389791,100.0,0.0
39.0,20.0,0.0,1.1818181818181819,0.40451991747794525,8.922069696969697,3.3928397885745123,-0.02991515151515151,0.015572902916685935,0.010021363636363788,0.06296466898550748,3.5838990909090906,1.9150717853553405,40.623636363636365,1.4107251520212754,25.62247727272727,0.24120671151901588,19.0,0.4472135954999579,3192.7272727272725,1077.1545006088115,6.636363636363637,3.9312269655344827,7.224340909090909,3.937302858481817,-0.1290090909090909,0.06985084759035433,-1.0155818181818181,0.010154980864759735,0.00909090909090909,0.05629467922540201,1.1415454545454558,4.761739745012034,-3.7767409090909068,9.19250842890062,-0.5007287878787886,4.581906551747808,100.0,0.0
40.0,20.0,0.0,1.1818181818181819,0.40451991747794525,8.855969696969698,3.2762928862920173,-0.03020606060606061,0.01577378146856935,-0.01985151515151515,0.05901226494671607,3.6276242424242424,1.9283890601622733,40.63636363636363,1.433368568981982,25.611757575757576,0.24228821638284292,18.963636363636365,0.3668043818514914,3192.7272727272725,1077.1545006088115,6.636363636363637,3.9312269655344827,7.260212121212121,3.696070412607083,-0.12942424242424244,0.06615639566110511,-1.0164848484848485,0.009160741886943,0.009727272727272727,0.05469162401477705,1.548787878787879,4.640070162957853,-2.675090909090909,6.67653416758344,-0.14242424242424256,4.9950169749259095,100.0,0.0
41.0,20.0,0.0,1.1818181818181819,0.40451991747794525,8.778156060606058,3.2066798337591127,-0.029893181818181822,0.015858418942745724,-0.019431212121212158,0.053997315190926695,3.6047287878787886,1.933908993302898,40.63636363636363,1.433368568981982,25.614819696969697,0.23349061851462707,18.90909090909091,0.30151134457776363,3192.7272727272725,1077.1545006088115,6.636363636363637,3.9312269655344827,7.422463636363636,3.445135821712325,-0.13192121212121213,0.06101531187192509,-1.0177651515151513,0.010767436645701338,0.00467121212121212,0.05512777989509115,1.983316666666667,4.047358315006908,-1.4621272727272732,4.030263528627106,0.38157878787878713,5.373348948292503,100.0,0.0
42.0,20.0,0.0,1.241818181818182,0.4174642064133931,8.660354545454545,3.1162220316799107,-0.030040303030303025,0.016278428292583032,-0.021643030303030292,0.06941108187945769,3.6254039393939395,2.024585294384352,40.63636363636363,1.433368568981982,25.611709090909095,0.2363512870899809,18.96909090909091,0.37087611261591313,3192.7272727272725,1077.1545006088115,6.636363636363637,3.9312269655344827,7.490012121212121,3.3782915566327554,-0.1329818181818182,0.059768918648103686,-1.0172727272727273,0.011037127426019056,0.0054545454545454584,0.054288790070075484,2.459233333333334,3.488632744436645,-1.1799636363636372,3.15962871466656,1.1148818181818185,5.24421426465742,100.0,0.0
43.0,20.0,0.0,1.3554545454545452,0.49378869238498396,8.57325606060606,3.0940165211642574,-0.030381363636363637,0.01724033759688439,-0.012754696969696964,0.04060538519853291,3.662256363636364,2.11374471837448,40.63636363636363,1.433368568981982,25.603490909090908,0.24103925180163216,19.082727272727272,0.5246730583723712,3192.7272727272725,1077.1545006088115,6.636363636363637,3.9312269655344827,7.5686136363636365,3.4134082660298652,-0.13456818181818184,0.05939834287556881,-1.0160363636363634,0.010545830714293955,0.0063636363636363664,0.05371642714714509,2.8224484848484854,3.1632397075840406,-1.1673030303030307,3.293522894020071,1.7122924242424247,5.292968851826836,100.0,0.0
44.0,20.0,0.0,1.4545454545454546,0.5222329678670935,8.473369696969696,3.1101766859940625,-0.03010909090909091,0.01738604581527695,0.0049709090909088195,0.06518602326489124,3.6393612121212127,2.1196623619221753,40.65090909090909,1.415806869212427,25.601109090909087,0.24195327422684454,19.181818181818183,0.6030226891555273,3192.7272727272725,1077.1545006088115,6.636363636363637,3.9312269655344827,7.771678787878788,3.4563436810618473,-0.13860000000000003,0.06106684861690506,-1.0148727272727271,0.010600857598240894,0.005709090909090908,0.052575002701767966,3.089733333333333,2.2541643550450243,-1.250066666666668,3.894161748509631,2.247018181818182,5.205146653422587,100.0,0.0
45.0,20.0,0.0,1.5431818181818182,0.5201070693966423,8.391946969696967,3.0930818735959247,-0.030063636363636362,0.01705852193053506,-0.018964393939394027,0.03704673664045286,3.60470303030303,2.0917683715189694,40.72727272727273,1.348399724926484,25.602545454545453,0.2355947213484895,19.179545454545455,0.5996684690120642,3192.7272727272725,1077.1545006088115,6.636363636363637,3.9312269655344827,7.879878787878789,3.534415773144056,-0.14104545454545458,0.06258372573818793,-1.0134848484848484,0.01132412727700721,0.0072727272727272745,0.053120788603127696,3.1985227272727283,1.9638682124016926,-1.7837424242424242,5.366538314776544,2.5561666666666665,5.090327799284313,100.0,0.0
46.0,20.0,0.0,1.541818181818183,0.482531204831732,8.371399999999998,3.1465459119485284,-0.029498181818181823,0.016703433071187383,0.03671696969696994,0.06304541152489566,3.5297206060606054,2.0204833844678625,40.72727272727273,1.348399724926484,25.61730909090909,0.2231063668053661,19.08727272727273,0.3276916510712756,3192.7272727272725,1077.1545006088115,6.636363636363637,3.9312269655344827,7.93280606060606,3.627016967574139,-0.14209090909090907,0.0641567682251133,-1.0141939393939394,0.010381541505980914,0.00992727272727273,0.05130522567749003,3.1620363636363633,1.7558040250966078,-2.196527272727275,6.532171708871551,2.8121878787878796,5.058712525167133,100.0,0.0
47.0,20.0,0.0,1.6540909090909097,0.4481228524736167,8.36539090909091,3.1893719923221706,-0.028855909090909092,0.016237462828007,0.04087045454545449,0.08487344665602256,3.452417727272727,1.9783025583822658,40.72727272727273,1.348399724926484,25.626477272727275,0.2105376348347678,19.199545454545458,0.45894691711272323,3192.7272727272725,1077.1545006088115,6.636363636363637,3.9312269655344827,8.033722727272727,3.7789591914549456,-0.14353181818181818,0.06689102807076323,-1.013772727272727,0.013577469639744448,0.014031818181818183,0.05040348337529496,3.079227272727273,2.362928646548985,-2.511245454545455,7.559512391465953,3.062145454545455,5.092908774436007,100.0,0.0
48.0,20.0,0.0,1.641818181818181,0.4506399490018211,8.387242424242425,3.2627953207535576,-0.0282169696969697,0.015737425276818137,0.024476969696969622,0.06438498971817952,3.379557575757576,1.9117148010127751,40.72727272727273,1.348399724926484,25.64229090909091,0.20786944679074518,19.187272727272727,0.5635794692692572,3192.7272727272725,1077.1545006088115,6.636363636363637,3.9312269655344827,8.0906,3.8319378961564605,-0.14458181818181817,0.06870624161139682,-1.0136363636363634,0.013618169680781106,0.01625454545454547,0.05103638630695484,2.907612121212122,3.0729036902604294,-2.484254545454546,7.972517445369893,3.3495939393939427,5.152388449939573,100.0,0.0
49.0,20.0,0.0,1.5454545454545454,0.5222329678670935,8.38668787878788,3.324217611827305,-0.028320151515151517,0.01587948551598966,-0.01676166666666652,0.08479678109391246,3.420417575757576,1.9314730708536896,40.72727272727273,1.348399724926484,25.63501818181818,0.20947571610180382,19.09090909090909,0.5393598899705937,3192.7272727272725,1077.1545006088115,6.636363636363637,3.9312269655344827,8.14235909090909,3.9006326574555943,-0.14447272727272728,0.06938227570365633,-1.0138727272727273,0.01347264568739868,0.017563636363636382,0.047665800585477903,2.911607575757576,3.9252015824623134,-2.3117454545454548,7.816328481885038,3.8051348484848515,5.384183897586082,100.0,0.0
50.0,20.0,0.0,1.5,0.5916079783099616,8.433636363636364,3.3789682899585567,-0.028568181818181822,0.015791647677289293,-0.0031136363636363306,0.06896660094172073,3.447659090909091,1.933850828892728,40.72727272727273,1.348399724926484,25.639318181818183,0.21953954913947424,18.954545454545453,0.47193990372426947,3192.7272727272725,1077.1545006088115,6.636363636363637,3.9312269655344827,8.24,3.921498916230884,-0.14772727272727276,0.07061740707373913,-1.0136363636363637,0.013618169680781106,0.020000000000000004,0.04652956049652737,2.9793181818181824,4.346972522760681,-2.057727272727274,7.352610459434244,4.3513636363636365,5.7326281454970935,100.0,0.0
51.0,20.0,0.0,1.5454545454545454,0.5222329678670935,8.526707575757575,3.452922436762514,-0.028128181818181816,0.015246293856660261,0.002665151515151562,0.06574930689307074,3.3683716666666665,1.8482130342204122,40.72727272727273,1.348399724926484,25.653681818181816,0.21346316341786833,19.0,0.4472135954999579,3192.7272727272725,1077.1545006088115,6.636363636363637,3.9312269655344827,8.363984848484849,3.9473896343902912,-0.14949545454545457,0.06979412745548673,-1.0148363636363635,0.013163397944852452,0.020472727272727264,0.04540548625241428,3.0254863636363636,4.5478283799573465,-1.827248484848486,6.157921305956952,4.918136363636365,6.101474946440858,100.0,0.0
52.0,20.0,0.0,1.458181818181818,0.5188799125388878,8.652690909090909,3.56200533336337,-0.027258181818181817,0.014584634255394833,0.02559090909090903,0.06195185767263899,3.2596709090909086,1.7644595798909906,40.72727272727273,1.348399724926484,25.663036363636362,0.20287041811327433,18.91272727272727,0.5401683239341402,3192.7272727272725,1077.1545006088115,6.636363636363637,3.9312269655344827,8.610654545454546,4.006316412956829,-0.1539090909090909,0.07099156928178803,-1.0142727272727272,0.013451029024508936,0.022436363636363643,0.044040146973580205,3.0879090909090916,4.527908010870924,-1.5328181818181816,5.448884109213222,5.430618181818183,6.7654412092365686,100.0,0.0
53.0,20.0,0.0,1.4545454545454546,0.5222329678670935,8.767727272727273,3.6232910079348883,-0.026546363636363635,0.014334974204878972,0.03733590909090941,0.06107671564590642,3.1754327272727276,1.7340219526398215,40.72727272727273,1.348399724926484,25.678336363636358,0.20187027652790931,18.90909090909091,0.7006490497453707,3192.7272727272725,1077.1545006088115,6.636363636363637,3.9312269655344827,8.917272727272728,4.089158859922396,-0.1585954545454546,0.07197330913104336,-1.0113636363636362,0.013081610965570905,0.02188181818181818,0.043837810579038225,2.92675909090909,4.360220410530767,-1.8042409090909075,6.474133940953732,5.5973000000000015,7.0654925764591985,100.0,0.0
54.0,20.0,0.0,1.4545454545454546,0.5222329678670935,8.926636363636364,3.7029908804596965,-0.02549030303030303,0.013852766547159489,0.027126666666666646,0.07171257481548599,3.0492878787878794,1.70937340870551,40.81818181818182,1.4012980994907414,25.693745454545454,0.18848117340273662,18.90909090909091,0.7006490497453707,3192.7272727272725,1077.1545006088115,6.636363636363637,3.9312269655344827,9.278548484848487,4.290353393249757,-0.16434545454545454,0.07609152861700656,-1.009042424242424,0.014358405133572422,0.022342424242424264,0.041985860294228385,2.7724606060606054,4.174736742247433,-2.027787878787879,8.300784207012853,5.41272727272727,7.006804803361089,100.0,0.0
55.0,20.0,0.0,1.4545454545454546,0.5222329678670935,9.083030303030304,3.745325072353668,-0.02521969696969697,0.014155879850558013,0.028966666666666644,0.04711702555576085,3.0108462121212125,1.7269070470278634,40.81818181818182,1.4012980994907414,25.695000000000004,0.18155787644715357,18.90909090909091,0.7006490497453707,3192.7272727272725,1077.1545006088115,6.636363636363637,3.9312269655344827,9.518257575757575,4.558936282708718,-0.16727272727272727,0.08001230019077181,-1.0077575757575756,0.017091804994786203,0.027030303030303036,0.03880047380737467,2.5406212121212124,3.8353929686690726,-1.9914696969696968,8.839282089632677,4.780378787878788,6.663153936258925,100.0,0.0
56.0,20.0,0.0,1.4545454545454546,0.5222329678670935,9.238042424242424,3.805931698607405,-0.024630909090909092,0.01408522449558079,0.011970909090908881,0.034151910474978245,2.945261818181818,1.6973712785941568,40.81818181818182,1.4012980994907414,25.708957575757573,0.17639883918168645,18.818181818181817,0.6030226891555273,3192.7272727272725,1077.1545006088115,6.636363636363637,3.9312269655344827,9.620096969696972,4.845151728422377,-0.17110303030303034,0.08436800006129952,-1.0089090909090908,0.02141781756134155,0.028181818181818218,0.04102852222982978,2.5874606060606054,3.383071888546075,-1.7919151515151506,8.402723192504828,4.533260606060605,5.919921968664,100.0,0.0
57.0,20.0,0.0,1.4545454545454546,0.5222329678670935,9.452799999999998,3.975885301728409,-0.023802272727272724,0.01342814457839138,0.03148803030303034,0.08178148565543492,2.832350757575757,1.6021801769509714,40.871818181818185,1.5009118440589246,25.725345454545458,0.16691021906184336,18.818181818181817,0.6030226891555273,3192.7272727272725,1077.1545006088115,6.636363636363637,3.9312269655344827,9.751642424242425,5.143896034035355,-0.17333636363636362,0.08945973700751945,-1.008181818181818,0.024420557658735752,0.02765909090909091,0.04172263665075482,2.6124060606060606,2.972571984506129,-1.4933530303030296,7.824937387338485,4.542649999999999,5.24094283612214,100.0,0.0
58.0,20.0,0.0,1.3636363636363635,0.504524979109513,9.629139393939395,4.123232141545115,-0.02299,0.012346819023538003,0.01423242424242392,0.06696511343960983,2.717571212121212,1.4812116641574764,40.90909090909091,1.5782614139961386,25.733181818181812,0.15678975615888716,18.727272727272727,0.46709936649691375,3192.7272727272725,1077.1545006088115,6.636363636363637,3.9312269655344827,9.78970303030303,5.291463653354115,-0.17450909090909095,0.09156660367781974,-1.0099999999999998,0.024494897427831803,0.030000000000000002,0.044497190922573975,2.9054272727272714,2.731458575959341,-1.193848484848485,6.7662791557245034,5.00012121212121,5.199015104576649,100.0,0.0
59.0,20.0,0.0,1.4236363636363638,0.5604868014016514,9.811181818181819,4.263864428618288,-0.021645454545454548,0.011373304149310665,0.03206909090909095,0.07033701805657468,2.566281818181818,1.379184309675963,41.0,1.61245154965971,25.756399999999996,0.14597829290685568,18.787272727272725,0.6014830157051969,3192.7272727272725,1077.1545006088115,6.636363636363637,3.9312269655344827,9.850381818181818,5.291539378634195,-0.17576363636363634,0.09139482778283761,-1.0118181818181817,0.02377973162934429,0.030909090909090907,0.042533409328325764,3.060572727272726,3.194638942068701,-1.0541545454545453,6.547599251995136,5.788118181818183,6.033223672269774,100.0,0.0
60.0,20.0,0.0,1.4545454545454546,0.5222329678670935,9.972181818181818,4.390974694032791,-0.020672727272727273,0.010913119710613543,0.02204545454545455,0.04742900723473692,2.448536363636364,1.3257309005018532,41.0,1.61245154965971,25.77509090909091,0.1389370033831549,18.818181818181817,0.6030226891555273,3192.7272727272725,1077.1545006088115,6.636363636363637,3.9312269655344827,9.952272727272726,5.259067618711687,-0.1768181818181818,0.09207477198648735,-1.0128181818181816,0.025545325137168205,0.030909090909090907,0.04324223524623708,3.2359999999999998,3.70730122865677,-0.8655454545454545,6.4655879912601355,6.6673636363636355,7.12238126293064,100.0,0.0
61.0,20.0,0.0,1.4545454545454546,0.5222329678670935,10.146642424242424,4.527393595800787,-0.019625454545454543,0.010922912948143787,0.07138863636363611,0.057137620622971015,2.3138510606060603,1.309554298035165,40.985454545454544,1.6032240244979088,25.78549090909091,0.1410134493907964,18.818181818181817,0.6030226891555273,3192.7272727272725,1077.1545006088115,6.636363636363637,3.9312269655344827,10.059478787878787,5.174003128569744,-0.18050454545454542,0.08994673550092147,-1.015190909090909,0.024012265805019545,0.03237727272727272,0.04382007167746513,3.5152954545454533,4.271061443508775,-0.5564848484848487,6.498980866260895,7.327893939393942,8.198525716406014,100.0,0.0
62.0,20.0,0.0,1.4709090909090905,0.5092240085749014,10.342427272727273,4.620217091023084,-0.017473636363636365,0.011232013419442905,0.03750545454545469,0.06960408498983892,2.063166363636363,1.3497583566570184,40.98727272727273,1.6043010372688218,25.801863636363635,0.13802604299716212,18.743636363636366,0.44152627843136927,3192.7272727272725,1077.1545006088115,6.636363636363637,3.9312269655344827,10.2121,5.072343367123326,-0.18249090909090906,0.08816513431675192,-1.0162545454545455,0.023846859903826484,0.03432727272727273,0.04555245527760476,4.053745454545454,4.705298122832099,0.012536363636364322,5.874109836949377,8.9426,10.189909050035727,100.0,0.0
63.0,20.0,0.0,1.5800000000000016,0.4943682837723303,10.523795454545457,4.695184659172339,-0.01639727272727273,0.010936650164386805,0.050349999999999874,0.08035493989170778,1.9233972727272721,1.335689106946979,40.90909090909091,1.5782614139961386,25.81490909090909,0.12890323079384364,18.852727272727275,0.3384993621586555,3192.7272727272725,1077.1545006088115,6.636363636363637,3.9312269655344827,10.41594090909091,5.017514202511946,-0.18765454545454546,0.08814063890892058,-1.0165772727272726,0.02184352722932315,0.03545454545454546,0.04946991739706796,4.6849136363636354,4.886201082440779,0.726554545454547,5.6018894229739296,9.923881818181824,11.023806998226,100.0,0.0
64.0,20.0,0.0,1.7272727272727273,0.46709936649691375,10.765927272727271,4.831320486386907,-0.014605454545454543,0.011246539346515767,0.03448727272727277,0.06265732600277622,1.704372727272727,1.391461641304502,40.90909090909091,1.5782614139961386,25.82901818181818,0.1318586350466427,19.0,0.4472135954999579,3192.7272727272725,1077.1545006088115,6.636363636363637,3.9312269655344827,10.774745454545453,5.201639553133923,-0.1940181818181818,0.09114535444203196,-1.0154181818181818,0.02205256530119881,0.03894545454545456,0.05069351760602857,5.349836363636363,5.130890886244362,1.3546909090909094,5.806808679723231,11.312381818181821,11.905315291063753,100.0,0.0
65.0,20.0,0.0,1.7272727272727273,0.46709936649691375,10.979295454545454,4.872389082650038,-0.013450000000000002,0.011352752970094962,0.06592727272727272,0.06886890849155504,1.5447272727272727,1.4243312876774203,40.90909090909091,1.5782614139961386,25.839750000000002,0.1248486583828592,19.0,0.4472135954999579,3192.7272727272725,1077.1545006088115,6.636363636363637,3.9312269655344827,11.154613636363637,5.277081703417662,-0.2001363636363636,0.09404343169756485,-1.0127499999999998,0.02161972479010776,0.04145454545454545,0.053357147855491,5.725181818181818,5.382337926137337,2.1055909090909086,6.027250874437622,12.31934090909091,12.347541096445442,100.0,0.0
66.0,20.0,0.0,1.7272727272727273,0.46709936649691375,11.265872727272729,4.997937162688404,-0.011948181818181818,0.011617504739126922,0.04573272727272699,0.05649046947776394,1.3412654545454539,1.449204121408463,40.90909090909091,1.5782614139961386,25.848163636363633,0.11298356759040033,19.0,0.4472135954999579,3192.7272727272725,1077.1545006088115,6.636363636363637,3.9312269655344827,11.761345454545454,5.632959817247704,-0.21030909090909097,0.1003819351730724,-1.0087272727272725,0.027104431036606983,0.045890909090909114,0.0535312517048771,6.078572727272729,5.921294010618104,2.798818181818184,6.238945462947753,13.151218181818189,12.572964588021252,100.0,0.0
67.0,20.0,0.0,1.6713636363636366,0.46799621210588277,11.621572727272726,5.0654497166768735,-0.010170909090909092,0.012451691214084501,0.039283636363636416,0.0616330554609662,1.1414268181818181,1.5450433973003364,40.90909090909091,1.5782614139961386,25.85502272727273,0.10415592005170966,18.944090909090907,0.4841323072354196,3192.7272727272725,1077.1545006088115,6.636363636363637,3.9312269655344827,12.462836363636365,5.988358057643636,-0.2220909090909091,0.10364559281074574,-1.0023181818181817,0.030376819062627954,0.04908636363636364,0.055515926052390994,6.338231818181819,6.454628317892237,3.7384227272727277,7.220254109633665,13.454077272727272,12.606554136348352,100.0,0.0
68.0,20.0,0.0,1.7272727272727273,0.46709936649691375,11.949890909090907,5.243819744700335,-0.008518181818181819,0.012901120740603763,0.057534545454545456,0.07599109321014393,0.9445509090909091,1.627957669311181,40.90909090909091,1.5782614139961386,25.853472727272727,0.09701786527139274,18.987272727272725,0.4168714648207728,3192.7272727272725,1077.1545006088115,6.636363636363637,3.9312269655344827,13.019890909090911,6.30686181320862,-0.23047272727272733,0.10874389261847392,-0.9974,0.03477642879882869,0.05167272727272729,0.05768987937080633,6.804527272727273,7.631121068505058,4.572054545454548,7.943816345858409,13.546727272727269,12.659901424030982,100.0,0.0
69.0,20.0,0.0,1.5654545454545437,0.6396305751973381,12.29387575757576,5.35431848783123,-0.00724121212121212,0.013442876533500915,0.04362878787878802,0.07119228341490583,0.7869957575757573,1.7020098205003544,40.90909090909091,1.5782614139961386,25.85934545454545,0.08903433454164032,18.747272727272726,0.5887119993526749,3192.7272727272725,1077.1545006088115,6.636363636363637,3.9312269655344827,13.583568181818185,6.563104973801377,-0.24090909090909093,0.11369912448691462,-0.9938181818181817,0.038976013602774175,0.054513636363636375,0.05843145595870898,7.331330303030302,8.662446210517038,5.330010606060608,8.935046013698198,13.45094090909091,12.651560248222708,100.0,0.0
70.0,20.0,0.0,1.6363636363636365,0.504524979109513,12.756015151515152,5.613609320439503,-0.005972727272727274,0.014106937364934381,0.05257575757575757,0.07544850759279335,0.6187469696969697,1.770221213794388,40.90909090909091,1.5782614139961386,25.859181818181813,0.0896914914379488,18.727272727272727,0.46709936649691375,3192.7272727272725,1077.1545006088115,6.636363636363637,3.9312269655344827,14.161681818181817,7.038876701124716,-0.2488636363636364,0.11938636666493602,-0.9896363636363638,0.04314167990997274,0.05789393939393941,0.06458165686973666,7.923303030303029,10.027002743929398,6.421196969696968,10.452386609132274,12.800030303030304,12.174469500150757,100.0,0.0
71.0,20.0,0.0,1.5454545454545454,0.5222329678670935,13.184978787878787,5.8421021045752735,-0.0044307575757575705,0.015049263868369049,0.0380750000000002,0.06040241348654877,0.435260757575757,1.8753804622377246,40.90909090909091,1.5782614139961386,25.855215151515154,0.07736042501554521,18.636363636363637,0.674199862463242,3192.7272727272725,1077.1545006088115,6.636363636363637,3.9312269655344827,14.636439393939394,7.380588675103817,-0.2569045454545455,0.12423732219938068,-0.9856454545454546,0.048075718687012166,0.058687878787878796,0.06943038803599103,8.385189393939397,11.506903171367938,7.155448484848491,11.8904979121156,12.423146969696965,12.157964864521295,100.0,0.0
72.0,20.0,0.0,1.5454545454545454,0.5222329678670935,13.596036363636363,6.002059538403918,-0.003087272727272729,0.015433989173839075,0.03518181818181804,0.09997995057192008,0.27563818181818206,1.8952149867169061,40.974545454545456,1.5972248660496349,25.859818181818184,0.06839663468595225,18.636363636363637,0.674199862463242,3217.6000000000004,1088.0629393559916,6.636363636363637,3.9312269655344827,15.005109090909093,7.707476641995685,-0.2635090909090909,0.12894703916372377,-0.9819272727272726,0.05227766427278656,0.058781818181818164,0.07295743715594481,8.810072727272724,12.299039935303147,7.483509090909089,13.208201330495719,12.161963636363634,11.259638613674305,100.0,0.0
73.0,20.0,0.0,1.424545454545453,0.6683017826755154,14.002395454545455,6.2674507171757865,-0.0025277272727272744,0.015689628001268288,0.04385318181818152,0.1128155821523061,0.21898909090909122,1.9373772740870818,41.0,1.61245154965971,25.857327272727275,0.05602187235195004,20.40636363636365,6.135083166065977,3227.2727272727275,1093.95695444648,6.636363636363637,3.9312269655344827,15.191254545454546,7.953193675261987,-0.2655545454545455,0.13245163165198354,-0.9827909090909092,0.05273430486022278,0.05906363636363634,0.07589632761507334,9.3615909090909,13.718651764838583,7.689231818181807,15.320546697364815,12.189249999999989,10.901365944550246,100.0,0.0
74.0,20.0,0.0,1.2772727272727273,0.7487067638146581,14.518736363636366,6.5963430720775476,0.0012118181818181863,0.017738473901766087,0.48189999999999544,1.419356897837875,0.10161999999999996,1.8032545133785194,41.0,1.61245154965971,25.867763636363634,0.07023416935833054,16.90818181818182,5.313930406359907,3530.909090909091,234.66804407309255,6.7272727272727275,3.797128101365797,15.495318181818181,8.163100356337436,-0.2699181818181818,0.1358232146444916,-0.9813727272727273,0.05641726847179137,0.06251818181818182,0.07808591189429522,10.305163636363632,16.512412573956155,8.405481818181814,19.863161270090824,12.255272727272724,9.946940423777649,100.0,0.0
75.0,20.0,0.0,1.2727272727272727,0.7862453931068966,14.916818181818183,6.9139345564690124,0.0023030303030303024,0.01981933233848795,-0.12135606060606063,0.638593238092429,-0.1344280303030303,1.814943088150703,41.0,1.61245154965971,25.84840909090909,0.12230225226499643,17.0,5.347896782848375,3530.909090909091,234.66804407309255,6.7272727272727275,3.797128101365797,15.684356060606062,8.142108716598178,-0.27375,0.13592851981832216,-0.9805681818181818,0.058798819174908944,0.0628409090909091,0.07414110471992516,10.769431818181816,17.833471088129095,8.445757575757575,21.72112141395554,12.662992424242423,9.184976726098148,100.0,0.0
76.0,20.0,0.0,1.2145454545454557,0.7498848396435769,15.329545454545457,7.141753548305016,-0.003969090909090927,0.034614226397406495,-0.11057636363636349,0.5930941026729686,-0.39164909090909084,2.070807373588643,41.0,1.61245154965971,25.83234545454545,0.17864920018649008,16.94181818181818,5.320642476584606,3530.909090909091,234.66804407309255,6.7272727272727275,3.797128101365797,15.914236363636364,8.107067398667995,-0.2766363636363636,0.13473508283091878,-0.9760363636363636,0.06342048994965703,0.0664181818181818,0.06632311540001445,10.705454545454545,18.6216963175949,7.386763636363634,21.916571817840158,11.191381818181814,8.989801688782478,100.0,0.0
77.0,20.0,0.0,1.1818181818181819,0.7507571935295484,15.790178787878789,7.329953145663087,-0.005423333333333336,0.04916212042823216,-0.025074393939393855,0.43472721018554467,-0.5994109090909094,2.199977188340366,41.0,1.61245154965971,25.824272727272728,0.20657755004312037,16.90909090909091,5.3189199177003115,3530.909090909091,234.66804407309255,6.758787878787879,3.7827700822214263,16.039119696969696,7.981210958240256,-0.27809545454545453,0.1345188917114348,-0.9754833333333334,0.06294775655696995,0.07338030303030305,0.06221336620328011,10.613801515151515,19.0238300824788,6.7123303030303,21.52003237311926,11.21305606060606,11.807640772634086,100.0,0.0
78.0,20.0,0.0,1.1872727272727266,0.8648825458880619,16.174772727272725,7.486827901214508,-0.004735757575757566,0.060554938546944714,0.005169090909090672,0.43379106724087624,-0.7482657575757575,2.2944113212897173,41.0,1.61245154965971,25.81580909090909,0.20575198883386453,17.78727272727276,6.070323040677692,3530.909090909091,234.66804407309255,6.804848484848484,3.7669074742010746,16.18496969696969,7.928426525154136,-0.2827272727272727,0.1341600543448689,-0.9739212121212121,0.06051226555689581,0.0781818181818182,0.05909869591273449,10.384103030303029,19.416366384713555,6.025345454545451,21.32028049075065,10.921033333333325,14.467348604871914,100.0,0.0
79.0,20.0,0.0,1.1818181818181819,0.9816498172140428,16.653363636363636,7.764231007288839,-0.01122863636363634,0.07129010618910976,-0.25961227272727266,1.0477662113261812,-0.9867872727272728,2.3030582158690254,41.0,1.61245154965971,25.801845454545454,0.20247255796100486,21.89090909090911,17.080131998638386,3530.909090909091,234.66804407309255,6.818181818181818,3.7634606897955454,16.391672727272727,7.97199935525473,-0.28297727272727274,0.13341523406949515,-0.9686227272727274,0.0673585531452256,0.0814136363636364,0.054633067326066785,9.973836363636364,18.300009086624673,4.6715090909090895,17.925995610757838,8.259581818181818,18.044711537723078,100.0,0.0
80.0,20.0,0.0,1.018181818181818,0.8964576753178946,17.042272727272728,7.818043822989343,-0.003700000000000003,0.0957973799224175,2.3287545454545455,8.466499321250033,-1.0492636363636363,2.097317372393948,41.0,1.61245154965971,25.814090909090908,0.1961838191826498,17.48181818181818,5.729715207899636,3530.909090909091,234.66804407309255,6.818181818181818,3.7634606897955454,16.694727272727274,7.931904337432583,-0.28781818181818186,0.1318626696088155,-0.9642727272727272,0.06802953903870128,0.08572727272727274,0.0533105822686095,9.602454545454547,17.27081603378159,4.532454545454545,17.337875713960095,6.88490909090909,21.00955067798712,100.0,0.0
81.0,20.0,0.0,0.9690909090909104,0.8616896720450423,17.53399545454545,7.923521585395428,-0.005528181818181813,0.11789650924163807,-0.1184449999999999,0.6722964758906596,-1.1178659090909084,1.9683774632229694,41.0,1.61245154965971,25.831172727272726,0.1806568008180654,16.87818181818182,5.294075591039135,3530.909090909091,234.66804407309255,6.818181818181818,3.7634606897955454,16.98582272727273,7.636510852128859,-0.29119090909090906,0.12507330814003007,-0.9605681818181818,0.0748048871155063,0.08845454545454545,0.05434380118534889,8.908072727272726,15.707409951474549,3.4031227272727276,17.36717284963738,2.691790909090902,23.367512366379724,100.0,0.0
82.0,20.0,0.0,0.8490909090909089,0.7929370031150592,17.836854545454546,7.9651323836284895,-0.005087878787878761,0.1307307835827569,-0.07803151515151537,0.6270441577155897,-1.1092454545454544,1.871735816510244,41.0,1.61245154965971,25.830636363636362,0.17387220176168075,16.816363636363636,5.2832476238148685,3530.909090909091,234.66804407309255,6.818181818181818,3.7634606897955454,17.33201212121212,7.196086440949425,-0.2962909090909091,0.11800170722956048,-0.9573090909090909,0.07940691978090392,0.08672727272727275,0.06037219709285211,7.947593939393943,14.245988071046677,0.8924181818181832,22.45896722246231,-0.7991090909090837,24.06475750409525,100.0,0.0
83.0,20.0,0.0,0.5454545454545454,0.6875516509523286,18.13756818181818,7.94675605886681,-0.004286363636363611,0.14216607058456157,-0.06852727272727256,0.49856072771711496,-1.168558181818182,1.9027804611926107,41.0,1.61245154965971,25.83,0.17561321134812174,19.836363636363618,9.36325506725865,3530.909090909091,234.66804407309255,6.818181818181818,3.7634606897955454,17.272609090909096,7.189574152542628,-0.29412727272727285,0.11728761307920868,-0.9522772727272727,0.08095752393581578,0.0807318181818182,0.06312939993666687,7.309454545454554,13.289322110202894,-0.8847136363636294,30.570276077066193,-4.602718181818154,24.41644155460897,100.0,0.0
84.0,20.0,0.0,0.45454545454545453,0.5222329678670934,18.499290909090913,7.886517777759022,0.0001672727272727507,0.15609599207480693,0.29504909090907694,1.0980650457368173,-1.0811490909090904,1.9976741758627932,41.0,1.61245154965971,25.837236363636364,0.17931101066430544,16.883636363636388,9.608170765267785,3530.909090909091,234.66804407309255,6.818181818181818,3.7634606897955454,16.988654545454548,7.4052744981349115,-0.28889090909090914,0.12250277918925312,-0.9484545454545454,0.07099234273689475,0.07407272727272728,0.07201651325785063,5.482727272727278,10.96349155671595,-4.218509090909091,45.1935730486859,-10.815054545454538,27.741536631425568,100.0,0.0
85.0,20.0,0.0,0.2818181818181839,0.4622081388685868,18.69240909090909,7.755730689523013,0.005781818181818238,0.16996316589591892,0.17499090909090909,0.5220199972549825,-1.0366863636363637,2.1153668027189645,41.03181818181818,1.6159010995838714,25.83222727272727,0.1683599363917021,15.627272727272684,10.353172548459717,3545.4545454545455,226.46693517437095,6.818181818181818,3.7634606897955454,16.04420454545455,8.21496998535157,-0.2747272727272728,0.13917176682724897,-0.949659090909091,0.0573147311700134,0.06247727272727266,0.07755034288652872,4.241204545454557,10.035694992636392,-5.033840909090921,53.40877089559737,-17.367090909090873,29.94295432386237,100.0,0.0
86.0,20.0,0.0,0.16818181818181818,0.3756811994715249,18.806036363636363,7.596741955374387,0.016902727272727177,0.17714085175875768,1.639194545454525,5.129982760640293,-1.0643436363636378,1.9280976243503474,41.04909090909091,1.6206508232525259,25.848672727272728,0.17296821147776842,16.89545454545455,11.10298280971053,3545.4545454545455,226.46693517437095,6.818181818181818,3.7634606897955454,14.587554545454548,9.420049852560611,-0.24952727272727274,0.16021313985381522,-0.9543818181818182,0.047629041942533694,0.0534090909090909,0.08238755311993984,2.9575000000000045,9.877800607928867,-4.868590909090925,54.21922793641485,-24.099109090909074,30.845799085919438,100.0,0.0
87.0,20.0,0.0,0.2954545454545475,0.42884411238499576,18.90022272727273,7.371029061785189,0.035464090909090855,0.1872889151126967,1.5319981818181778,5.198425890997829,-1.1169827272727288,1.861583563357232,40.966818181818184,1.6276244541159868,25.85610909090909,0.16703140695417357,11.069999999999856,8.352512196938,3545.4545454545455,226.46693517437095,6.818181818181818,3.7634606897955454,12.723763636363634,11.153983594149016,-0.21946363636363628,0.19219516264842498,-0.962209090909091,0.042173059043551855,0.04795000000000004,0.07726905913753572,1.3717363636363638,9.659748391575507,-1.269840909090918,47.973063979773144,-32.54277727272729,29.305590643470772,100.0,0.0
88.0,20.0,0.0,0.11636363636363801,0.3048695697268836,18.637545454545453,7.20736663815067,0.04621999999999999,0.19414078190838732,0.2655509090909102,0.673526956631354,-1.2416763636363635,1.9023077864492521,41.0,1.61245154965971,25.849454545454545,0.1663043256420967,9.934545454545455,9.263213657944378,3545.4545454545455,226.46693517437095,6.818181818181818,3.7634606897955454,11.249799999999993,11.45707846355256,-0.19316363636363623,0.1973736521054786,-0.9736909090909092,0.047996696856043186,0.04350909090909095,0.07781353936874295,-0.30827272727272936,9.034814971109366,-0.5178727272727651,47.93017177455326,-41.308290909090914,27.315301627675808,100.0,0.0
89.0,20.0,0.0,0.11606060606060559,0.25821962306798685,18.133668181818184,7.042019209157012,0.05485227272727273,0.1934350404834093,0.7485816666666666,1.9705804656489474,-1.1097509090909092,2.0062096064242865,40.949999999999996,1.620956507744733,25.84394545454545,0.18378378798814782,10.997878787878811,11.397769788937518,3545.4545454545455,226.46693517437095,6.818181818181818,3.7634606897955454,9.390684848484842,10.56022098748531,-0.16273787878787868,0.18782176688595387,-0.9894469696969698,0.06140587052019893,0.042336363636363686,0.06757057455323695,-1.9458969696969726,7.645552405741157,1.2916484848484786,49.36306728269485,-50.95903333333334,23.748364498944383,100.0,0.0
90.0,20.0,0.0,0.02121212121212052,0.06013452931687082,17.376818181818184,7.101896377984991,0.08005454545454543,0.19882774134228032,2.768169696969698,8.675327465064417,-0.9001818181818183,1.9481163506413992,40.90909090909091,1.6403990645294488,25.859545454545454,0.1849731675872818,8.793939393939393,8.303557713839934,3545.4545454545455,226.46693517437095,6.818181818181818,3.7634606897955454,7.775787878787869,9.755382826673157,-0.13812121212121195,0.1801903482880302,-1.0053939393939393,0.06736299976525487,0.046090909090909155,0.05652513519745805,-3.433393939393942,6.590829839537464,4.903515151515178,45.684361629035855,-56.54984848484849,21.85110399619492,100.0,0.0
91.0,20.0,0.0,0.014545454545454752,0.04824181513244286,16.179493181818188,7.137567293921743,0.08851022727272725,0.1987668684428272,0.263543409090909,0.29245820472819856,-0.8724779545454545,1.9443024030860074,40.90909090909091,1.6403990645294488,25.866254545454545,0.1687787922911906,8.287272727272727,8.412121124792595,3545.4545454545455,226.46693517437095,6.818181818181818,3.7634606897955454,5.6607159090909125,9.218701714044883,-0.10198181818181823,0.17388878381414835,-1.0206681818181818,0.06321367048640385,0.04572500000000006,0.05171753450233295,-5.233688636363631,7.277117837023144,11.293784090909073,36.033740832260754,-63.16396818181815,25.528328287319074,100.0,0.0
92.0,20.0,0.0,0.08363636363636302,0.2773904370115405,14.98344242424242,7.279314201108824,0.09641757575757576,0.19762056366847672,0.2548290909090907,0.38984461821229616,-0.8596218181818184,1.9174376799354824,40.90909090909091,1.6403990645294488,25.868690909090912,0.15936725795812337,8.356363636363636,8.512869401943474,3545.4545454545455,226.46693517437095,6.818181818181818,3.7634606897955454,4.924381818181812,9.290887958620342,-0.0883090909090908,0.17529580402591205,-1.0310545454545457,0.05801035017367787,0.03924848484848478,0.05108467994665842,-5.903145454545458,8.061041387856,18.28406060606068,28.58860309364096,-65.44445454545458,30.389661748442176,100.0,0.0
93.0,20.0,0.0,0.0,0.0,13.338131818181813,7.426985335661859,0.10275363636363637,0.1946654072645023,0.1495204545454542,0.37056029942814,-0.8303336363636366,1.8618678822208237,41.0,1.4832396974191326,25.86872727272727,0.16597540233967847,10.05909090909091,8.544495835970025,3545.4545454545455,226.46693517437095,6.818181818181818,3.7634606897955454,4.3967636363636355,8.916816591393225,-0.07869090909090909,0.16650110783142227,-1.0359863636363638,0.06162328330634908,0.03475454545454541,0.05529202679657097,-7.417918181818171,9.690576743730805,23.430990909090973,23.44720733125611,-67.48067272727275,33.87466484159191,100.0,0.0
94.0,20.0,0.0,0.0,0.0,11.059624242424242,7.476718746335049,0.10518000000000001,0.19216708292525025,0.08690242424242482,0.38989959210343206,-0.8192272727272727,1.8414445786343445,41.0,1.4832396974191326,25.871260606060606,0.16158758328134917,10.0,8.473488065725943,3545.4545454545455,226.46693517437095,6.818181818181818,3.7634606897955454,4.241809090909092,8.694083058546719,-0.07374545454545456,0.16284628830944112,-1.0392606060606058,0.06940728398883705,0.01599393939393936,0.06187643927516946,-8.451393939393933,10.042848466023727,27.072587878787896,28.784290070550927,-65.05287878787878,37.60721249737807,100.0,0.0
95.0,20.0,0.0,0.0,0.0,9.036090909090914,7.433685581756134,0.10063863636363644,0.185708842467058,-0.1862386363636374,1.1294685465609302,-0.8003318181818181,1.808481521922843,41.0,1.4832396974191326,25.873636363636365,0.15492661019158216,10.0,8.473488065725943,3545.4545454545455,226.46693517437095,6.818181818181818,3.7634606897955454,4.413295454545457,8.599839852301162,-0.07834090909090913,0.15958670342196718,-1.0371363636363637,0.07449558406680583,0.005931818181818162,0.07265432634305843,-9.670409090909082,11.61082582725746,27.639340909090926,31.67492742459575,-61.267340909090926,38.2206956635199,100.0,0.0
96.0,20.0,0.0,0.0,0.0,6.105787878787865,6.762339955292803,0.10684181818181812,0.16900933286763675,0.36071878787878736,0.4877340146597938,-0.6373963636363653,1.7810494486076094,40.99636363636364,1.4751764147197661,25.881236363636365,0.18211086333729365,10.0,8.473488065725943,3545.4545454545455,226.46693517437095,6.818181818181818,3.7634606897955454,4.511424242424251,8.103956006366973,-0.08230303030303045,0.14692706388208437,-1.0349757575757574,0.06089189161658928,-0.003745454545454756,0.0775855703547557,-10.744424242424238,12.168378356973626,23.54687272727273,29.443036860659916,-51.29626666666661,36.220627448028615,100.0,0.0
97.0,20.0,0.0,0.0,0.0,3.9260356060605948,6.389486463658799,0.1131811363636364,0.16547452471363847,0.08732583333333423,0.7687335145610033,-0.6483093181818186,1.9402277290192285,40.96454545454546,1.4070633506446228,25.872422727272728,0.2084285241559279,10.0,8.473488065725943,3545.4545454545455,226.46693517437095,6.818181818181818,3.7634606897955454,4.495237878787882,8.333712533526072,-0.08488939393939396,0.15226487087979432,-1.0311189393939393,0.05218302673322431,-0.004275000000000064,0.07638493552396312,-11.69464924242425,11.957993900887928,19.315713636363615,28.013804003402388,-41.59210530303026,29.038565391394695,100.0,0.0
98.0,20.0,0.0,0.0,0.0,1.5981893939393899,6.899127282459045,0.11303318181818182,0.1632152042285388,0.23094863636363908,1.0043084808864509,-0.6530350000000005,2.047366892883394,40.90909090909091,1.300349603340998,25.8631,0.2260254277730717,10.0,8.473488065725943,3545.4545454545455,226.46693517437095,6.818181818181818,3.7634606897955454,3.9824515151515216,8.639326078569935,-0.07629696969696978,0.15748478477092137,-1.023813636363636,0.04545846505827645,0.005216666666666597,0.07778760862473885,-12.036743939393949,11.30874378226442,14.741912121212117,25.79246122066709,-30.051295454545436,19.552956972903754,100.0,0.0
99.0,20.0,0.0,0.0,0.0,-0.6627409090909114,6.787574118373153,0.1119645454545454,0.16014911505304272,-0.6166540909090964,1.6803439935959996,-0.578471818181818,1.8689511871037088,40.88090909090909,1.3483356744183126,25.869186363636366,0.22373294358554854,10.0,8.473488065725943,3545.4545454545455,226.46693517437095,6.818181818181818,3.7634606897955454,2.440027272727275,8.410380104114312,-0.0476863636363637,0.1531301931215871,-1.029240909090909,0.05074846213523039,0.01926363636363637,0.07936377350816017,-11.610590909090915,9.470250706312331,9.2208409090909,23.90997709071276,-16.692459090909075,10.03840553227495,100.0,0.0
100.0,20.0,0.0,0.09090909090909091,0.3015113445777636,-2.6463636363636365,6.6891916891763135,0.11172727272727272,0.1640762572154124,-0.0057272727272727,1.4769674397839032,-0.5042727272727272,1.6288610800746075,40.81818181818182,1.4709304414677,25.89181818181818,0.14041496941695247,10.090909090909092,8.584340923501879,3545.4545454545455,226.46693517437095,6.818181818181818,3.7634606897955454,0.6936363636363637,7.78992204418924,-0.012727272727272728,0.13957728390328483,-1.0336363636363635,0.059878665194329,0.028181818181818186,0.06940002619858034,-11.535454545454545,8.482844291434759,3.49,24.44340892756164,-4.920909090909091,1.6661179702857454,100.0,0.0
