gait_percent,walk_dt_ms_mean,walk_dt_ms_sd,walk_exec_ms_mean,walk_exec_ms_sd,walk_tilt_forward_deg_mean,walk_tilt_forward_deg_sd,walk_pos_rad_mean,walk_pos_rad_sd,walk_vel_rad_s_mean,walk_vel_rad_s_sd,walk_tq_nm_mean,walk_tq_nm_sd,walk_temp_c_mean,walk_temp_c_sd,walk_vbus_v_mean,walk_vbus_v_sd,walk_fb_age_ms_mean,walk_fb_age_ms_sd,walk_typical_stride_ms_mean,walk_typical_stride_ms_sd,walk_effective_step_count_mean,walk_effective_step_count_sd,walk_tilt_accel_deg_mean,walk_tilt_accel_deg_sd,walk_acc_x_mean,walk_acc_x_sd,walk_acc_y_mean,walk_acc_y_sd,walk_acc_z_mean,walk_acc_z_sd,walk_gyr_x_mean,walk_gyr_x_sd,walk_gyr_y_mean,walk_gyr_y_sd,walk_gyr_z_mean,walk_gyr_z_sd,cfg_assist_pct_mean,cfg_assist_pct_sd
0.0,20.0,0.0,0.0,0.0,3.4457142857142857,5.2010795582675495,-0.052714285714285714,0.13355861919735754,1.1929999999999998,2.3856771924689784,-1.9395714285714285,2.4073518547110955,42.0,1.0,25.872857142857146,0.14750302660333076,12.571428571428571,8.079957567073869,2933.714285714286,451.65979611713436,27.428571428571427,2.14919697074224,10.611428571428572,5.37507342142545,-0.19571428571428573,0.09744351233016027,-1.0528571428571427,0.0537631490007439,0.11571428571428573,0.09216961590045873,-18.408571428571427,14.132151792480657,21.084285714285716,19.20269933901903,0.9885714285714288,5.791051800181116,100.0,0.0
1.0,20.0,0.0,0.0,0.0,2.8197563909774432,5.492110214389041,-0.06208864661654136,0.12060286593077406,0.8167083458646615,2.601146517500527,-1.7981928571428571,2.321775562012216,42.0,1.0,25.87125714285714,0.1463297515561216,24.12142857142857,19.737609132965275,2933.714285714286,451.65979611713436,27.428571428571427,2.14919697074224,9.030785714285713,4.632573509554767,-0.166203007518797,0.08186442296582022,-1.0647857142857142,0.05804430573769859,0.13622857142857142,0.09950486946687107,-16.305520300751883,12.686398738180701,17.50391954887218,16.70844263289926,6.546891729323309,9.570921688156773,100.0,0.0
2.0,20.0,0.0,0.0,0.0,2.1034127819548876,5.6511974676777585,-0.046421578947368425,0.09590036183408104,5.058493834586465,7.640953204062048,-0.6883285714285714,0.8609923194281618,42.0,1.0,25.91577142857143,0.08700286804249054,14.58285714285714,14.17950835335475,2933.714285714286,451.65979611713436,27.428571428571427,2.14919697074224,6.968928571428571,3.130571534993935,-0.1294345864661654,0.05513077233066863,-1.0771428571428572,0.05168748582080765,0.15352857142857143,0.09175018100410327,-14.051683458646618,11.287612157193104,12.602153383458646,11.009061808798627,10.516640601503758,13.748283268841652,100.0,0.0
3.0,20.0,0.0,0.14285714285714285,0.3779644730092273,1.7735548872180453,5.7111094812086565,-0.035198796992481206,0.09279365547328923,-0.1969678195488713,1.4371370060333413,0.0,0.0,42.0,1.0,25.957971428571426,0.020736579136533324,3.857142857142857,1.9518001458970664,2933.714285714286,451.65979611713436,27.428571428571427,2.14919697074224,6.229528571428571,3.2199379102265753,-0.11530902255639099,0.05427136534270587,-1.0762428571428573,0.05083331772052849,0.15225714285714287,0.08653875542481641,-11.67296090225564,10.464475189244535,9.396372932330825,10.100267300295043,13.288275187969925,17.085881960418728,100.0,0.0
4.0,20.0,0.0,0.14285714285714285,0.3779644730092273,1.5388541353383458,5.787267528989254,-0.05334887218045113,0.09342234240148892,-0.442018045112782,1.201408917471956,0.0,0.0,42.0,1.0,25.966914285714285,0.0058501933219989866,3.857142857142857,1.9518001458970664,2933.714285714286,451.65979611713436,27.428571428571427,2.14919697074224,5.905657142857143,3.713148668743345,-0.10918345864661654,0.06333575653345809,-1.0719428571428573,0.051463088945471615,0.1396,0.07262139262412053,-9.424224060150376,8.926361758092316,6.38747819548872,8.95872546033636,16.68448120300752,20.13845630868175,100.0,0.0
5.0,20.0,0.0,0.14285714285714285,0.3779644730092273,1.5226033834586465,5.7563321385107775,-0.06290394736842105,0.09357428819768601,-0.09077969924812031,1.2433510085894015,0.0,0.0,42.0,1.0,25.957142857142856,0.016687605894081217,3.857142857142857,1.9518001458970664,2933.714285714286,451.65979611713436,27.428571428571427,2.14919697074224,6.145821428571428,3.8645929354263973,-0.1126936090225564,0.068163449239515,-1.0627142857142857,0.0497475771125733,0.1262142857142857,0.059256404114419806,-7.9565300751879695,7.5938447016529675,4.741097744360903,8.883683775940744,18.972851503759394,21.069809757204656,100.0,0.0
6.0,20.0,0.0,0.14285714285714285,0.3779644730092273,1.6112526315789475,5.600812668140322,-0.06375187969924813,0.09314783340793567,-0.001392781954887282,1.1842831656855148,0.0,0.0,42.0,1.0,25.965314285714282,0.010144855604595847,3.857142857142857,1.9518001458970664,2933.714285714286,451.65979611713436,27.428571428571427,2.14919697074224,6.718085714285715,3.805867231625652,-0.12316090225563911,0.06667185548993208,-1.0512857142857144,0.04633009923622106,0.1132,0.04764353751209776,-7.346378947368422,6.333570801240842,3.706831578947368,8.840431307488295,19.832721804511277,19.59741295948412,100.0,0.0
7.0,20.0,0.0,0.14285714285714285,0.3779644730092273,1.9196375939849624,5.405573353451258,-0.06252624060150377,0.1028080370039996,-0.03958372180451123,0.7310095972211437,0.0,0.0,41.994285714285716,0.9866924063566647,25.969771428571427,0.000604743156814697,3.857142857142857,1.9518001458970664,2933.714285714286,451.65979611713436,27.428571428571427,2.14919697074224,7.317021428571429,3.5631585271891772,-0.13339248120300753,0.06156050547487933,-1.039542857142857,0.04241771866971233,0.0941,0.03377035188840452,-7.170092105263158,5.415972806179735,3.0550296992481196,8.034959179823968,18.65462067669173,19.46161095786455,100.0,0.0
8.0,20.0,0.0,0.14285714285714285,0.37796447300922725,2.3125654135338345,5.142639170966551,-0.0610406015037594,0.10901182399608632,-0.029438947368421127,0.43076395846160415,0.0,0.0,41.857142857142854,0.6900655593423541,25.9668,0.005542562584219797,3.857142857142857,1.7728105208558367,2933.714285714286,451.65979611713436,27.428571428571427,2.14919697074224,7.7742571428571425,3.0302917631019963,-0.13910977443609024,0.05136277034534971,-1.0303428571428572,0.035817633326936354,0.08045714285714285,0.02772380788797823,-7.1055624060150375,5.521648819354516,2.5861849624060156,7.179519828114179,16.64841954887218,20.595079126169956,100.0,0.0
9.0,20.0,0.0,0.14285714285714285,0.37796447300922725,2.7668646616541355,4.872449339223857,-0.058364248120300756,0.10914049323713441,0.021666541353383483,0.5481296107765494,0.003949999999999996,0.010450717678705123,41.857142857142854,0.6900655593423541,25.957014285714287,0.022894863220922254,5.662857142857141,4.259380683799438,2933.714285714286,451.65979611713436,27.428571428571427,2.14919697074224,8.279300000000001,2.0696787069494627,-0.14701278195488723,0.036041984579383596,-1.0221714285714285,0.022767060583638147,0.07089999999999999,0.02663037113272488,-6.948061278195488,5.598399041476135,2.4317687969924813,6.210108305343482,14.89015413533835,22.2689396299677,100.0,0.0
10.0,20.0,0.0,0.2857142857142857,0.4561745697594706,3.334421052631579,4.574823650588041,-0.04308646616541354,0.10292069874190113,0.07694060150375936,0.864004557713616,0.36684285714285714,0.9705749702403945,41.857142857142854,0.6900655593423541,25.944285714285712,0.0680336051416608,6.285714285714286,5.777089397331662,2933.714285714286,451.65979611713436,27.428571428571427,2.14919697074224,8.650142857142857,1.5644560746546416,-0.15374436090225566,0.026922590523400614,-1.0178571428571428,0.017053138239324875,0.058857142857142865,0.030300872217526302,-7.286203007518798,5.0921259191229415,2.1464812030075184,5.480011383313471,10.66806015037594,22.102366565931355,100.0,0.0
11.0,20.0,0.0,0.24000000000000019,0.3611555528208492,3.7476142857142856,4.4218185408376085,-0.04244142857142858,0.08834121715042784,-0.2808600000000002,1.0603008595834174,0.3979171428571429,1.0527898024093618,41.857142857142854,0.6900655593423541,25.944285714285712,0.0680336051416608,6.240000000000001,5.562112907879523,2933.714285714286,451.65979611713436,27.428571428571427,2.14919697074224,8.7942,1.6387662646027348,-0.15570714285714285,0.029128543111688995,-1.014292857142857,0.013269527389581664,0.053,0.03144895334771361,-7.353692857142858,4.55405916924932,1.8783571428571426,4.279899796279168,7.920414285714286,18.80526385833042,100.0,0.0
12.0,20.0,0.0,0.2857142857142857,0.4879500364742666,4.250628571428571,4.318306031194132,-0.052599999999999994,0.0789597272876074,-0.4928285714285708,1.148267712795069,0.3912685714285714,1.0351993358355123,41.74285714285714,0.7276838664721165,25.944285714285712,0.0680336051416608,6.285714285714286,5.794085654478071,2933.714285714286,451.65979611713436,27.428571428571427,2.14919697074224,8.527114285714285,2.2025501821211493,-0.15118571428571428,0.038904345454436016,-1.0159571428571428,0.014142354488422038,0.04385714285714285,0.038007492995586076,-6.8983857142857135,4.296227573282004,1.3151142857142855,3.178404836511847,5.833000000000003,15.506750665436002,100.0,0.0
13.0,20.0,0.0,0.25999999999999995,0.4145680482944467,4.842592857142857,4.049188813456815,-0.08045571428571427,0.029433476324950615,0.05316071428571397,1.4040406363968139,0.7054357142857144,1.2128651497158447,41.714285714285715,0.7559289460184544,25.9084,0.09471219562442776,8.545714285714286,6.894681179824675,2933.714285714286,451.65979611713436,27.428571428571427,2.14919697074224,7.474371428571429,3.5484121842096665,-0.13362857142857146,0.06048795236203968,-1.01955,0.01823296008149347,0.03982857142857143,0.04189052057787912,-5.775385714285713,4.461863967905705,0.1886857142857142,2.430498567803577,7.107957142857141,16.943176560281046,100.0,0.0
14.0,20.0,0.0,0.3904761904761909,0.4856283770898486,5.816533333333334,2.727356968853831,-0.07951333333333334,0.03777293740232549,-0.26945619047619046,0.8102044959222938,0.8823142857142858,1.5295317998095275,41.714285714285715,0.7559289460184544,25.908019047619046,0.10966430739971947,8.676190476190476,6.796424830467154,2933.714285714286,451.65979611713436,27.428571428571427,2.14919697074224,8.050723809523811,2.779775012592731,-0.14412380952380954,0.04744991009742767,-1.0158,0.01633442173244383,0.028695238095238097,0.041129026555424636,-5.208419047619047,6.473106574665998,0.14118095238095169,2.829336848545908,3.5591714285714255,12.062106533785089,100.0,0.0
15.0,20.0,0.0,0.42857142857142855,0.5345224838248487,6.3975357142857145,2.377406826199905,-0.09130714285714285,0.05694624971973885,-0.1723928571428571,0.414180516631508,0.8972928571428571,1.5695565871790484,41.714285714285715,0.7559289460184544,25.89942857142857,0.12593497944423185,8.714285714285714,7.111359122659224,2933.714285714286,451.65979611713436,27.428571428571427,2.14919697074224,7.929250000000001,2.5119291432748123,-0.1424642857142857,0.044422786141477315,-1.0173571428571428,0.013834480732678678,0.021214285714285717,0.037933996562952536,-3.650571428571428,8.006418698085158,-0.3053928571428571,3.388878046447006,3.7732500000000004,13.150819518981823,100.0,0.0
16.0,20.0,0.0,0.37142857142857144,0.48205907561309574,7.092571428571429,1.7237594396302185,-0.0941485714285714,0.06347913342943791,-0.06078285714285645,1.0038545219588075,1.1289028571428579,1.4287121607671052,41.714285714285715,0.7559289460184544,25.87651428571428,0.10724444707569493,11.228571428571428,7.264001258653133,2933.714285714286,451.65979611713436,27.428571428571427,2.14919697074224,7.932571428571429,2.0875775033231583,-0.1412571428571429,0.03657061010988911,-1.0186285714285714,0.013189606297600945,0.013657142857142862,0.03762370073694049,-2.416514285714285,8.775176317208404,-0.6489142857142861,3.595908124256686,3.03468571428571,14.842872239050024,100.0,0.0
17.0,20.0,0.0,0.37428571428571494,0.48369608718895496,7.525,1.5297388219344283,-0.08514571428571427,0.06886864183771471,0.28850071428571367,0.6177819383247116,1.9702792857142861,2.007423934790616,41.714285714285715,0.7559289460184544,25.79557142857143,0.21214728935565572,12.517142857142858,7.713109434129478,2933.714285714286,451.65979611713436,27.428571428571427,2.14919697074224,8.07982142857143,1.4775819023709935,-0.14312857142857144,0.024256182324355592,-1.0182285714285715,0.011458579651032154,0.012899999999999993,0.03507491981459117,-0.9259714285714293,9.453568398178945,-1.223078571428572,3.193838815054325,2.991771428571423,16.749490064448157,100.0,0.0
18.0,20.0,0.0,0.5714285714285714,0.5345224838248488,7.888085714285714,1.39531964728346,-0.08065571428571428,0.07061224961179254,0.020661428571428546,0.17860244757828037,2.2227414285714286,2.603312714039739,41.714285714285715,0.7559289460184544,25.743257142857146,0.33114125312894654,12.714285714285714,7.889112449325034,2933.714285714286,451.65979611713436,27.428571428571427,2.14919697074224,8.178471428571427,1.085376436563656,-0.14717142857142856,0.01790956116024011,-1.0163142857142857,0.01129711298982011,0.011528571428571421,0.036352749290148346,0.3037714285714276,9.58779601537188,-1.9086285714285711,2.983248313898954,2.8333999999999984,18.09777313336275,100.0,0.0
19.0,20.0,0.0,0.5714285714285714,0.5345224838248488,8.165671428571429,1.2919981588148461,-0.08173428571428572,0.07287932945564718,-0.07001142857142867,0.24414961474668026,2.1923942857142853,2.711068718407663,41.714285714285715,0.7559289460184544,25.74195714285714,0.36427587465702777,12.714285714285714,7.889112449325034,2933.714285714286,451.65979611713436,27.428571428571427,2.14919697074224,8.13562857142857,0.9517055649626895,-0.14577142857142858,0.016878064095714525,-1.0188000000000001,0.012196174263541292,0.011257142857142867,0.03819283777284501,1.2917857142857152,9.150682847640127,-2.2203571428571425,3.214968395830739,2.5146285714285703,18.35465469726179,100.0,0.0
20.0,20.0,0.0,0.5714285714285714,0.5345224838248488,8.42657142857143,1.0996888737491248,-0.07925714285714287,0.07255919094419527,0.21262857142857142,0.5652155863452627,2.454571428571428,2.44738030127065,41.714285714285715,0.7559289460184544,25.72085714285714,0.3296560978613055,14.428571428571429,7.480132415430957,2933.714285714286,451.65979611713436,27.428571428571427,2.14919697074224,8.31142857142857,1.4493496078290726,-0.14914285714285716,0.025842010831387017,-1.0182857142857142,0.011397577019031815,0.00857142857142857,0.042011336338569155,3.0217142857142862,8.833445641693954,-2.654857142857143,3.7631842646253464,2.9385714285714286,17.577757297762638,100.0,0.0
21.0,20.0,0.0,0.5714285714285714,0.5345224838248488,8.653214285714286,0.9035048670383052,-0.07427428571428571,0.07277614624246576,0.1661000000000001,0.27389717152001936,2.6062635714285713,2.4089393639433836,41.714285714285715,0.7559289460184544,25.72395,0.2917824232197674,14.428571428571429,7.480132415430957,2933.714285714286,451.65979611713436,27.428571428571427,2.14919697074224,8.456514285714286,2.0545111530715126,-0.15209999999999999,0.034027635827368306,-1.0191285714285714,0.016793521993684987,0.010464285714285716,0.043251557913036635,4.041235714285715,8.198641267547238,-2.912864285714285,3.942867703494742,2.792921428571429,16.016081675352048,100.0,0.0
22.0,20.0,0.0,0.7142857142857143,0.48795003647426666,8.822685714285715,0.7148061542091241,-0.06912285714285712,0.06857214247644243,0.2984885714285736,0.7565529779957872,3.092942857142859,2.4332500323210664,41.714285714285715,0.7559289460184544,25.655085714285715,0.27320033814383227,16.571428571428573,5.99603043290984,2933.714285714286,451.65979611713436,27.428571428571427,2.14919697074224,8.566828571428571,2.7359132647766726,-0.1518,0.047657248486807684,-1.0188571428571427,0.019726704163211296,0.013885714285714276,0.04865098246940236,5.371114285714286,7.004632723045648,-3.2385999999999986,4.4404391689711655,2.760114285714287,13.15558039761436,100.0,0.0
23.0,20.0,0.0,0.7142857142857143,0.48795003647426666,8.8963,0.616403517727362,-0.06117142857142858,0.06473182020937654,0.21192428571428562,0.5105788690580243,3.474932142857143,2.467780103128885,41.714285714285715,0.7559289460184544,25.624235714285714,0.291586826283192,16.571428571428573,5.99603043290984,2933.714285714286,451.65979611713436,27.428571428571427,2.14919697074224,8.581264285714285,3.159988168320978,-0.15407142857142855,0.055302040778670306,-1.0173571428571428,0.019804701221583506,0.016614285714285713,0.052180533681039476,6.336971428571429,5.81658982815942,-3.467421428571428,4.777084649296851,2.765657142857145,10.479348341358055,100.0,0.0
24.0,20.0,0.0,0.8514285714285702,0.3757405386446238,9.067085714285714,0.829322541653872,-0.056920000000000005,0.062112439977833764,0.10253142857142881,0.12435311166574173,3.440902857142856,2.4074322375905983,41.714285714285715,0.7559289460184544,25.63885714285714,0.28810863030659606,16.708571428571428,6.044930185898009,2933.714285714286,451.65979611713436,27.428571428571427,2.14919697074224,8.733142857142857,3.651753262410237,-0.15662857142857142,0.06192419328732281,-1.0157142857142858,0.02507132682112037,0.021828571428571423,0.056786785853920704,6.754857142857143,4.19565892753337,-3.5698857142857143,4.843175749935356,1.5474857142857144,6.8446930399710855,100.0,0.0
25.0,20.0,0.0,0.8571428571428571,0.37796447300922725,9.226785714285715,1.0629613844170935,-0.05342857142857143,0.05967179580242004,0.13682142857142873,0.1506521735022512,3.1750892857142854,2.196636736385173,41.714285714285715,0.7559289460184544,25.683214285714286,0.24258896257229923,16.714285714285715,6.047431568147636,2933.714285714286,451.65979611713436,27.428571428571427,2.14919697074224,8.939821428571427,3.8570726721458444,-0.1603571428571429,0.06618201813037682,-1.0133928571428572,0.026286822246318113,0.03214285714285714,0.057162571004194036,6.829464285714287,3.2147585978206674,-3.1217857142857146,4.243135562854657,0.3064285714285734,5.8895792254099915,100.0,0.0
26.0,20.0,0.0,0.8571428571428571,0.37796447300922725,9.273285714285716,1.4106509270883558,-0.05044,0.05880944255247906,0.10549714285714275,0.1510743655416414,2.8838714285714286,2.0810202736112284,41.714285714285715,0.7559289460184544,25.707428571428572,0.21918979381870365,18.257142857142856,1.965415259647988,2933.714285714286,451.65979611713436,27.428571428571427,2.14919697074224,8.996514285714285,3.848863622520536,-0.1607714285714286,0.06576345779346142,-1.0109142857142857,0.027529101485000002,0.036942857142857145,0.05479011033458676,7.126228571428571,4.118529939073848,-2.6014285714285714,3.806393664049252,-0.16417142857142794,7.167923956468449,100.0,0.0
27.0,20.0,0.0,0.8571428571428571,0.37796447300922725,9.3389,1.6624521587101388,-0.039369761904761914,0.035280377302674186,0.6325950000000001,1.547530190117466,3.1093164285714288,1.73069137177101,41.714285714285715,0.7559289460184544,25.68592857142857,0.22170038125275973,18.857142857142858,0.3779644730092272,2933.714285714286,451.65979611713436,27.428571428571427,2.14919697074224,9.041007142857143,3.736719146125891,-0.1607357142857143,0.06408973341005117,-1.0096857142857143,0.025259152042472907,0.043250000000000004,0.05266323037312972,7.071004761904762,5.262754277640693,-1.9850428571428569,3.3842375063703516,-1.0158357142857135,8.53546782581923,100.0,0.0
28.0,20.0,0.0,0.8571428571428571,0.37796447300922725,9.309314285714285,1.8370971262915228,-0.03455428571428572,0.026405862263989083,0.4182914285714287,1.1570582491161028,3.1153942857142867,1.7706849753212943,41.714285714285715,0.7559289460184544,25.689657142857147,0.24195486395292,18.857142857142858,0.3779644730092272,2933.714285714286,451.65979611713436,27.428571428571427,2.14919697074224,9.025314285714286,3.5944251925393997,-0.15982857142857146,0.06251990920993926,-1.0057142857142856,0.01862573744145706,0.05011428571428572,0.044573064683035804,6.9478857142857136,6.1679457961919475,-1.4258285714285712,3.018631618086959,-1.4645714285714277,9.164285276680387,100.0,0.0
29.0,20.0,0.0,0.9828571428571422,0.04535573676110898,9.388885714285715,2.2182131731257413,-0.026488571428571434,0.01462863906699393,0.06578571428571421,0.2422142230104819,3.095257142857143,1.8014145666458377,41.714285714285715,0.7559289460184544,25.705428571428573,0.23615282985308195,18.982857142857142,0.04535573676110898,2933.714285714286,451.65979611713436,27.428571428571427,2.14919697074224,8.859285714285715,3.3723629798844668,-0.15692857142857145,0.05824250207210408,-1.0078857142857143,0.015741709836337006,0.05277142857142859,0.03825919123930501,6.356885714285714,6.500213499680496,-0.9635428571428574,2.667657236763589,-3.723042857142854,12.075354772822354,100.0,0.0
30.0,20.0,0.0,1.0,0.0,9.399571428571429,2.369116404002616,-0.0256,0.015627886400064895,0.03757857142857145,0.18174842928514967,3.0617214285714285,1.9465190768517064,41.857142857142854,0.6900655593423541,25.708928571428572,0.24831841597893062,19.0,0.0,2933.714285714286,451.65979611713436,27.428571428571427,2.14919697074224,8.7265,3.2509946811194057,-0.15700000000000003,0.05533458833918137,-1.008857142857143,0.01719911404141284,0.05542857142857143,0.03285755693320865,5.784357142857142,6.173850100182528,-0.5835000000000006,2.294880951886902,-4.621571428571428,13.237543416449329,100.0,0.0
31.0,20.0,0.0,1.0,0.0,9.370121428571428,2.4515362319467395,-0.02487357142857143,0.01692872182472875,-0.009843571428571249,0.09516064630903066,2.9767514285714287,2.073198549748902,41.857142857142854,0.6900655593423541,25.710535714285715,0.2610291725623231,19.0,0.0,2933.714285714286,451.65979611713436,27.428571428571427,2.14919697074224,8.4538,3.0846145928894706,-0.1501357142857143,0.053888393263962046,-1.0090285714285714,0.02071888947198623,0.05857142857142857,0.029113897843110047,5.219957142857145,5.733685899098747,-0.4273857142857148,2.331631314786975,-4.839749999999998,14.120339095403004,100.0,0.0
32.0,20.0,0.0,1.0,0.0,9.280142857142858,2.4932421856270754,-0.02416285714285715,0.017385850294886082,0.02220571428571418,0.0948100147412607,2.8784314285714285,2.141050960622132,41.857142857142854,0.6900655593423541,25.71394285714286,0.2643498115322622,19.0,0.0,2933.714285714286,451.65979611713436,27.428571428571427,2.14919697074224,8.118457142857142,2.8989510786128276,-0.14585714285714285,0.04929891334647102,-1.012857142857143,0.02214669705568285,0.05854285714285714,0.02789616802494907,4.836371428571428,5.4246396874859455,-0.4071714285714287,2.608376538330746,-4.13097142857143,14.635504872479835,100.0,0.0
33.0,20.0,0.0,1.0542857142857154,0.1436264997435089,9.215314285714287,2.5031281898380486,-0.023587142857142855,0.017893447324170298,0.04786999999999986,0.05603712578877229,2.8183742857142855,2.202369011722431,41.857142857142854,0.6900655593423541,25.72057142857143,0.2604399208665065,19.054285714285715,0.14362649974350863,2933.714285714286,451.65979611713436,27.428571428571427,2.14919697074224,7.848857142857143,2.7559725384802256,-0.14017142857142856,0.04990864034365573,-1.016042857142857,0.016771390038083426,0.06017142857142858,0.025407460471661616,4.5226999999999995,5.047221620852405,-0.558114285714286,3.0824733983326733,-3.6399,14.385429648200756,100.0,0.0
34.0,20.0,0.0,1.1428571428571428,0.37796447300922725,9.108857142857143,2.3756842739564137,-0.022948571428571433,0.017622042473912632,0.027457142857143197,0.08377579318520056,2.720468571428572,2.1622492985425192,41.857142857142854,0.6900655593423541,25.73128571428572,0.24838319473863635,19.142857142857142,0.3779644730092272,2933.714285714286,451.65979611713436,27.428571428571427,2.14919697074224,7.291942857142857,2.2667671861464895,-0.1304,0.04082417584389588,-1.0217714285714286,0.01313896422677148,0.06331428571428573,0.022167801617919383,4.4564571428571425,4.868047282315275,-0.6300857142857145,3.424731714761791,-2.0561714285714303,12.87795696241117,100.0,0.0
35.0,20.0,0.0,1.1428571428571428,0.37796447300922725,9.020738095238094,2.296183399117098,-0.022235714285714286,0.017500112244537992,0.01845714285714286,0.050513401097888766,2.6410142857142853,2.163407913014843,41.857142857142854,0.6900655593423541,25.735071428571434,0.24553520259686976,19.142857142857142,0.3779644730092272,2933.714285714286,451.65979611713436,27.428571428571427,2.14919697074224,7.118833333333334,2.3927474909725754,-0.12757142857142856,0.042715559783515045,-1.0247857142857142,0.01656768225305205,0.06564285714285714,0.019537814373061037,4.162523809523809,5.209813699331871,-0.7010952380952381,3.787973271808621,-0.24430952380952417,11.700439728373528,100.0,0.0
36.0,20.0,0.0,1.2257142857142855,0.4040980550500558,8.905838095238094,2.182581107349446,-0.02236571428571429,0.01814588921045467,0.017968571428571303,0.09968677602513634,2.663331428571429,2.2798099914644094,41.857142857142854,0.6900655593423541,25.72194285714286,0.2644059937365441,19.225714285714282,0.4040980550500558,2933.714285714286,451.65979611713436,27.428571428571427,2.14919697074224,7.0828476190476195,2.65214995182854,-0.12845714285714285,0.046673577719549816,-1.0237142857142858,0.019058806238536976,0.06777142857142857,0.016831489762318956,4.267523809523809,5.040965163821027,-0.6059238095238094,3.733860649154115,1.072219047619044,10.137895425595866,100.0,0.0
37.0,20.0,0.0,1.2185714285714286,0.3971745448132586,8.828123809523811,2.196207990446622,-0.022419523809523813,0.019125728204831296,0.043370000000000006,0.08847434562252118,2.660595238095238,2.3755150833153493,41.857142857142854,0.6900655593423541,25.711600000000004,0.29232456847369687,19.00857142857143,0.02267786838055449,2933.714285714286,451.65979611713436,27.428571428571427,2.14919697074224,7.176161904761905,2.986476987493022,-0.12904285714285715,0.05049270102839476,-1.0213857142857141,0.022391324850741384,0.06907142857142858,0.015117838721822908,4.127704761904761,4.59596885954817,-0.36611904761904757,3.669338641482006,1.7706142857142855,9.56206367029429,100.0,0.0
38.0,20.0,0.0,1.2385714285714293,0.7073525422641951,8.71687619047619,2.0611939777634354,-0.02235761904761905,0.020614606356612664,0.0335128571428572,0.07713276578175354,2.623809047619047,2.5582083635613495,41.857142857142854,0.6900655593423541,25.705257142857143,0.3299015957177878,18.952857142857145,0.551504435936053,2933.714285714286,451.65979611713436,27.428571428571427,2.14919697074224,7.444009523809525,3.5072509501462243,-0.1324,0.0581978235560976,-1.0158857142857143,0.02876267422496438,0.07240000000000002,0.01721394783308003,3.9847380952380944,3.737986688363262,0.08364761904761966,3.57359128768646,2.4289857142857145,8.232306248034542,100.0,0.0
39.0,20.0,0.0,1.4350000000000007,0.5287485224565639,8.59082857142857,2.1036121709370024,-0.021653571428571432,0.02176460442903525,0.007863571428571336,0.05112894065613988,2.5781721428571425,2.679908974327699,41.857142857142854,0.6900655593423541,25.694285714285712,0.34625891771222006,19.149285714285718,0.37550442264848394,2933.714285714286,451.65979611713436,27.428571428571427,2.14919697074224,7.675314285714286,3.7677282679923425,-0.1364857142857143,0.06454805518814204,-1.012157142857143,0.033368740718565645,0.07707142857142858,0.0180287468861736,4.057821428571427,3.4086012888790056,0.511842857142857,3.921388427524593,2.9135071428571386,9.038626627168373,100.0,0.0
40.0,20.0,0.0,1.542857142857143,0.5126959555693246,8.507428571428573,2.137066436117734,-0.0212,0.021816201930369702,0.03208571428571429,0.03388546534880054,2.5210857142857144,2.6613441086717637,41.857142857142854,0.6900655593423541,25.698857142857143,0.3423309454175534,19.25714285714286,0.44293394111365675,2933.714285714286,451.65979611713436,27.428571428571427,2.14919697074224,7.8274285714285705,3.8553985897328804,-0.13828571428571426,0.0659942277418116,-1.0122857142857142,0.0313566276126451,0.07657142857142858,0.01619523739516387,3.872571428571429,3.4222432631800084,0.8200000000000001,4.17430840579211,2.7120000000000006,9.833277174980884,100.0,0.0
41.0,20.0,0.0,1.5714285714285714,0.5345224838248488,8.469871428571428,2.221154922342793,-0.020480000000000005,0.02113397028482817,0.05856571428571431,0.08019703150307227,2.4110614285714282,2.6054128867892743,41.857142857142854,0.6900655593423541,25.719571428571435,0.3190161214018588,19.142857142857142,0.3779644730092272,2933.714285714286,451.65979611713436,27.428571428571427,2.14919697074224,7.827185714285713,3.665894257625994,-0.13865714285714287,0.06148137542223274,-1.0129,0.027927942996217998,0.07699999999999999,0.013892443989449804,3.7714714285714295,3.663574540306361,1.189871428571429,4.42401028393707,2.1763428571428567,11.154054765249743,100.0,0.0
42.0,20.0,0.0,1.5714285714285714,0.5345224838248488,8.438314285714286,2.3424851727944636,-0.01971428571428572,0.020812133365854045,0.020577142857142933,0.0372608184354046,2.3209557142857142,2.5321407757985934,41.857142857142854,0.6900655593423541,25.725485714285718,0.30263982679400403,19.142857142857142,0.3779644730092272,2933.714285714286,451.65979611713436,27.428571428571427,2.14919697074224,7.625757142857142,3.166877934631699,-0.13417142857142855,0.056255065380393786,-1.0144285714285715,0.021119478709295383,0.07857142857142858,0.016761634196950516,3.811857142857142,4.128145957875495,1.61022857142857,4.736108994281515,1.9009285714285695,12.375692479576548,100.0,0.0
43.0,20.0,0.0,1.5714285714285714,0.5345224838248488,8.411214285714285,2.426681771767484,-0.01909285714285714,0.020607565531689014,0.021870714285714243,0.029966110362175793,2.2831721428571434,2.5269349254117084,42.0,0.816496580927726,25.737385714285715,0.2985525773269615,19.142857142857142,0.3779644730092272,2933.714285714286,451.65979611713436,27.428571428571427,2.14919697074224,7.493442857142857,2.7830074145650063,-0.13285714285714284,0.05005336675798664,-1.0171214285714285,0.011351573207521297,0.08047142857142855,0.017355759302098553,3.8723285714285707,4.704235844680933,1.9486571428571415,5.330739929833736,2.111085714285714,12.982117703008315,100.0,0.0
44.0,20.0,0.0,1.5714285714285714,0.5345224838248488,8.385257142857144,2.497012042994015,-0.018685714285714285,0.02058682334013908,0.019971428571428796,0.053933938427355325,2.218054285714286,2.48915250864531,42.0,0.816496580927726,25.74708571428572,0.2910025625807633,19.0,0.0,2933.714285714286,451.65979611713436,27.428571428571427,2.14919697074224,7.336428571428571,2.4789259782644337,-0.13068571428571427,0.04642109536878782,-1.0201714285714285,0.003281114793132664,0.08188571428571427,0.020580527088442,3.8118000000000003,5.189583290913957,2.3033428571428574,5.76963521517526,2.5300857142857147,12.995605402779889,100.0,0.0
45.0,20.0,0.0,1.5714285714285714,0.5345224838248488,8.344464285714286,2.543903662142477,-0.018128571428571435,0.019934368503141692,0.026450000000000085,0.047834070842165864,2.1354035714285713,2.4256964448564635,42.0,0.816496580927726,25.755642857142863,0.2888867589970313,19.0,0.0,2933.714285714286,451.65979611713436,27.428571428571427,2.14919697074224,7.243642857142857,2.364446706142998,-0.12853571428571428,0.0437131817865591,-1.0210357142857143,0.0026316525678925493,0.08282142857142857,0.022801093854295258,3.7616071428571436,5.529606514514134,2.520928571428571,6.069020489533788,3.149214285714289,12.73076279417021,100.0,0.0
46.0,20.0,0.0,1.5714285714285714,0.5345224838248488,8.391119047619048,2.56673919622321,-0.01732857142857143,0.01945432893434555,0.012602857142857046,0.06998550366904228,2.0482495238095235,2.375208739133709,42.105714285714285,0.8630731360060032,25.76397142857143,0.2740846688785884,19.0,0.0,2933.714285714286,451.65979611713436,27.428571428571427,2.14919697074224,7.487104761904762,2.8068680856354353,-0.13465714285714286,0.04995153841951407,-1.0178285714285713,0.010816917966117482,0.08285714285714287,0.022886885410853177,3.857823809523809,6.146722537668294,3.0026857142857146,7.047280962051622,3.686485714285714,12.432520287191513,100.0,0.0
47.0,20.0,0.0,1.4900000000000009,0.5006995106848017,8.398538095238095,2.5483072442839068,-0.016795,0.018624774942711836,0.008461428571428491,0.05034377963183781,1.9688161904761905,2.2731140792244133,42.142857142857146,0.8997354108424372,25.77907142857143,0.2596890237334235,18.91857142857143,0.21543974961525694,2933.714285714286,451.65979611713436,27.428571428571427,2.14919697074224,7.670495238095237,3.207883208968328,-0.13734285714285713,0.05508257005450562,-1.0149000000000001,0.018286698262215975,0.08142857142857143,0.02410295378065479,3.780190476190476,6.284815315555018,3.2151928571428576,7.17093340591194,4.157450000000002,11.939576832011259,100.0,0.0
48.0,20.0,0.0,1.4285714285714286,0.5345224838248488,8.359314285714285,2.6021108530246297,-0.015811428571428577,0.01813886750284356,0.03974857142857141,0.07105876146508894,1.8432228571428573,2.1732479379775818,42.142857142857146,0.8997354108424372,25.796914285714287,0.2364771125540576,18.857142857142858,0.3779644730092272,2933.714285714286,451.65979611713436,27.428571428571427,2.14919697074224,7.950799999999999,3.672646428213129,-0.1425142857142857,0.062163103434203046,-1.0126285714285714,0.02283606170699565,0.08222857142857141,0.02414054088635369,3.686514285714286,6.179672318019399,3.1304000000000007,6.958502697180384,4.476514285714287,11.534136335161607,100.0,0.0
49.0,20.0,0.0,1.4285714285714286,0.5345224838248488,8.365014285714286,2.63020043243132,-0.014434285714285714,0.016745118549538408,0.01686571428571436,0.08183776386997674,1.7067500000000002,2.046833410555599,42.142857142857146,0.8997354108424372,25.813842857142863,0.21455378391087898,18.857142857142858,0.3779644730092272,2933.714285714286,451.65979611713436,27.428571428571427,2.14919697074224,8.253328571428572,4.185003532341912,-0.14502857142857145,0.06983241163160352,-1.0093857142857143,0.02703062636907927,0.08115714285714286,0.020584124719700635,3.445742857142858,5.809396606320128,2.8853714285714296,6.145913220646246,4.394728571428573,11.223463538010341,100.0,0.0
50.0,20.0,0.0,1.2857142857142858,0.4879500364742666,8.379999999999999,2.67335151697889,-0.013642857142857142,0.01604801204125266,0.009928571428571455,0.08600178223513204,1.5894642857142858,1.917407985778867,42.142857142857146,0.8997354108424372,25.83857142857143,0.19284523772778384,18.714285714285715,0.4879500364742666,2933.714285714286,451.65979611713436,27.428571428571427,2.14919697074224,8.482500000000002,4.59890589343451,-0.14892857142857144,0.07642884957670792,-1.0053571428571428,0.03029124500263276,0.08035714285714286,0.01770290533056247,3.181428571428572,5.3232833416712175,2.4928571428571424,5.08130876935498,4.130714285714286,11.068320193451303,100.0,0.0
51.0,20.0,0.0,1.537142857142857,0.5049658168534539,8.347,2.671044098600146,-0.012150714285714289,0.014542098206176962,0.02081642857142833,0.08228587073501188,1.4307392857142858,1.691612408759831,42.142857142857146,0.8997354108424372,25.85471428571429,0.15729665633839146,18.965714285714284,0.7682633477060907,2933.714285714286,451.65979611713436,27.428571428571427,2.14919697074224,8.614614285714286,4.8802209579173,-0.14986428571428573,0.07989240010938521,-1.0044214285714286,0.03273901669698883,0.07619285714285715,0.01991817487814057,3.0379499999999995,4.920193856021664,2.230671428571428,4.269343534516083,3.669057142857142,11.133726489942939,100.0,0.0
52.0,20.0,0.0,1.5714285714285714,0.5345224838248488,8.450171428571426,2.8579045083850536,-0.01168,0.012781215383001206,0.02978285714285701,0.04728045604485561,1.3435028571428573,1.499703933778423,42.142857142857146,0.8997354108424372,25.86571428571429,0.1443210706327093,19.0,0.816496580927726,2933.714285714286,451.65979611713436,27.428571428571427,2.14919697074224,8.925314285714286,5.610479840271705,-0.1573142857142857,0.09310115338654379,-1.002457142857143,0.037411177346833,0.07268571428571431,0.016965398960966462,2.405828571428574,3.221125599183354,0.48154285714286255,1.8461012385178501,3.2068000000000008,10.696925896100558,100.0,0.0
53.0,20.0,0.0,1.7142857142857142,0.48795003647426666,8.502235714285714,2.985525998981626,-0.011064285714285712,0.01189686493317022,0.008908571428571405,0.0821753398590623,1.274287142857143,1.398717898585633,42.142857142857146,0.8997354108424372,25.875428571428575,0.11876988555305432,19.142857142857142,0.6900655593423541,2933.714285714286,451.65979611713436,27.428571428571427,2.14919697074224,9.005285714285716,5.945706508741853,-0.15775714285714287,0.09857592432811804,-1.002857142857143,0.03773340063934767,0.07224285714285715,0.01907562643295165,2.0316000000000014,2.14970971141067,-0.9338357142857109,3.8687353057032947,2.9569857142857146,10.506028847988278,100.0,0.0
54.0,20.0,0.0,1.7142857142857142,0.48795003647426666,8.570542857142856,3.1481033013848947,-0.010477142857142857,0.011301046727753013,0.017797142857142987,0.0677593431969066,1.2331371428571425,1.3486642609846018,42.142857142857146,0.8997354108424372,25.87714285714286,0.11426785574754929,19.142857142857142,0.6900655593423541,2933.714285714286,451.65979611713436,27.428571428571427,2.14919697074224,9.022857142857145,6.2013858673840385,-0.1566857142857143,0.10417023612931905,-1.003485714285714,0.03771451659380989,0.07037142857142857,0.022736880047308915,1.656971428571429,1.8034829356130933,-2.574342857142856,7.091279138692614,2.9686285714285714,10.230482062560933,100.0,0.0
55.0,20.0,0.0,1.7142857142857142,0.48795003647426666,8.616357142857144,3.3160421528568977,-0.009940476190476192,0.010248865597311052,-0.0028119047619045334,0.059403732980878254,1.172147619047619,1.2358143080287474,42.142857142857146,0.8997354108424372,25.88714285714286,0.08807464366741852,19.057142857142857,0.5968169536721255,2933.714285714286,451.65979611713436,27.428571428571427,2.14919697074224,8.977285714285715,6.376565172940829,-0.15714285714285717,0.10934872133291207,-1.007095238095238,0.03892560058563489,0.0676190476190476,0.024424243095614053,1.3729761904761895,2.5998000358086153,-4.20552380952381,10.616079685687044,3.121928571428571,9.912006614154755,100.0,0.0
56.0,20.0,0.0,1.7142857142857142,0.48795003647426666,8.628142857142857,3.3576087417769718,-0.009383809523809522,0.009784539472985571,0.0020533333333332023,0.03539774757429241,1.0894495238095236,1.198541426054291,42.142857142857146,0.8997354108424372,25.890314285714286,0.08027634414054674,19.0,0.5773502691896257,2933.714285714286,451.65979611713436,27.428571428571427,2.14919697074224,8.882114285714286,6.415348091212866,-0.1549428571428572,0.1088703641514815,-1.0092190476190477,0.03807948245613354,0.0664952380952381,0.0248860769386584,1.3864666666666654,3.1725233455055584,-5.098533333333334,11.81234669393757,3.6992000000000007,9.684277690497453,100.0,0.0
57.0,20.0,0.0,1.7142857142857142,0.48795003647426666,8.6217,3.4006637239417437,-0.008972857142857144,0.009439252643943293,0.030923571428571387,0.04252777119270478,1.0477207142857143,1.1465984670407674,42.285714285714285,1.1126972805283735,25.895307142857146,0.07291474718562002,18.857142857142858,0.3779644730092272,2933.714285714286,451.65979611713436,27.428571428571427,2.14919697074224,8.80755,6.463064977689249,-0.15434285714285714,0.10903221018186718,-1.0098428571428573,0.03646239419561186,0.06592857142857143,0.02563634882256794,1.5641357142857153,3.8103664406801987,-5.750514285714282,13.012631528176577,4.419250000000001,9.39067452897643,100.0,0.0
58.0,20.0,0.0,1.7142857142857142,0.48795003647426666,8.768685714285713,3.7423752276811983,-0.008837142857142854,0.009493221641932578,0.029712857142856874,0.06630409557845005,1.0243814285714283,1.1417732847407225,42.285714285714285,1.1126972805283735,25.901300000000003,0.06329162661837584,18.857142857142858,0.3779644730092272,2933.714285714286,451.65979611713436,27.428571428571427,2.14919697074224,8.810128571428573,6.52583595582826,-0.15485714285714286,0.10837501029823646,-1.010257142857143,0.03622792924171707,0.06880000000000003,0.02699753075128665,0.9122428571428589,6.398262256232059,-8.179571428571425,19.007995766493824,5.037385714285718,8.706385525660382,100.0,0.0
59.0,20.0,0.0,1.7142857142857142,0.48795003647426666,8.915235714285714,4.131324800100879,-0.008727142857142855,0.00911320784042903,0.0313014285714289,0.03599379827533776,1.0149535714285713,1.130382024172633,42.285714285714285,1.1126972805283735,25.901857142857146,0.06224261287207316,18.857142857142858,0.3779644730092272,2933.714285714286,451.65979611713436,27.428571428571427,2.14919697074224,8.745335714285714,6.437328668963696,-0.15447142857142857,0.10738383978801953,-1.012857142857143,0.03728908942943217,0.07432857142857142,0.027754922343355866,0.17590000000000058,9.29968048949353,-10.600064285714284,24.824579292653922,5.702921428571429,7.5969445627752865,100.0,0.0
60.0,20.0,0.0,1.7142857142857142,0.48795003647426666,8.987857142857143,4.344055648376351,-0.008585714285714285,0.00886762436646715,0.003957142857142715,0.05763094820039148,1.0056714285714283,1.0938157716823032,42.285714285714285,1.1126972805283735,25.904000000000003,0.05149757275833513,18.857142857142858,0.3779644730092272,2933.714285714286,451.65979611713436,27.428571428571427,2.14919697074224,8.767428571428571,6.293691626201134,-0.15342857142857144,0.10470093463902658,-1.010857142857143,0.03608983500206381,0.07942857142857142,0.027073093302250897,-0.011000000000000882,10.94502058776806,-11.42842857142857,27.518957367949962,6.8972857142857125,6.770365640403916,100.0,0.0
61.0,20.0,0.0,1.7142857142857142,0.48795003647426666,9.08682380952381,4.552595332404904,-0.008512142857142855,0.008666531340518563,0.006766428571429164,0.02843875945405687,0.9853438095238095,1.054398380942858,42.285714285714285,1.1126972805283735,25.901428571428575,0.05113008619478102,18.857142857142858,0.3779644730092272,2933.714285714286,451.65979611713436,27.428571428571427,2.14919697074224,8.89079285714286,6.096678152378594,-0.15610000000000004,0.101956118011623,-1.0080428571428572,0.03881828852241585,0.08349999999999999,0.028012556708257336,-0.24465952380952416,12.39360605038033,-12.208419047619046,29.577941270279364,7.450219047619049,6.267884440125068,100.0,0.0
62.0,20.0,0.0,1.5714285714285714,0.5345224838248488,9.234285714285713,4.728937509782568,-0.00831142857142857,0.008246226265331773,0.023841428571428503,0.03849638096781375,0.94505,1.0035709944493216,42.285714285714285,1.1126972805283735,25.9102,0.040455901918014736,18.66857142857143,0.47143145742262366,2933.714285714286,451.65979611713436,27.428571428571427,2.14919697074224,9.123328571428571,5.829980112806071,-0.16002857142857144,0.09625316816059812,-1.0057142857142856,0.038234863173611085,0.08919999999999997,0.033612696014055934,-0.3677285714285691,13.68069130937398,-12.809814285714284,30.88548065625813,8.072771428571428,5.820707785631769,100.0,0.0
63.0,20.0,0.0,1.4799999999999986,0.6827395794395815,9.383614285714286,4.908947781153841,-0.0077114285714285705,0.00768889118267697,0.004112857142857106,0.04488160822812416,0.8969428571428566,0.9260323610744622,42.23428571428571,1.0820791274649184,25.911428571428576,0.03760699023168109,18.479999999999997,0.6827395794395812,2933.714285714286,451.65979611713436,27.428571428571427,2.14919697074224,9.327385714285715,5.57377817505881,-0.16528571428571429,0.09216453454866155,-1.0049571428571427,0.03836681974236145,0.09382857142857139,0.041307978014168745,-0.5531428571428573,14.669137354306958,-13.1748,31.504084623796533,8.363471428571426,5.418995476935518,100.0,0.0
64.0,20.0,0.0,1.5676190476190477,0.5393470479155679,9.503180952380953,5.090348888532507,-0.007274285714285713,0.006643349700120811,0.031687619047619055,0.05253784800518452,0.8430990476190475,0.7811499002295089,42.142857142857146,1.0690449676496974,25.916400000000003,0.02658420583730144,18.567619047619047,0.5393470479155675,2933.714285714286,451.65979611713436,27.428571428571427,2.14919697074224,9.457561904761905,5.325178511472419,-0.16558095238095236,0.08730067000961095,-1.0057142857142856,0.039096949095440016,0.09691428571428572,0.04529883841672722,-0.8081523809523811,15.338823917913718,-13.94152380952381,31.27950274179512,8.539733333333333,5.09008068741984,100.0,0.0
65.0,20.0,0.0,1.342857142857143,0.6502746672423453,9.669035714285714,5.142535493372431,-0.0063750000000000005,0.005814403810079471,0.0454642857142857,0.07676364544434273,0.709617857142857,0.6881757443769793,42.142857142857146,1.0690449676496974,25.920000000000005,0.026457513110646015,18.342857142857145,0.6502746672423455,2933.714285714286,451.65979611713436,27.428571428571427,2.14919697074224,9.707035714285714,5.1540944210011554,-0.17082142857142854,0.08413044364330338,-1.0041428571428572,0.03903173312160492,0.09857142857142856,0.050365686543046156,-1.0840714285714284,15.458706477334415,-14.44882142857143,30.843349691328072,8.552928571428572,4.757938589247198,100.0,0.0
66.0,20.0,0.0,1.4285714285714286,0.5345224838248488,9.887114285714286,5.18946409289327,-0.005565714285714286,0.005273843813712024,0.03188571428571424,0.06773062203984812,0.6218599999999999,0.6221320015345085,42.142857142857146,1.0690449676496974,25.930057142857144,0.017436251235367958,18.428571428571427,0.5345224838248488,2933.714285714286,451.65979611713436,27.428571428571427,2.14919697074224,9.98317142857143,4.90141554169619,-0.17637142857142857,0.07891678558848587,-1.0042,0.03714996635260923,0.1020857142857143,0.05403503272789572,-1.445714285714288,15.454246693107645,-15.071142857142858,30.00932837140573,8.588799999999996,4.959164676972656,100.0,0.0
67.0,20.0,0.0,1.2857142857142858,0.48795003647426666,10.150135714285714,5.422541655957585,-0.005580714285714287,0.004651811858988774,0.01988142857142853,0.060256921712660734,0.6134207142857143,0.5618885664912322,42.142857142857146,1.0690449676496974,25.92571428571429,0.011338934190277246,18.285714285714285,0.7559289460184545,2933.714285714286,451.65979611713436,27.428571428571427,2.14919697074224,10.016185714285713,4.404025243902285,-0.17605714285714286,0.0733722667212178,-1.005385714285714,0.03234771648671302,0.10946428571428568,0.06130642104955042,-1.463135714285715,14.905310038615836,-14.674842857142862,26.71236926399811,8.466614285714288,5.591817713313673,100.0,0.0
68.0,20.0,0.0,1.2857142857142858,0.48795003647426666,10.392714285714288,5.496254190940279,-0.0053514285714285695,0.00502728365545261,-0.005719999999999369,0.03744896616285522,0.5605857142857145,0.6013717187357905,42.142857142857146,1.0690449676496974,25.92571428571429,0.011338934190277246,18.285714285714285,0.7559289460184545,2933.714285714286,451.65979611713436,27.428571428571427,2.14919697074224,10.01865714285714,4.063295730831131,-0.17691428571428572,0.06714986792172244,-1.0069714285714286,0.031239169551793757,0.11457142857142856,0.06511235710384818,-1.5233142857142865,14.111600885728567,-14.562171428571434,24.171283755572055,8.682657142857144,6.2168280837463366,100.0,0.0
69.0,20.0,0.0,1.2857142857142858,0.48795003647426666,10.620100000000003,5.556645846191747,-0.0050342857142857125,0.005535503160336489,0.02318285714285718,0.04667699887320864,0.49995714285714277,0.698984824220438,42.142857142857146,1.0690449676496974,25.922885714285716,0.01250165703302716,18.285714285714285,0.7559289460184545,2933.714285714286,451.65979611713436,27.428571428571427,2.14919697074224,10.003828571428569,3.743868418589827,-0.17907142857142855,0.06282082229870695,-1.0103857142857142,0.027505722348354418,0.11832857142857142,0.06207164447329431,-1.1053142857142857,13.221347503996277,-13.548285714285715,21.551156637129605,9.56318571428572,7.248182305798833,100.0,0.0
70.0,20.0,0.0,1.2857142857142858,0.48795003647426666,10.874142857142855,5.5704122656697335,-0.004414285714285714,0.006251247494548208,0.034828571428571424,0.06167021740099279,0.42498571428571424,0.7819425861885501,42.142857142857146,1.0690449676496974,25.921428571428574,0.014638501094228552,18.142857142857142,0.6900655593423541,2933.714285714286,451.65979611713436,27.428571428571427,2.14919697074224,10.117142857142857,3.4086925366661944,-0.18085714285714286,0.05827071468993829,-1.0137142857142858,0.02511781761827178,0.12285714285714286,0.059361683970466365,-0.4601428571428577,12.211143086385912,-11.976857142857144,18.749469276298385,10.680714285714286,8.69285827014118,100.0,0.0
71.0,20.0,0.0,1.2857142857142858,0.48795003647426666,11.164542857142859,5.537427722585384,-0.004011428571428568,0.006648650059902962,0.0107978571428569,0.04239015293055897,0.38347928571428536,0.8632039888521359,42.142857142857146,1.0690449676496974,25.930957142857146,0.019613588584010855,18.142857142857142,0.6900655593423541,2933.714285714286,451.65979611713436,27.428571428571427,2.14919697074224,10.322685714285715,3.1994197622009386,-0.18425,0.05621960660362774,-1.0143142857142857,0.0222250930685287,0.12564285714285714,0.05541864479104655,0.07317857142857338,11.023764802305406,-10.647299999999998,15.943968427381346,11.55014285714286,9.770379308886831,100.0,0.0
72.0,20.0,0.0,1.2857142857142858,0.48795003647426666,11.4376,5.528428111739057,-0.0024971428571428553,0.007621193507331413,0.0388285714285715,0.060601516875562325,0.21020000000000008,1.0043225269470626,42.142857142857146,1.0690449676496974,25.921085714285717,0.014060278395943709,18.142857142857142,0.6900655593423541,2933.714285714286,451.65979611713436,27.428571428571427,2.14919697074224,10.615771428571431,3.069338290095705,-0.19108571428571428,0.0535824420425021,-1.016,0.018072446799847923,0.12645714285714285,0.052897600989800966,1.0654285714285698,9.781308342908313,-8.261085714285718,12.918139285442603,13.347542857142857,11.39119047083566,100.0,0.0
73.0,20.0,0.0,1.2857142857142858,0.48795003647426666,11.787557142857143,5.454732720570014,-0.0013614285714285712,0.0086876510606942,0.052345714285713975,0.07371026926580879,0.10002571428571441,1.1071613024285296,42.142857142857146,1.0690449676496974,25.924428571428574,0.011282097069504584,18.142857142857142,0.6900655593423541,2933.714285714286,451.65979611713436,27.428571428571427,2.14919697074224,11.203000000000003,3.134103723554795,-0.20051428571428578,0.05568421166337402,-1.0132857142857143,0.013222509667410436,0.12741428571428567,0.04660527254046937,1.893585714285712,8.420367690987648,-6.450614285714292,10.227929722485161,14.763285714285717,11.753547272834782,100.0,0.0
74.0,20.0,0.0,1.331428571428572,0.4714314574226237,12.090257142857142,5.402382767772367,-0.0008200000000000015,0.00901081572334048,0.028939999999999712,0.10492720079496397,0.027840000000000194,1.1154489009064168,42.142857142857146,1.0690449676496974,25.925928571428575,0.018541009886709363,18.18857142857143,0.6073831457278713,2933.714285714286,451.65979611713436,27.428571428571427,2.14919697074224,11.841285714285716,3.5932249634687863,-0.21070000000000005,0.06229395369268733,-1.0086714285714284,0.020369807255324012,0.1251857142857143,0.04719669580847896,2.3073428571428556,7.4456647974637225,-5.445271428571432,8.665347314969415,15.6302,11.13688768552507,100.0,0.0
75.0,20.0,0.0,1.3214285714285714,0.472455591261534,12.384107142857143,5.32802138043356,-0.00010714285714285699,0.009593679715114033,0.045392857142857145,0.0747892674373103,-0.04157142857142864,1.1862000754710897,42.142857142857146,1.0690449676496974,25.921428571428574,0.014638501094228552,18.178571428571427,0.6244044781877788,2933.714285714286,451.65979611713436,27.428571428571427,2.14919697074224,12.212857142857144,4.0045808219492605,-0.21910714285714286,0.06950986997405136,-1.007857142857143,0.03324243558780743,0.12714285714285714,0.04608480795022937,3.180892857142857,5.2912014582723845,-3.8103571428571428,6.764363179648952,16.676964285714284,9.683434250508887,100.0,0.0
76.0,20.0,0.0,1.3771428571428552,0.4854453036719396,12.859914285714286,5.282375541183648,0.00025999999999999564,0.009539399002732474,0.013274285714285175,0.07816626869631679,-0.11502571428571409,1.1827888063225422,42.142857142857146,1.0690449676496974,25.914800000000003,0.020834586628969528,18.23428571428571,0.8470902577422895,2933.714285714286,451.65979611713436,27.428571428571427,2.14919697074224,12.977600000000004,4.9400443236877996,-0.22822857142857148,0.07848833701652148,-1.0034285714285713,0.05025474154364993,0.12922857142857141,0.047560547876214734,3.685828571428572,4.02717581013224,-2.582742857142857,7.686576081901297,17.12162857142857,7.184941928253895,100.0,0.0
77.0,20.0,0.0,1.1428571428571428,0.37796447300922725,13.30775714285714,5.20896612002073,0.0007899999999999958,0.009971608028129995,-0.005035714285714264,0.02653965954136218,-0.18698999999999968,1.2240464493365162,42.142857142857146,1.0690449676496974,25.91457142857143,0.02989658365575759,18.0,0.5773502691896257,2933.714285714286,451.65979611713436,27.428571428571427,2.14919697074224,13.484571428571428,5.163012032626656,-0.23900000000000002,0.0806304119630635,-1.0004428571428572,0.056328910787234204,0.1302857142857143,0.05412234377073942,4.296028571428566,3.908092581944243,-1.8844000000000085,12.971772808551131,17.495542857142855,5.816898898857004,100.0,0.0
78.0,20.0,0.0,1.262857142857144,0.5069422809260191,13.669595238095239,5.161799426356715,0.0014761904761904775,0.010148276888690208,0.03501857142857173,0.05616981705167849,-0.24361428571428562,1.1991518033851698,42.142857142857146,1.0690449676496974,25.923071428571433,0.03172983424085886,18.12,0.9059801322324894,2933.714285714286,451.65979611713436,27.428571428571427,2.14919697074224,13.659766666666668,5.245240890877495,-0.24271428571428574,0.08295813057543802,-1.0034523809523812,0.056405745232538974,0.13496190476190476,0.05687480542440116,5.122442857142857,4.561883778242323,-0.7208857142857173,17.500152001571163,17.71327142857143,5.560250235590213,100.0,0.0
79.0,20.0,0.0,1.268571428571428,0.5015784608423223,14.13684761904762,5.254806054914103,0.001956666666666668,0.009780473744490436,0.036847142857142856,0.07022978753451344,-0.34707857142857174,1.1596423157512632,42.0,1.1547005383792515,25.91318571428571,0.026249598636387546,18.125714285714285,0.9040438253177986,2933.714285714286,451.65979611713436,27.428571428571427,2.14919697074224,13.728590476190478,5.217378273250892,-0.24397142857142856,0.08228573619378014,-1.0053619047619047,0.05023206305468805,0.13842380952380956,0.052874385433030205,6.285099999999997,5.309018446944774,1.06891428571428,20.559726187494853,17.97214285714286,6.533373815484402,100.0,0.0
80.0,20.0,0.0,1.1428571428571428,0.6900655593423541,14.708857142857143,5.147962426325306,0.002828571428571428,0.009021033622542796,0.032742857142857136,0.04871819841848482,-0.4589428571428571,1.093605100660415,42.0,1.1547005383792515,25.916,0.017663521732656097,20.428571428571427,6.451282633635548,2933.714285714286,451.65979611713436,27.428571428571427,2.14919697074224,13.885714285714284,5.1260819903146855,-0.24771428571428572,0.08281246743036197,-1.0054285714285716,0.04670066788550654,0.148,0.039327683210007,7.589714285714286,6.344708286288286,3.321714285714286,23.345989532210776,18.11457142857143,8.463004329770506,100.0,0.0
81.0,20.0,0.0,1.0,0.5773502691896257,15.145350000000004,5.055764910228721,0.004145714285714426,0.008350540615518933,0.09855500000005127,0.1239073520485843,-0.6217857142857116,0.9792641647321547,42.0,1.1547005383792515,25.918714285714287,0.014390671581668702,23.637142857142752,15.359958457284812,2933.714285714286,451.65979611713436,27.428571428571427,2.14919697074224,13.990707142857145,5.290488987673113,-0.25029285714285715,0.08943224823188513,-1.0049357142857143,0.04406526139607897,0.1522357142857143,0.02813376847440508,8.343957142857143,6.53481958227288,4.36772857142857,21.655892116982415,17.70275714285715,9.622292148592106,100.0,0.0
82.0,20.0,0.0,1.0,0.5773502691896257,15.741999999999999,5.086312602793239,0.018821428571428576,0.0387001862306335,0.20803857142857168,0.37475627361564656,-0.5967314285714288,0.7592856695479986,42.0,1.1547005383792515,25.927142857142858,0.023603873774083472,16.0,4.864839839775475,2933.714285714286,451.65979611713436,27.428571428571427,2.14919697074224,13.920300000000001,5.638285388602934,-0.24757142857142858,0.09793483742240236,-1.0001,0.04160644982051062,0.15364285714285716,0.026484955298109476,9.250971428571429,6.570340882509901,4.164257142857152,17.68759827175123,15.145814285714291,12.159240086785664,100.0,0.0
83.0,20.0,0.0,1.0,0.5773502691896257,16.1143,4.994337218624044,0.02246000000000004,0.044593844866752726,0.15891999999999976,0.2653386621533573,-0.7389128571428578,0.604855170012191,41.857142857142854,1.0690449676496974,25.92632857142857,0.02358719386204562,16.0,4.864839839775475,2933.714285714286,451.65979611713436,27.532857142857143,2.306705546052741,13.711185714285717,5.969861963627122,-0.24334285714285714,0.10549025005725815,-0.9961857142857143,0.04566805698265953,0.1577714285714286,0.03415683017522335,9.749300000000002,5.886686372937952,2.433385714285732,14.234851618408094,12.172242857142875,15.08499456577706,100.0,0.0
84.0,20.0,0.0,0.6857142857142857,0.7402444898558196,16.64174285714286,5.04279410210158,0.029377142857142952,0.05917385844956814,0.18468857142857736,0.43392584986486643,-0.8788742857142839,0.608703679383685,41.857142857142854,1.0690449676496974,25.902628571428572,0.06782599585915124,18.78285714285712,8.784315026010253,3010.8571428571427,434.74721719309815,27.571428571428573,2.370453040886408,13.334457142857145,6.160027374088834,-0.23425714285714289,0.11021002460670043,-0.9885999999999999,0.04783847823666638,0.15305714285714286,0.04382156459791825,9.381485714285715,5.357254718425784,-2.1745142857142867,18.836367877365046,7.532800000000017,19.519794061755164,100.0,0.0
85.0,20.0,0.0,0.2857142857142857,0.48795003647426655,17.228,4.8562944292261925,0.027421428571428624,0.07908950550453837,-0.34747142857142777,1.3621718368892706,-1.0957,0.7967674336550994,41.857142857142854,1.0690449676496974,25.87364285714285,0.094431065812455,26.714285714285683,21.3128622019214,3001.5714285714284,421.81427869891473,27.714285714285715,2.2886885410853175,12.563142857142854,6.327971204068788,-0.21821428571428572,0.1116508162169214,-0.9814285714285713,0.04098213896669763,0.15450000000000008,0.04648297179254635,9.133928571428573,5.489423386754545,-8.333857142857147,29.12383429242893,0.3852857142857096,24.134920429841088,100.0,0.0
86.0,20.0,0.0,0.2857142857142857,0.48795003647426655,17.61611428571429,4.719222499320756,0.025350000000000022,0.11064032793998156,0.283587142857161,3.2387673906324452,-1.190794285714285,1.149002984255728,41.857142857142854,1.0690449676496974,25.86077142857143,0.12602330094451653,20.37142857142859,17.911794464887727,3001.5714285714284,421.81427869891473,27.714285714285715,2.2886885410853175,11.655399999999998,6.4877686919309925,-0.20322857142857137,0.11420247683078379,-0.9766,0.032780278623993866,0.1527857142857143,0.04497741761415492,8.59331428571429,6.702247010127422,-13.6532142857143,33.37686630838936,-6.904928571428572,26.042972374053477,100.0,0.0
87.0,20.0,0.0,0.2857142857142857,0.48795003647426655,17.989285714285714,4.6047103507997,0.040048571428571475,0.15071291123950095,-0.2438928571428586,1.3081365872455655,-1.2276071428571431,1.446170758989803,41.857142857142854,1.0690449676496974,25.855085714285714,0.16259343394462353,12.428571428571429,7.3452284479368615,3018.328571428571,431.33323047765026,27.714285714285715,2.2886885410853175,9.797614285714287,7.023742304125477,-0.16958571428571428,0.12320442941944672,-0.9758571428571428,0.02557237162400452,0.1517,0.039262917195066735,7.43014285714286,8.93956356277291,-20.335042857142867,33.59965444980335,-17.618871428571435,26.67430096133194,100.0,0.0
88.0,20.0,0.0,0.0799999999999987,0.1531883372410133,18.124285714285715,4.519796619107462,0.03337714285714282,0.16931373774881986,-0.26174857142857116,1.0999803403611166,-1.3501599999999991,1.6582940890766822,41.857142857142854,1.0690449676496974,25.8444,0.18151936535807908,14.794285714285738,10.74108445354082,3057.4285714285716,469.3459481529792,27.714285714285715,2.2886885410853175,8.074342857142856,7.563158001535497,-0.1392571428571428,0.12883134785632017,-0.9795999999999998,0.03013126836582449,0.14977142857142858,0.03841795215285498,6.152685714285722,10.653372948731391,-23.916400000000028,26.824494994935705,-26.5922285714286,26.47753393034139,100.0,0.0
89.0,20.0,0.0,0.0,0.0,18.27979285714286,4.3970304195396634,0.03526285714285727,0.1813845679731589,1.4623857142857353,3.6388277143555836,-1.424449999999998,1.8942596137717396,41.857142857142854,1.0690449676496974,25.834342857142854,0.20820139974827956,23.059999999999953,22.581169145994107,3057.4285714285716,469.3459481529792,27.714285714285715,2.2886885410853175,5.978285714285714,7.537039125640023,-0.10234285714285714,0.12767462038508742,-0.9845285714285714,0.04204957250221515,0.14417857142857146,0.04581704429160667,5.0659000000000045,11.69691602218294,-25.145407142857152,23.225391693116595,-38.36727857142858,20.39632239988081,100.0,0.0
90.0,20.0,0.0,0.0,0.0,18.23592857142857,4.414162212211315,0.07280714285714285,0.20252621317698488,0.03627857142857024,0.7488645582130447,-1.2672,2.17856036868387,41.857142857142854,1.0690449676496974,25.83328571428572,0.2238278462611489,8.142857142857142,7.537209285241045,3057.4285714285716,469.3459481529792,27.714285714285715,2.2886885410853175,3.5164999999999913,5.95234378907445,-0.05828571428571416,0.09888876627422376,-0.9910714285714286,0.04853729542958737,0.13992857142857137,0.04782121963751077,2.963142857142857,12.195202843448607,-24.657857142857093,27.240970875249495,-50.979000000000056,14.324862044129166,100.0,0.0
91.0,20.0,0.0,0.0,0.0,17.777235714285712,4.38113519143101,0.07050214285714287,0.21212479062761508,-0.09195142857142906,0.29751695068956874,-1.438012857142857,2.4558760843788128,41.857142857142854,1.0690449676496974,25.805485714285712,0.27008785872114116,8.142857142857142,7.537209285241045,3057.4285714285716,469.3459481529792,27.714285714285715,2.2886885410853175,1.1649428571428506,4.609508345386782,-0.015907142857142797,0.08030614561669303,-1.0081214285714286,0.05439118998164175,0.12086428571428567,0.05386551706399391,0.18586428571428243,11.65728201378557,-11.275621428571373,32.16514816425091,-62.898950000000035,12.188735646797006,100.0,0.0
92.0,20.0,0.0,0.0,0.0,17.080857142857145,4.444508758328319,0.06875714285714285,0.2153185666026261,-0.08148571428571418,0.1585556283934382,-1.5455342857142855,2.64053840279375,41.857142857142854,1.0690449676496974,25.789571428571428,0.2948652218346857,8.142857142857142,7.537209285241045,3057.4285714285716,469.3459481529792,27.714285714285715,2.2886885410853175,-0.06040000000000033,4.347633360806775,0.001657142857142861,0.07940929536569502,-1.021942857142857,0.052013551347793216,0.10028571428571427,0.05325596769600652,-2.3683428571428564,12.441077448363965,4.223400000000006,30.59973038770112,-71.03897142857144,12.876711124314626,100.0,0.0
93.0,20.0,0.0,0.0,0.0,16.266014285714284,4.656580318727669,0.06803928571428572,0.21624554296810702,-0.06692785714285673,0.13502425102727392,-1.6049049999999998,2.742067515137984,41.857142857142854,1.0690449676496974,25.77810714285714,0.31447812911310064,8.142857142857142,7.537209285241045,3057.4285714285716,469.3459481529792,27.714285714285715,2.2886885410853175,0.1406571428571461,4.85670001882525,-0.0010428571428572303,0.08823228542022588,-1.030242857142857,0.04606270570801125,0.06859999999999986,0.05279845326017289,-4.6578714285714335,11.023649103134934,18.811242857142894,27.099927800633065,-75.19157142857145,14.324372171549035,100.0,0.0
94.0,20.0,0.0,0.0,0.0,14.780761904761905,4.216100497582365,0.06620666666666666,0.21715333036564022,-0.09677904761904751,0.15677735326008677,-1.6794685714285715,2.8683039158791415,41.857142857142854,1.0690449676496974,25.77917142857143,0.32590408463373344,8.142857142857142,7.537209285241045,3057.4285714285716,469.3459481529792,27.714285714285715,2.2886885410853175,2.0879428571428553,5.657152520145664,-0.03482857142857139,0.10185836104260516,-1.0380857142857143,0.041341320272879074,0.02719999999999995,0.06075217417234268,-8.42906666666667,9.798045833056037,37.46220000000002,21.184502153225115,-76.74384761904764,18.377815410684875,100.0,0.0
95.0,20.0,0.0,0.0,0.0,12.996571428571423,3.979547047388803,0.06484999999999999,0.21730685868912036,-0.20345714285714628,0.3366937659414194,-1.67995,2.8692711648605127,41.857142857142854,1.0690449676496974,25.774571428571427,0.3143770862848503,8.142857142857142,7.537209285241045,3057.4285714285716,469.3459481529792,27.714285714285715,2.2886885410853175,5.483785714285726,6.516384784123943,-0.0970000000000002,0.11826946633289045,-1.025,0.041640325006736784,-0.01678571428571445,0.07684066693644785,-12.952071428571447,7.750691347811983,48.09035714285715,24.270195845787033,-71.65014285714282,20.110469847226106,100.0,0.0
96.0,20.0,0.0,0.1257142857142883,0.3326087362481268,11.074438095238094,4.072927662442829,0.05073238095238099,0.20899289048437955,0.07718857142859004,0.1635873568290015,-1.6322742857142865,2.7876593701458416,41.857142857142854,1.0690449676496974,25.800971428571426,0.2886845436012909,8.26857142857143,7.75273592260915,3057.4285714285716,469.3459481529792,27.714285714285715,2.2886885410853175,9.155999999999993,7.330113839952723,-0.1602190476190475,0.13263724248957393,-1.0141619047619048,0.044472577603846646,-0.04112380952380956,0.08122947310913267,-16.640209523809528,6.871331690806327,53.06622857142856,23.117965921891034,-63.39219047619047,20.101341783975222,100.0,0.0
97.0,20.0,0.0,0.0,0.0,9.083195238095232,3.8704180978779177,0.05401571428571428,0.20919486910989182,-0.5138892857142917,1.1236545125186745,-1.6394890476190465,2.802176680597445,41.857142857142854,1.0690449676496974,25.810709523809525,0.27213573323175927,8.142857142857142,7.537209285241045,3057.4285714285716,469.3459481529792,27.714285714285715,2.2886885410853175,12.401530952380954,7.798343743779871,-0.22156666666666672,0.139892478552478,-1.0047833333333334,0.03994481957790161,-0.052164285714285726,0.08081800910216792,-21.712292857142863,8.623416549548317,52.27918571428571,23.439424340515746,-51.653466666666624,16.382054959314384,100.0,0.0
98.0,20.0,0.0,0.0,0.0,7.178561904761902,3.582846922202572,0.04242142857142835,0.189393169221118,-0.9046728571428757,2.207852966305474,-1.8509380952380943,3.2211386368837633,41.857142857142854,1.0690449676496974,25.803190476190476,0.287682773924158,8.142857142857142,7.537209285241045,3057.4285714285716,469.3459481529792,27.714285714285715,2.2886885410853175,14.01261904761904,6.82648992953885,-0.25499047619047605,0.1271489964631547,-1.009309523809524,0.03451597973610011,-0.03281428571428562,0.06284452849616086,-23.610242857142858,10.177637783863396,47.02707142857141,23.83107865839023,-38.475304761904745,11.73562162407646,100.0,0.0
99.0,20.0,0.0,0.0,0.0,4.928685714285714,3.889012530805464,0.019465714285714364,0.15613341046010878,0.6626600000000119,2.60027401433644,-1.7351814285714295,3.010485566484964,41.857142857142854,1.0690449676496974,25.83394285714286,0.23237216454890405,8.142857142857142,7.537209285241045,3057.4285714285716,469.3459481529792,27.714285714285715,2.2886885410853175,14.482299999999992,6.409351490595597,-0.26609999999999984,0.11807421395037955,-1.0266000000000002,0.0536346591922301,0.015928571428571542,0.06388168006258946,-25.68401428571428,10.983990241320718,39.0782857142857,22.821216829552025,-22.800657142857144,10.765596718847414,100.0,0.0
100.0,20.0,0.0,0.0,0.0,2.724285714285714,3.5288471070254523,0.01214285714285714,0.11961525623351531,0.13642857142857143,2.390287699360536,-1.4485714285714286,2.4845554167793518,41.857142857142854,1.0690449676496974,25.909999999999997,0.11015141094572131,8.142857142857142,7.537209285241045,3057.4285714285716,469.3459481529792,27.714285714285715,2.2886885410853175,13.421428571428569,6.366991515023477,-0.24714285714285714,0.11368293418015532,-1.052857142857143,0.0677530529974568,0.07714285714285715,0.07250615737399725,-26.27,9.345603244306918,30.41571428571429,18.793543090773543,-6.61,2.7515874206234727,100.0,0.0
