cycle_index,gait_percent,segment_id,walk_dt_ms,walk_exec_ms,walk_out,walk_state,walk_tilt_forward_deg,walk_pos_rad,walk_vel_rad_s,walk_tq_nm,walk_temp_c,walk_vbus_v,walk_err_code,walk_fb_age_ms,walk_typical_stride_ms,walk_effective_step_count,walk_tilt_accel_deg,walk_acc_x,walk_acc_y,walk_acc_z,walk_gyr_x,walk_gyr_y,walk_gyr_z,cfg_gait_model,cfg_gait_mode,cfg_side_is_left,cfg_assist_pct,ankle_joint_angle_deg,leg_tilt_angle_deg,foot_tilt_angle_deg
6,0.0,2,20.0,1.0,0,1,8.9,-0.111,-0.746,-0.0,38.0,25.97,0,3.0,0.0,1.0,7.78,-0.14,-1.02,-0.06,-1.67,1.33,-1.84,0,1,1,100.0,6.359831525952138,8.9,-2.5401684740478627
6,1.0,2,20.0,0.0,0,1,8.9381,-0.14887,-2.08907,-0.0,38.0,25.9624,0,2.0,0.0,1.0,7.4542,-0.13190000000000002,-1.02,-0.07,0.8183000000000004,0.9542,2.5490000000000004,0,1,1,100.0,8.529622696112565,8.9381,-0.40847730388743564
6,2.0,2,20.0,0.0,0,1,8.9481,-0.18397,-2.41892,-0.0,38.0,25.97,0,2.0,0.0,1.0,7.2823,-0.13,-1.0281,-0.07,2.3131000000000004,0.8471,6.340000000000001,0,1,1,100.0,10.540704557021755,8.9481,1.5926045570217546
6,3.0,2,20.0,0.0,0,1,8.95215,-0.245935,-0.8469149999999999,-0.0,38.0,25.97,0,2.0,0.0,1.0,7.1001,-0.13,-1.03,-0.07,6.344200000000001,0.6041,19.2928,0,1,1,100.0,14.0910375345499,8.95215,5.1388875345499
6,4.0,2,20.0,0.0,0,1,8.9648,-0.2542,-0.2803599999999998,-0.0,38.0,25.97,0,2.0,0.0,1.0,7.2940000000000005,-0.13240000000000002,-1.03,-0.07,8.312000000000001,0.3015999999999998,25.231200000000005,0,1,1,100.0,14.564587152225526,8.9648,5.599787152225526
6,5.0,2,20.0,0.0,0,1,9.0235,-0.2579,0.0558,-0.0,38.0,25.97,0,2.0,0.0,1.0,8.1785,-0.1505,-1.03,-0.07,12.1395,-0.5820000000000001,33.786500000000004,0,1,1,100.0,14.776581536423931,9.0235,5.753081536423931
6,6.0,2,20.0,0.0,0,1,9.2602,-0.24198,0.8427899999999999,-0.0,38.0,25.97,0,2.0,0.0,1.0,10.291500000000001,-0.18860000000000002,-1.0157,-0.0657,17.1098,-2.1295,37.6808,0,1,1,100.0,13.86443272657566,9.2602,4.6042327265756615
6,7.0,2,20.0,0.0,0,1,9.7008,-0.22063999999999998,0.5204700000000007,-0.0,38.0,25.9432,0,2.0,0.0,1.0,12.740300000000001,-0.22340000000000004,-1.0033,-0.043299999999999984,20.396900000000002,-3.301300000000001,33.192299999999996,0,1,1,100.0,12.641740791766482,9.7008,2.940940791766483
6,8.0,2,20.0,0.0,0,1,10.2232,-0.21548,-0.022680000000000044,-0.0,38.0,25.97,0,2.0,0.0,1.0,14.478800000000001,-0.2548,-0.9852,-0.02519999999999999,21.2952,-3.6395999999999997,25.921599999999994,0,1,1,100.0,12.346094569478979,10.2232,2.1228945694789783
6,9.0,2,20.0,0.0,0,1,10.818,-0.22016,-0.39716500000000005,-0.0,38.0,25.97,0,2.0,0.0,1.0,15.52365,-0.27,-0.97,0.001450000000000003,20.62225,-3.47375,19.14425,0,1,1,100.0,12.614238817600205,10.818,1.796238817600205
6,10.0,2,20.0,0.0,0,1,11.202,-0.2279,-0.6095,-0.0,38.0,25.97,0,2.0,0.0,1.0,15.858,-0.271,-0.97,0.011,19.686999999999998,-3.231,16.036,0,1,1,100.0,13.057708151031461,11.202,1.855708151031461
6,11.0,2,20.0,0.0,0,1,11.7802,-0.237365,-0.23293499999999961,-0.0,38.0,25.9518,0,2.0,0.0,1.0,16.0291,-0.28,-0.97,0.02455000000000001,17.952099999999998,-2.8335,13.143849999999999,0,1,1,100.0,13.600012704122785,11.7802,1.8198127041227838
6,12.0,2,20.0,0.0,6,2,13.1996,-0.18227999999999986,4.37992000000001,-2.253760000000005,38.0,25.5688,0,18.0,0.0,1.0,15.584399999999999,-0.28,-0.9872,0.04720000000000002,13.8988,-1.9563999999999997,9.491599999999996,0,1,1,100.0,10.443874689644637,13.1996,-2.7557253103553627
6,13.0,2,20.0,0.0,6,2,13.952000000000002,-0.07150999999999996,2.4184999999999977,-3.5001400000000005,38.0,25.5824,0,18.0,0.0,1.0,15.1428,-0.27,-1.0153,0.05,12.6603,-2.0648000000000004,5.0818999999999965,0,1,1,100.0,4.0972211929805145,13.952000000000002,-9.854778807019487
6,14.0,2,20.0,0.6700000000000017,6,2,14.3879,-0.04661999999999998,0.969719999999999,-3.66637,38.0,25.6401,0,18.67,0.0,1.0,14.9429,-0.27,-1.0267,0.056700000000000014,12.1955,-2.2472000000000003,1.9709999999999954,0,1,1,100.0,2.671129240899897,14.3879,-11.716770759100104
6,15.0,2,20.0,0.5750000000000001,6,2,15.044,-0.02855,0.44162499999999993,-2.8291,38.0,25.76025,0,18.575,0.0,1.0,15.05225,-0.27575000000000005,-1.03,0.06,11.55575,-2.39,-2.536,0,1,1,100.0,1.6357945050985003,15.044,-13.4082054949015
6,16.0,2,20.0,1.0,6,2,15.700000000000001,-0.023,-0.11228000000000028,-2.9201200000000003,38.0,25.79,0,19.0,0.0,1.0,16.214,-0.2896,-1.0008,0.07,9.955199999999998,-2.2236,-6.784800000000003,0,1,1,100.0,1.3178029288008934,15.700000000000001,-14.382197071199109
6,17.0,2,20.0,1.0,6,2,16.058600000000002,-0.027310000000000015,-0.21100000000000046,-3.369150000000001,38.0,25.7292,0,19.0,0.0,1.0,17.661400000000004,-0.30770000000000003,-0.9645999999999999,0.08770000000000004,7.623499999999994,-2.2108000000000003,-9.710500000000007,0,1,1,100.0,1.564747738502279,16.058600000000002,-14.493852261497723
6,18.0,2,20.0,1.0,6,2,16.25933333333333,-0.03058,-0.15922666666666666,-3.8540333333333336,38.0,25.676466666666666,0,19.0,0.0,1.0,18.676666666666666,-0.32,-0.9361333333333333,0.09,5.303599999999999,-2.4322,-12.168000000000001,0,1,1,100.0,1.7521049375100575,16.25933333333333,-14.507228395823272
6,19.0,2,20.0,1.0,6,2,16.319666666666667,-0.03239,-0.15681333333333333,-4.032016666666666,38.0,25.634233333333334,0,19.0,0.0,1.0,18.97833333333333,-0.32,-0.9240666666666667,0.09,4.253799999999998,-2.5951000000000004,-13.254000000000001,0,1,1,100.0,1.8558102984287366,16.319666666666667,-14.46385636823793
6,20.0,2,20.0,1.0,6,2,16.444,-0.0358,0.014,-4.2584,38.0,25.587999999999997,0,19.0,0.0,1.0,18.254,-0.306,-0.922,0.09,-0.648,-3.546,-18.58,0,1,1,100.0,2.0511889065683473,16.444,-14.392811093431652
6,21.0,2,20.0,1.0,6,2,16.359199999999998,-0.033979999999999996,0.12164999999999991,-3.97604,38.0,25.6203,0,19.0,0.0,1.0,16.478499999999997,-0.2798,-0.9501,0.08,-1.6602,-3.6797,-19.6678,0,1,1,100.0,1.9469105878545372,16.359199999999998,-14.41228941214546
6,22.0,2,20.0,1.0,6,2,16.1816,-0.031179999999999996,0.10832000000000012,-3.6434199999999994,38.0,25.6828,0,19.0,0.0,1.0,14.405199999999994,-0.25179999999999997,-0.9764,0.07179999999999996,-1.4503999999999986,-3.5761999999999996,-18.7858,0,1,1,100.0,1.7864824052179067,16.1816,-14.395117594782093
6,23.0,2,20.0,1.0,6,2,15.96645,-0.029685,0.028995000000000038,-3.53005,38.0,25.69,0,19.0,0.0,1.0,12.8502,-0.22685,-1.00315,0.07,-0.7178499999999997,-3.38645,-16.64465,0,1,1,100.0,1.7008252148458487,15.96645,-14.265624785154152
6,24.0,2,20.0,1.0,6,2,15.563199999999998,-0.027559999999999998,0.10560000000000022,-3.176239999999999,38.0,25.7376,0,19.0,0.0,1.0,11.261199999999999,-0.20559999999999998,-1.0244,0.07,0.605200000000002,-3.0195999999999996,-12.020799999999992,0,1,1,100.0,1.5790716833805487,15.563199999999998,-13.984128316619449
6,25.0,2,20.0,1.0,6,2,15.344166666666666,-0.026166666666666664,0.13616666666666663,-2.9932499999999993,38.0,25.76,0,19.0,0.0,1.0,10.849166666666667,-0.19583333333333333,-1.03,0.07,1.1175000000000008,-2.8633333333333333,-9.664166666666661,0,1,1,100.0,1.499239563925654,15.344166666666666,-13.844927102741012
6,26.0,2,20.0,1.0,6,2,14.7125,-0.023,0.10505999999999989,-2.76128,38.0,25.789099999999998,0,19.0,0.0,1.0,10.7693,-0.19030000000000002,-1.0197,0.08,1.7572999999999999,-2.4467,-4.375499999999999,0,1,1,100.0,1.3178029288008934,14.7125,-13.394697071199108
6,27.0,2,20.0,1.0,6,2,14.48625,-0.023,0.01636999999999978,-2.83006,38.0,25.761950000000002,0,19.0,0.0,1.0,11.049850000000001,-0.19935000000000003,-1.01065,0.08,1.6758499999999998,-2.3471499999999996,-3.3347499999999974,0,1,1,100.0,1.3178029288008934,14.48625,-13.168447071199108
6,28.0,2,20.0,1.0,6,2,14.049999999999999,-0.024680000000000007,-0.017560000000000117,-2.935000000000001,38.0,25.7696,0,19.0,0.0,1.0,11.826400000000003,-0.20680000000000007,-1.0,0.08680000000000007,1.2155999999999978,-2.2936,-2.7912000000000003,0,1,1,100.0,1.4140598383828722,14.049999999999999,-12.635940161617127
6,29.0,2,20.0,0.4900000000000091,6,2,13.627299999999998,-0.02549000000000001,-0.015519999999999525,-3.1008300000000006,38.0,25.76,0,18.49000000000001,0.0,1.0,12.660900000000003,-0.22,-0.9850999999999999,0.08,0.5339999999999964,-2.680700000000004,-4.00900000000001,0,1,1,100.0,1.460469419788469,13.627299999999998,-12.16683058021153
6,30.0,2,20.0,1.0,6,2,13.243,-0.0263,-0.047,-3.2108,38.0,25.748,0,19.0,0.0,1.0,13.279,-0.23,-0.977,0.067,-0.225,-4.197,-6.394,0,1,1,100.0,1.5068790011940651,13.243,-11.736120998805935
6,31.0,2,20.0,1.0,6,2,12.7324,-0.028,-0.1121599999999999,-3.3478500000000007,38.0,25.72,0,19.0,0.0,1.0,13.427,-0.23,-0.9811,0.038899999999999976,-1.7082000000000013,-11.172200000000009,-10.058100000000001,0,1,1,100.0,1.604281826366305,12.7324,-11.128118173633695
6,32.0,2,20.0,1.0,6,2,12.520999999999999,-0.028460000000000003,-0.04217999999999984,-3.4818000000000002,38.0,25.72,0,19.0,0.0,1.0,12.9162,-0.2254,-0.9946,0.025399999999999978,-2.5406000000000013,-16.87520000000001,-10.759,0,1,1,100.0,1.630637884942323,12.520999999999999,-10.890362115057677
6,33.0,2,20.0,1.0,6,2,12.330499999999999,-0.029,0.0684600000000007,-3.48121,38.0,25.72,0,19.0,0.0,1.0,12.082499999999996,-0.21269999999999992,-1.0073,0.012699999999999932,-3.2642000000000038,-22.932400000000033,-10.474999999999996,0,1,1,100.0,1.6615776058793874,12.330499999999999,-10.668922394120612
6,34.0,2,20.0,1.0,6,2,11.924399999999999,-0.02745999999999999,0.044699999999999136,-3.1808399999999986,38.0,25.741600000000002,0,19.0,0.0,1.0,9.590199999999992,-0.17459999999999992,-1.03,0.02540000000000009,-4.284200000000002,-35.16680000000003,-6.575599999999983,0,1,1,100.0,1.57334210542924,11.924399999999999,-10.351057894570758
6,35.0,2,20.0,1.0,6,2,11.7002,-0.025,0.1353,-3.02627,38.0,25.76,0,19.0,0.0,1.0,8.412199999999999,-0.1493,-1.03,0.0414,-4.571199999999999,-39.025999999999996,-3.8157,0,1,1,100.0,1.4323944878270582,11.7002,-10.267805512172941
6,36.0,2,20.0,1.0,6,2,11.64952,-0.025,0.0592799999999999,-3.012152,38.0,25.76,0,19.0,0.0,1.0,8.216719999999999,-0.14568,-1.03,0.04864000000000001,-4.6291199999999995,-39.3156,-3.2763199999999992,0,1,1,100.0,1.4323944878270582,11.64952,-10.217125512172942
6,37.0,2,20.0,1.0,6,2,11.598840000000001,-0.025,-0.016740000000000185,-2.998034,38.0,25.76,0,19.0,0.0,1.0,8.021239999999999,-0.14206,-1.03,0.05588000000000002,-4.68704,-39.6052,-2.736939999999999,0,1,1,100.0,1.4323944878270582,11.598840000000001,-10.166445512172942
6,38.0,2,20.0,1.0,6,2,11.5115,-0.025,-0.07989000000000017,-3.0169100000000006,38.0,25.76,0,19.0,0.0,1.0,7.777399999999999,-0.14,-1.0261,0.06780000000000007,-4.7746,-39.5165,-2.047799999999997,0,1,1,100.0,1.4323944878270582,11.5115,-10.07910551217294
6,39.0,2,20.0,1.0,6,2,10.799199999999999,-0.02640999999999999,-0.01832000000000044,-3.1691,38.0,25.7436,0,19.0,0.0,1.0,7.386899999999999,-0.13,-1.0,0.12,-4.608099999999997,-25.399599999999968,-3.462800000000008,0,1,1,100.0,1.5131815369405035,10.799199999999999,-9.286018463059495
6,40.0,2,20.0,1.0,6,2,10.536,-0.0263,0.0040999999999999925,-3.1386000000000003,38.0,25.732,0,19.0,0.0,1.0,7.057,-0.123,-1.01,0.113,-3.387,-18.301000000000002,-4.823,0,1,1,100.0,1.5068790011940651,10.536,-9.029120998805935
6,41.0,2,20.0,1.0,6,2,10.247399999999999,-0.025,-0.006840000000000009,-3.012115,38.0,25.76,0,19.0,0.0,1.0,6.62845,-0.12,-1.02105,0.09895,-1.545999999999999,-11.704799999999997,-4.6785499999999995,0,1,1,100.0,1.4323944878270582,10.247399999999999,-8.815005512172942
6,42.0,2,20.0,1.0,6,2,10.0292,-0.023993333333333332,-0.005873333333333305,-2.8668733333333334,38.0,25.7602,0,19.0,0.0,1.0,6.480333333333334,-0.12,-1.03,0.09,-0.02493333333333218,-7.7285999999999975,-3.6155999999999993,0,1,1,100.0,1.374716736450555,10.0292,-8.654483263549444
6,43.0,2,20.0,1.0,6,2,9.9568,-0.023389999999999998,0.005590000000000042,-2.85541,38.0,25.7783,0,19.0,0.0,1.0,6.5105,-0.12,-1.03,0.09,0.4336000000000017,-6.696899999999996,-3.2173999999999987,0,1,1,100.0,1.3401482828109954,9.9568,-8.616651717189004
6,44.0,2,20.0,1.0,6,2,9.5932,-0.023,-0.03688000000000038,-2.81352,38.0,25.79,0,19.0,0.0,1.0,7.059200000000002,-0.1264000000000001,-1.0235999999999998,0.08,2.275200000000004,-2.6179999999999906,-1.9623999999999993,0,1,1,100.0,1.3178029288008934,9.5932,-8.275397071199105
6,45.0,2,20.0,1.0,6,2,9.380499999999998,-0.022549999999999987,-0.0064999999999994324,-2.596799999999999,38.0,25.79,0,19.0,0.0,1.0,7.529000000000003,-0.13450000000000012,-1.0154999999999998,0.08,2.6880000000000006,-1.0414999999999917,-2.4040000000000057,0,1,1,100.0,1.2920198280200057,9.380499999999998,-8.088480171979992
6,46.0,2,20.0,1.0,6,2,9.174,-0.020479999999999995,0.12765999999999986,-2.3795599999999992,38.0,25.83,0,19.0,0.0,1.0,7.785200000000001,-0.14,-1.01,0.08260000000000002,2.428599999999999,0.13040000000000124,-3.5650000000000017,0,1,1,100.0,1.1734175644279257,9.174,-8.000582435572074
6,47.0,2,20.0,1.0,6,2,8.9865,-0.017964999999999995,0.046,-2.0979399999999995,38.0,25.831049999999998,0,19.0,0.0,1.0,7.73545,-0.13965,-1.01,0.09,1.5458499999999984,0.9822500000000007,-4.850650000000002,0,1,1,100.0,1.0293186789525237,8.9865,-7.957181321047476
6,48.0,2,20.0,1.0,6,2,8.896,-0.01706,0.046,-1.9929599999999996,38.0,25.8582,0,19.0,0.0,1.0,7.6178,-0.13059999999999997,-1.01,0.09,0.9213999999999977,1.2990000000000013,-5.384600000000002,0,1,1,100.0,0.9774659984931844,8.896,-7.918534001506816
6,49.0,2,20.0,1.0,6,2,8.627899999999999,-0.016,-0.029509999999999807,-1.9408000000000003,38.0,25.86,0,19.0,0.0,1.0,7.041299999999998,-0.1230999999999999,-1.0169000000000001,0.08,-0.9302000000000054,1.7952000000000008,-6.019299999999999,0,1,1,100.0,0.9167324722093172,8.627899999999999,-7.711167527790681
6,50.0,2,20.0,1.0,6,2,8.524999999999999,-0.016,-0.058250000000000274,-1.9515,38.0,25.86,0,19.0,0.0,1.0,6.789999999999999,-0.12,-1.02,0.08,-1.4175000000000024,1.8275000000000001,-5.799999999999999,0,1,1,100.0,0.9167324722093172,8.524999999999999,-7.608267527790681
6,51.0,2,20.0,1.0,6,2,8.2845,-0.017,-0.060899999999999975,-2.0375400000000004,38.0,25.86,0,19.0,0.0,1.0,6.2721,-0.11,-1.02155,0.07,-1.7467499999999998,1.6036499999999998,-4.408249999999999,0,1,1,100.0,0.9740282517223996,8.2845,-7.3104717482776
6,52.0,2,20.0,1.0,6,2,8.186799999999998,-0.017120000000000007,-0.05276000000000033,-2.09728,38.0,25.86,0,19.0,0.0,1.0,6.101999999999999,-0.11,-1.03,0.07,-1.5851999999999988,1.4371999999999991,-3.5735999999999954,0,1,1,100.0,0.9809037452639697,8.186799999999998,-7.205896254736029
6,53.0,2,20.0,1.0,6,2,7.997,-0.018,-0.010049999999999224,-2.11586,38.0,25.86,0,19.0,0.0,1.0,5.849099999999999,-0.11,-1.03,0.06069999999999993,-0.9579999999999973,1.0839999999999987,-1.7341999999999926,0,1,1,100.0,1.0313240312354817,7.997,-6.9656759687645184
6,54.0,2,20.0,1.0,6,2,7.755333333333333,-0.017,0.09226666666666643,-2.0862600000000002,38.0,25.86,0,19.0,0.0,1.0,5.657666666666667,-0.1,-1.03,0.06,0.23800000000000182,0.7228666666666663,0.8636666666666701,0,1,1,100.0,0.9740282517223996,7.755333333333333,-6.781305081610933
6,55.0,2,20.0,1.0,6,2,7.694999999999999,-0.017,0.0439999999999997,-2.08445,38.0,25.86,0,19.0,0.0,1.0,5.6274999999999995,-0.1,-1.03,0.06,0.6000000000000023,0.6564999999999996,1.5575000000000043,0,1,1,100.0,0.9740282517223996,7.694999999999999,-6.7209717482775995
6,56.0,2,20.0,1.0,6,2,7.557599999999999,-0.017,0.021320000000000165,-2.06936,38.0,25.86,0,19.0,0.0,1.0,5.59,-0.1,-1.0336,0.06,1.5920000000000096,0.5763999999999998,3.3284000000000162,0,1,1,100.0,0.9740282517223996,7.557599999999999,-6.583571748277599
6,57.0,2,20.0,1.0,6,2,7.379049999999999,-0.017,0.028515000000000134,-2.011015,38.0,25.86,0,19.0,0.0,1.0,5.6392500000000005,-0.1,-1.04,0.06,3.268000000000002,0.59755,5.993700000000003,0,1,1,100.0,0.9740282517223996,7.379049999999999,-6.4050217482775995
6,58.0,2,20.0,1.0,6,2,7.250799999999999,-0.017,-0.00152000000000044,-1.97914,38.0,25.86,0,19.0,0.0,1.0,5.808400000000001,-0.10980000000000019,-1.04,0.06,5.332200000000016,0.6694000000000006,8.994400000000024,0,1,1,100.0,0.9740282517223996,7.250799999999999,-6.276771748277599
6,59.0,2,20.0,2.0,6,2,7.2,-0.015209999999999991,-0.01320999999999999,-1.7731499999999991,38.0,25.86,0,20.0,0.0,1.0,6.086900000000001,-0.11,-1.04,0.06,7.891000000000008,0.7953000000000007,12.911300000000013,0,1,1,100.0,0.8714688063939816,7.2,-6.328531193606018
6,60.0,2,20.0,2.0,6,2,7.216,-0.0142,0.0798,-1.6474000000000002,38.0,25.892,0,20.0,0.0,1.0,6.19,-0.11,-1.048,0.068,8.767999999999999,0.9139999999999999,14.484,0,1,1,100.0,0.813600069085769,7.216,-6.402399930914231
6,61.0,2,20.0,2.0,6,2,7.2388,-0.013529999999999995,0.14248000000000038,-1.528469999999999,38.0,25.914099999999998,0,20.0,0.0,1.0,6.266400000000001,-0.11470000000000004,-1.05,0.07,9.316000000000004,1.034000000000001,15.589600000000008,0,1,1,100.0,0.7752118968120035,7.2388,-6.4635881031879965
6,62.0,2,20.0,2.0,6,2,7.526400000000001,-0.006779999999999995,0.061080000000000065,-0.7753999999999989,38.0,25.93,0,19.0,0.0,1.0,6.820600000000001,-0.13,-1.0522,0.08220000000000005,11.966400000000002,2.6294000000000035,22.491200000000006,0,1,1,100.0,0.3884653850986979,7.526400000000001,-7.137934614901303
6,63.0,2,20.0,2.0,6,2,7.697250000000001,-0.005484999999999991,0.07406000000000003,-0.4919699999999982,38.0,25.93,0,19.0,0.0,1.0,7.149350000000003,-0.1351500000000001,-1.06,0.09,12.774450000000005,3.724400000000009,25.01910000000002,0,1,1,100.0,0.31426735062925604,7.697250000000001,-7.382982649370745
6,64.0,2,20.0,2.0,6,2,7.921200000000002,-0.003319999999999982,0.06003999999999983,-0.23607999999999826,38.0,25.93,0,19.0,0.0,1.0,7.592400000000003,-0.14,-1.06,0.0984000000000001,13.634400000000007,5.206400000000011,27.497200000000017,0,1,1,100.0,0.19022198798343226,7.921200000000002,-7.730978012016569
6,65.0,2,20.0,2.0,6,2,8.33975,-0.00034999999999999994,0.1094,0.18915,38.0,25.93,0,19.0,0.0,1.0,8.51075,-0.15825,-1.05175,0.10825,15.0935,8.193,30.744,0,1,1,100.0,0.02005352282957881,8.33975,-8.319696477170421
6,66.0,2,20.0,2.0,6,2,8.768800000000004,0.0019200000000000274,0.16883999999999938,0.5623600000000036,38.0,25.93,0,19.0,0.0,1.0,9.483600000000008,-0.17460000000000014,-1.05,0.12,16.474800000000013,11.144800000000025,32.85520000000002,0,1,1,100.0,-0.11000789666511963,8.768800000000004,-8.878807896665124
6,67.0,2,20.0,2.0,6,2,9.682600000000003,0.00854000000000001,0.1481799999999997,1.2612700000000014,38.0,25.9219,0,19.0,0.0,1.0,11.602200000000003,-0.21270000000000003,-1.0272999999999999,0.13270000000000004,18.817100000000003,16.42140000000001,35.0383,0,1,1,100.0,-0.4893059570417236,9.682600000000003,-10.171905957041727
6,68.0,2,20.0,2.0,6,2,10.176000000000004,0.011080000000000019,0.1118800000000002,1.5760400000000017,38.0,25.9,0,19.0,0.0,1.0,12.716000000000008,-0.23080000000000017,-1.0146,0.14,19.695600000000006,18.722000000000016,35.196,0,1,1,100.0,-0.6348372370049532,10.176000000000004,-10.810837237004957
6,69.0,2,20.0,0.2199999999999817,6,2,10.742700000000003,0.013780000000000018,0.10597999999999984,1.830550000000002,38.0,25.9,0,17.21999999999998,0.0,1.0,13.939900000000007,-0.2489000000000001,-1.0010999999999999,0.1489000000000001,20.488400000000006,21.169800000000016,34.696099999999994,0,1,1,100.0,-0.7895358416902755,10.742700000000003,-11.532235841690278
6,70.0,2,20.0,1.0,6,2,11.895000000000001,0.01635,0.08315,2.1331499999999997,38.0,25.86,0,18.0,0.0,1.0,16.076999999999998,-0.277,-0.9664999999999999,0.16,21.4705,25.74,31.745,0,1,1,100.0,-0.9367859950388959,11.895000000000001,-12.831785995038897
6,71.0,2,20.0,1.0,6,2,12.485200000000008,0.017510000000000015,0.029599999999999457,2.3067500000000014,38.0,25.86,0,18.0,0.0,1.0,17.01800000000001,-0.29510000000000014,-0.9497999999999996,0.16,21.645500000000002,27.731100000000023,29.604699999999973,0,1,1,100.0,-1.0032490992740724,12.485200000000008,-13.48844909927408
6,72.0,2,20.0,1.0,6,2,13.908000000000001,0.02,0.02184,2.5186800000000003,38.0,25.83,0,18.0,0.0,1.0,19.018800000000002,-0.32,-0.9184,0.16,20.997999999999998,30.5328,23.217599999999994,0,1,1,100.0,-1.1459155902616465,13.908000000000001,-15.053915590261647
6,73.0,2,20.0,1.0,6,2,14.441500000000008,0.02013000000000002,0.02308000000000029,2.584810000000001,38.0,25.83,0,18.0,0.0,1.0,19.66930000000001,-0.3213000000000002,-0.9086999999999998,0.16,20.27479999999998,30.50899999999999,20.376599999999943,0,1,1,100.0,-1.1533640415983484,14.441500000000008,-15.594864041598356
6,74.0,2,20.0,0.5299999999999955,6,2,15.723800000000004,0.022,0.04577999999999988,2.6630100000000003,38.0,25.745399999999997,0,18.470000000000006,3340.0,2.0,20.912100000000002,-0.34,-0.8953,0.15529999999999997,17.069899999999993,27.26899999999999,12.485599999999984,0,1,1,100.0,-1.260507149287811,15.723800000000004,-16.984307149287815
6,75.0,2,20.0,0.0,1,5,16.4075,-0.0005000000000000017,-2.017,3.48775,38.0,25.515,0,19.0,3340.0,2.0,21.3875,-0.3475,-0.89,0.15,14.487499999999999,23.8825,8.1075,0,1,1,100.0,0.028647889756541263,16.4075,-16.378852110243457
6,76.0,2,20.0,0.0,1,5,17.656000000000002,-0.08728000000000018,-1.8585999999999978,4.953800000000003,38.0,25.3216,0,19.0,3340.0,2.0,21.744799999999998,-0.35,-0.88,0.15,8.429599999999983,15.232799999999974,0.5227999999999813,0,1,1,100.0,5.000775635901835,17.656000000000002,-12.655224364098167
6,77.0,2,20.0,0.0,1,6,18.5443,-0.13329000000000008,-1.2186099999999989,5.591160000000001,38.0,25.2341,0,19.0,3340.0,2.0,21.282,-0.34629999999999994,-0.89,0.16,3.7469999999999914,7.367299999999983,-5.181200000000013,0,1,1,100.0,7.636954451298747,18.5443,-10.907345548701253
6,78.0,2,20.0,0.0,1,6,19.157,-0.16117000000000012,-1.0851699999999984,5.7578000000000005,38.0,25.23,0,19.0,3340.0,2.0,20.432399999999994,-0.33909999999999996,-0.9009000000000001,0.1709000000000001,0.979999999999991,1.3271999999999735,-10.034600000000026,0,1,1,100.0,9.234360784123485,19.157,-9.922639215876515
6,79.0,2,20.0,0.0,1,6,19.4285,-0.17293500000000003,-0.9159349999999992,5.7759,38.0,25.23,0,19.0,3340.0,2.0,19.853199999999998,-0.33004999999999995,-0.90995,0.17995000000000003,0.07499999999999546,-1.315400000000013,-12.695300000000014,0,1,1,100.0,9.908445630094894,19.4285,-9.520054369905106
6,80.0,2,20.0,0.0,1,6,19.58,-0.1802,-0.7506,5.7328,38.0,25.248,0,19.0,3340.0,2.0,19.418,-0.324,-0.916,0.18,-0.266,-2.656,-14.528,0,1,1,100.0,10.324699468257435,19.58,-9.255300531742563
6,81.0,2,20.0,0.0,1,6,20.1522,-0.21513500000000005,-0.5168700000000009,5.646329999999999,38.0,25.30915,0,19.0,3340.0,2.0,16.720899999999997,-0.29694999999999994,-0.9761000000000001,0.19,0.8185500000000075,-3.7518499999999873,-24.309500000000014,0,1,1,100.0,12.326327525546969,20.1522,-7.825872474453032
6,82.0,2,20.0,0.0,1,6,20.1758,-0.22336000000000003,-0.5755599999999996,5.505399999999999,38.0,25.33,0,19.0,3340.0,2.0,16.071599999999997,-0.28579999999999994,-0.9942000000000001,0.19,2.1780000000000066,-1.3375999999999877,-26.197000000000006,0,1,1,100.0,12.79758531204207,20.1758,-7.378214687957929
6,83.0,2,20.0,0.0,1,6,19.970449999999996,-0.23846000000000003,-0.32686999999999944,5.626090000000001,38.0,25.33,0,19.0,3340.0,2.0,15.126199999999999,-0.28,-1.03115,0.1588499999999999,6.273300000000013,7.842750000000035,-27.972399999999997,0,1,1,100.0,13.662751582689612,19.970449999999996,-6.307698417310384
6,84.0,2,20.0,0.0,3,7,19.810799999999997,-0.24212000000000003,-0.27432000000000056,5.769559999999999,38.0,25.33,0,19.0,3340.0,2.0,15.019599999999999,-0.28,-1.0404000000000002,0.1491999999999998,7.5744000000000105,11.393200000000032,-27.736399999999996,0,1,1,100.0,13.872454135707494,19.810799999999997,-5.938345864292502
6,85.0,2,20.0,0.0,3,7,19.198249999999994,-0.250275,-0.20802499999999902,5.570699999999999,38.0,25.37,0,19.0,3340.0,2.0,15.131,-0.2842500000000001,-1.05,0.10149999999999977,9.32975,18.834750000000028,-26.05999999999999,0,1,1,100.0,14.33970121763668,19.198249999999994,-4.8585487823633144
6,86.0,2,20.0,0.0,3,7,18.788999999999998,-0.25398000000000004,-0.1679000000000002,5.382559999999997,38.0,25.3898,0,19.0,3340.0,2.0,15.279200000000001,-0.29,-1.05,0.08339999999999986,8.980599999999992,21.08380000000002,-25.17759999999999,0,1,1,100.0,14.551982080732651,18.788999999999998,-4.2370179192673465
6,87.0,2,20.0,0.5299999999999955,3,7,18.112,-0.257,-0.10957000000000014,5.238479999999999,38.0,25.44,0,19.529999999999994,3340.0,2.0,15.4194,-0.29,-1.0352999999999999,0.05529999999999995,6.655799999999991,22.1518,-24.6429,0,1,1,100.0,14.725015334862157,18.112,-3.3869846651378417
6,88.0,2,20.0,0.2800000000000182,3,7,16.91399999999999,-0.258,-0.04680000000000018,5.11516,38.0,25.4616,0,19.28000000000002,3340.0,2.0,15.053199999999995,-0.2671999999999998,-1.0043999999999997,0.042800000000000185,-0.3384000000000552,20.568799999999985,-26.68400000000003,0,1,1,100.0,14.78231111437524,16.91399999999999,-2.131688885624751
6,89.0,2,20.0,0.6366666666666636,3,7,16.426499999999997,-0.258,-0.0340166666666665,5.12446,38.0,25.44,0,19.636666666666663,3340.0,2.0,14.681033333333332,-0.25636666666666663,-0.9863666666666666,0.05,-3.649966666666676,19.785633333333333,-28.548466666666673,0,1,1,100.0,14.78231111437524,16.426499999999997,-1.6441888856247573
6,90.0,2,20.0,0.03333333333332577,3,7,16.154999999999998,-0.258,-0.0008333333333329168,5.1136,38.0,25.44,0,19.033333333333324,3340.0,2.0,14.433666666666664,-0.25033333333333324,-0.9803333333333333,0.05,-5.526333333333357,19.429666666666662,-29.79133333333335,0,1,1,100.0,14.78231111437524,16.154999999999998,-1.3726888856247577
6,91.0,2,20.0,0.0,3,7,15.479074999999998,-0.25942750000000003,-0.09599250000000002,5.0464575,38.0,25.47,0,19.0,3340.0,2.0,13.703424999999998,-0.23144999999999993,-0.9514499999999999,0.06427500000000004,-9.91547500000001,19.286875000000002,-33.66540000000001,0,1,1,100.0,14.864100839630167,15.479074999999998,-0.6149741603698313
6,92.0,2,20.0,0.0,3,7,15.2664,-0.25988,-0.09916000000000001,5.03424,38.0,25.47,0,19.0,3340.0,2.0,13.4636,-0.2224,-0.9423999999999999,0.06880000000000001,-11.223200000000004,19.4,-35.0048,0,1,1,100.0,14.890027179859834,15.2664,-0.37637282014016726
6,93.0,2,20.0,0.0,3,7,13.394199999999996,-0.262,-0.06930500000000016,5.08527,39.0,25.44,0,19.0,3340.0,2.0,12.2234,-0.19,-0.8866999999999998,0.11665000000000009,-20.203450000000018,24.110400000000016,-47.95770000000003,0,1,1,100.0,15.01149423242757,13.394199999999996,1.6172942324275734
6,94.0,2,20.0,0.0,3,7,12.912199999999997,-0.262,-0.05105999999999981,5.0923,39.0,25.44,0,19.0,3340.0,2.0,12.3297,-0.19,-0.88,0.12,-21.72780000000001,25.737400000000008,-50.743000000000016,0,1,1,100.0,15.01149423242757,12.912199999999997,2.0992942324275727
6,95.0,2,20.0,0.0,3,7,11.559499999999986,-0.261,0.05655000000000066,5.1088499999999994,39.0,25.44,0,19.0,3340.0,2.0,13.545000000000016,-0.2095000000000002,-0.8795000000000003,0.13,-23.86600000000001,29.99200000000004,-54.94500000000002,0,1,1,100.0,14.954198452914486,11.559499999999986,3.3946984529145006
6,96.0,2,20.0,0.0,3,7,9.07559999999999,-0.25771999999999995,0.5532000000000112,5.915120000000014,39.0,25.3336,0,19.0,3340.0,2.0,14.98039999999999,-0.25,-0.9428000000000004,0.11,-21.611199999999982,33.9188,-45.66239999999995,0,1,1,100.0,14.766268296111573,9.07559999999999,5.690668296111582
6,97.0,2,20.0,0.0,3,7,8.631324999999999,-0.2518975,0.8500875000000002,6.4674025,39.0,25.24505,0,19.0,3340.0,2.0,14.189849999999998,-0.24214999999999998,-0.961775,0.10607499999999999,-20.616674999999997,33.53675,-42.961225,0,1,1,100.0,14.432663619896655,8.631324999999999,5.801338619896656
6,98.0,2,20.0,0.0,3,7,8.310049999999997,-0.24601499999999993,0.9654750000000011,6.817185000000004,39.0,25.1817,0,19.0,3340.0,2.0,13.474899999999993,-0.23309999999999992,-0.9753500000000002,0.10154999999999996,-19.85194999999999,33.1295,-40.95664999999998,0,1,1,100.0,14.095621196910944,8.310049999999997,5.785571196910947
6,99.0,2,20.0,0.0,3,7,5.983499999999997,-0.22509500000000002,0.14015499999999886,6.211909999999999,39.0,25.19665,0,19.0,3340.0,2.0,5.76434999999999,-0.10619999999999982,-1.0719,0.11,-14.307049999999993,26.119849999999985,-23.846649999999972,0,1,1,100.0,12.896993489497266,5.983499999999997,6.913493489497269
6,100.0,2,20.0,0.0,3,7,4.01,-0.221,0.516,5.414,39.0,25.47,0,19.0,3340.0,2.0,0.17,0.0,-1.12,0.1,-9.43,15.96,-6.98,0,1,1,100.0,12.662367272391194,4.01,8.652367272391194
7,0.0,2,20.0,0.0,0,1,3.39,-0.206,1.067,4.726,39.0,25.65,0,19.0,3340.0,2.0,-1.14,0.02,-1.12,0.09,-7.61,13.04,-2.12,0,1,1,100.0,11.802930579694959,3.39,8.412930579694958
7,1.0,2,20.0,0.0,0,1,2.9434,-0.18520999999999999,2.06261,3.84897,39.0,25.65,0,19.0,3340.0,2.0,-2.0178,0.0354,-1.12,0.09,-6.1932,11.4153,-0.20269999999999988,0,1,1,100.0,10.611751323617977,2.9434,7.668351323617976
7,2.0,2,20.0,0.0,0,1,1.1929,0.23642,-23.113669999999995,-0.0,39.0,25.9576,0,2.0,3340.0,2.0,-5.4888,0.10310000000000001,-1.0969,0.06,-1.8783999999999998,11.7262,-10.794400000000001,0,1,1,100.0,-13.545868192482923,1.1929,-14.738768192482922
7,3.0,2,20.0,0.4650000000000006,0,1,0.7332999999999998,0.21656,-0.8754199999999991,-0.0,39.0,25.93,0,2.4650000000000007,3340.0,2.0,-5.80605,0.11,-1.08535,0.06,-1.6858,14.0221,-16.549000000000003,0,1,1,100.0,-12.407974011353108,0.7332999999999998,-13.141274011353108
7,4.0,2,20.0,1.0,0,1,-0.18960000000000007,0.21116,-0.30328,-0.0,39.0,25.93,0,3.0,3340.0,2.0,-4.8252,0.08879999999999999,-1.0688,0.06,-3.3732000000000006,17.246,-24.9144,0,1,1,100.0,-12.098576801982462,-0.18960000000000007,-11.908976801982462
7,5.0,2,20.0,0.44999999999999996,0,1,-0.9814999999999999,0.19770000000000001,-0.4127,-0.0,39.0,25.948,0,2.45,3340.0,2.0,-3.7560000000000002,0.07,-1.06,0.05,-6.041,16.2165,-24.413,0,1,1,100.0,-11.327375609736377,-0.9814999999999999,-10.345875609736376
7,6.0,2,20.0,0.9300000000000012,0,1,-1.7762000000000004,0.17184,-0.5174599999999996,-0.0,39.0,25.93,0,2.930000000000001,3340.0,2.0,-3.5665,0.07,-1.06,0.040699999999999986,-7.887300000000001,13.246599999999999,-18.322599999999998,0,1,1,100.0,-9.845706751528066,-1.7762000000000004,-8.069506751528065
7,7.0,2,20.0,1.0,0,1,-2.5919,0.145362,-0.71851,-0.0,39.0,25.93936,0,3.0,3340.0,2.0,-4.033180000000001,0.07234000000000002,-1.05,0.027659999999999997,-8.66212,10.060479999999998,-9.3272,0,1,1,100.0,-8.328629101580672,-2.5919,-5.736729101580672
7,8.0,2,20.0,1.0,0,1,-2.7536,0.142128,-0.72544,-0.0,39.0,25.957839999999997,0,3.0,3340.0,2.0,-4.15792,0.07696,-1.05,0.023039999999999998,-8.745280000000001,9.46912,-7.386799999999999,0,1,1,100.0,-8.143334550635364,-2.7536,-5.389734550635364
7,9.0,2,20.0,1.0,0,1,-3.0022,0.134075,-0.742245,-0.0,39.0,25.97,0,3.0,3340.0,2.0,-4.34665,0.08,-1.05,0.02,-8.839500000000001,8.62575,-4.4628499999999995,0,1,1,100.0,-7.681931638216512,-3.0022,-4.679731638216512
7,10.0,2,20.0,0.0,0,1,-4.749666666666666,0.0535,-0.9673333333333334,-0.0,39.0,25.97,0,2.0,3340.0,2.0,-5.228,0.09,-1.03,-0.01,-7.943999999999999,4.011666666666667,17.037,0,1,1,100.0,-3.065324203949904,-4.749666666666666,1.6843424627167622
7,11.0,2,20.0,0.0,0,1,-4.931500000000001,0.039489999999999977,-0.8874500000000003,-0.0,39.0,25.97,0,2.0,3340.0,2.0,-5.1326,0.09,-1.03,-0.014100000000000022,-7.410399999999998,3.6833999999999993,19.974700000000006,0,1,1,100.0,-2.2626103329716196,-4.931500000000001,2.668889667028381
7,12.0,2,20.0,0.0,0,1,-5.143999999999999,0.0023999999999999772,-0.3146399999999988,-0.0,39.0,25.93,0,2.0,3340.0,2.0,-3.764399999999998,0.07,-1.0228,-0.03,-4.9743999999999975,2.725999999999999,28.572400000000005,0,1,1,100.0,-0.13750987083139626,-5.143999999999999,5.006490129168603
7,13.0,2,20.0,0.0,0,1,-5.07925,0.0004924999999999997,-0.17197999999999994,-0.0,39.0,25.9503,0,2.0,3340.0,2.0,-3.3610249999999997,0.064925,-1.02,-0.03,-4.6370000000000005,2.5685000000000002,29.199424999999998,0,1,1,100.0,-0.028218171410193026,-5.07925,5.051031828589807
7,14.0,2,20.0,0.0,0,1,-4.594999999999999,0.0016800000000000068,0.11530000000000032,-0.0,39.0,25.97,0,2.0,3340.0,2.0,-1.715999999999998,0.026599999999999964,-1.02,-0.03,-3.8489999999999993,2.055599999999999,28.217399999999998,0,1,1,100.0,-0.09625690958197869,-4.594999999999999,4.49874309041802
7,15.0,2,20.0,0.0,0,1,-3.886,0.01195,0.36315,-0.0,39.0,25.97,0,2.0,3340.0,2.0,-0.32099999999999995,0.00175,-1.02,-0.03825,-3.60875,1.7475,23.27225,0,1,1,100.0,-0.6846845651813338,-3.886,3.2013154348186665
7,16.0,2,20.0,0.0,0,1,-3.33104,0.018784,0.13943199999999994,-0.0,39.0,25.97,0,2.0,3340.0,2.0,0.3650400000000002,-0.003920000000000005,-1.02,-0.04,-3.60784,1.63648,18.786559999999998,0,1,1,100.0,-1.0762439223737383,-3.33104,2.2547960776262617
7,17.0,2,20.0,0.0,0,1,-3.15548,0.019708000000000003,0.07983399999999988,-0.0,39.0,25.97,0,2.0,3340.0,2.0,0.5359800000000003,-0.00854000000000001,-1.02,-0.04,-3.61708,1.60876,17.368219999999997,0,1,1,100.0,-1.1291852226438266,-3.15548,2.0262947773561732
7,18.0,2,20.0,0.7099999999999994,6,2,-1.3868999999999998,0.01342,-0.10354999999999995,1.22203,39.0,25.9,0,18.71,3340.0,2.0,1.2529,-0.02,-1.02,-0.05,-3.2803999999999998,1.8738000000000001,5.251899999999999,0,1,1,100.0,-0.7689093610655647,-1.3868999999999998,0.6179906389344351
7,19.0,2,20.0,0.10999999999999654,6,2,-0.4184999999999988,0.011109999999999997,0.016670000000000355,1.3569199999999997,39.0,25.9,0,18.109999999999996,3340.0,2.0,1.1854999999999998,-0.02,-1.02,-0.058900000000000036,-2.4984999999999986,2.4380000000000006,1.4498999999999964,0,1,1,100.0,-0.6365561103903444,-0.4184999999999988,-0.21805611039034561
7,20.0,2,20.0,0.7333333333333333,6,2,-0.13799999999999998,0.010266666666666667,-0.1172,1.1400000000000001,39.0,25.922,0,18.733333333333334,3340.0,2.0,1.114,-0.02,-1.02,-0.06,-2.1666666666666665,2.5406666666666666,0.8386666666666668,0,1,1,100.0,-0.5882366696676452,-0.13799999999999998,-0.4502366696676452
7,21.0,2,20.0,1.0,6,2,0.8328500000000001,-0.004510000000000002,-0.3983966666666666,-1.13131,39.0,25.93,0,19.0,3340.0,2.0,0.6898,-0.01,-1.03,-0.06,-0.5316499999999998,1.3410499999999996,2.154983333333334,0,1,1,100.0,0.25840396560400136,0.8328500000000001,-0.5744460343959987
7,22.0,2,20.0,1.0,6,2,0.9137000000000002,-0.006820000000000004,-0.3745266666666666,-1.3184200000000004,39.0,25.93,0,19.0,3340.0,2.0,0.6435999999999998,-0.01,-1.03,-0.06,-0.3352999999999996,1.0060999999999993,2.7286333333333346,0,1,1,100.0,0.39075721627922166,0.9137000000000002,-0.5229427837207785
7,23.0,2,20.0,1.0,6,2,1.0023500000000007,-0.009260000000000013,-0.3448499999999996,-1.511835000000001,39.0,25.925449999999998,0,19.0,3340.0,2.0,0.5967499999999998,-0.01,-1.03,-0.06,-0.11359999999999809,0.6269499999999967,3.3935000000000066,0,1,1,100.0,0.5305589182911431,1.0023500000000007,-0.47179108170885764
7,24.0,2,20.0,1.0,6,2,1.2548000000000015,-0.014760000000000037,-0.20679999999999926,-1.8846800000000028,39.0,25.86,0,19.0,3340.0,2.0,0.5720000000000005,-0.01,-1.03,-0.06,0.6872000000000058,-0.7024000000000088,6.076400000000019,0,1,1,100.0,0.8456857056130972,1.2548000000000015,-0.4091142943869043
7,25.0,2,20.0,1.0,6,2,2.2975,-0.0255,-0.08374999999999999,-3.1022499999999997,39.0,25.76,0,19.0,3340.0,2.0,3.145,-0.0575,-1.02,-0.06,5.24,-3.8825,13.450000000000001,0,1,1,100.0,1.4610423775835992,2.2975,-0.8364576224164006
7,26.0,2,20.0,1.0,6,2,2.4745000000000004,-0.027,-0.10399999999999988,-3.1531700000000003,39.0,25.7212,0,19.0,3340.0,2.0,3.5490000000000004,-0.060300000000000006,-1.02,-0.05,5.452100000000001,-3.7043,12.9641,0,1,1,100.0,1.5469860468532226,2.4745000000000004,-0.9275139531467778
7,27.0,2,20.0,1.0,6,2,2.6477500000000003,-0.027,-0.009590000000000033,-3.1924799999999998,39.0,25.7526,0,19.0,3340.0,2.0,3.8936500000000005,-0.07,-1.02,-0.05,5.52,-3.4755999999999996,12.333449999999997,0,1,1,100.0,1.5469860468532226,2.6477500000000003,-1.1007639531467777
7,28.0,2,20.0,1.0,6,2,2.7989,-0.027,-0.016239999999999952,-3.20444,39.0,25.72,0,19.0,3340.0,2.0,4.1776,-0.07170000000000003,-1.02,-0.05,5.513199999999999,-3.2323999999999993,11.692499999999999,0,1,1,100.0,1.5469860468532226,2.7989,-1.2519139531467776
7,29.0,2,20.0,1.0,6,2,2.8970750000000005,-0.027,-6.999999999993786e-05,-3.22292,39.0,25.72,0,19.0,3340.0,2.0,4.339300000000001,-0.07747500000000003,-1.02,-0.05,5.4901,-3.0706999999999995,11.259374999999999,0,1,1,100.0,1.5469860468532226,2.8970750000000005,-1.350088953146778
7,30.0,2,20.0,1.0,6,2,3.6135,-0.027,-0.04065,-3.1645,39.0,25.72,0,19.0,3340.0,2.0,5.1905,-0.09,-1.01,-0.04,5.023,-1.799,7.7955,0,1,1,100.0,1.5469860468532226,3.6135,-2.0665139531467775
7,31.0,2,20.0,1.0,6,2,4.5598,-0.025,0.03377999999999977,-2.9623399999999998,39.0,25.76,0,19.0,3340.0,2.0,5.710500000000001,-0.1,-1.02,-0.03389999999999998,4.1263,-0.18309999999999935,3.6385999999999985,0,1,1,100.0,1.4323944878270582,4.5598,-3.127405512172942
7,32.0,2,20.0,1.0,6,2,4.9632000000000005,-0.023039999999999998,0.06316000000000016,-2.77976,39.0,25.79,0,19.0,3340.0,2.0,5.7992,-0.1,-1.02,-0.03,3.7367999999999997,0.4692000000000006,1.9867999999999986,0,1,1,100.0,1.3200947599814166,4.9632000000000005,-3.643105240018584
7,33.0,2,20.0,1.0,6,2,5.427600000000001,-0.021769999999999994,0.07498000000000019,-2.5316799999999997,39.0,25.83,0,19.0,3340.0,2.0,5.7808,-0.1,-1.02,-0.03,3.2869999999999995,1.164500000000001,0.16339999999999713,0,1,1,100.0,1.2473291199998018,5.427600000000001,-4.180270880000199
7,34.0,2,20.0,1.0,6,2,5.6462,-0.02,-0.0203599999999997,-2.44054,39.0,25.83,0,19.0,3340.0,2.0,5.6792,-0.1,-1.02,-0.03,3.1328,1.4144,-0.5178000000000006,0,1,1,100.0,1.1459155902616465,5.6462,-4.500284409738354
7,35.0,2,20.0,1.0,6,2,5.7155,-0.02,0.0551,-2.44285,39.0,25.83,0,19.0,3340.0,2.0,5.633,-0.1,-1.02,-0.03,3.102,1.476,-0.6794999999999999,0,1,1,100.0,1.1459155902616465,5.7155,-4.569584409738353
7,36.0,2,20.0,1.0,6,2,5.986400000000001,-0.022160000000000003,0.009799999999999899,-2.7091600000000007,39.0,25.79,0,19.0,3340.0,2.0,5.2787999999999995,-0.09,-1.02,-0.03,3.6512000000000007,1.2411999999999996,-0.11159999999999888,0,1,1,100.0,1.2696744740099044,5.986400000000001,-4.716725525990096
7,37.0,2,20.0,1.0,6,2,6.04205,-0.023735000000000003,-0.06401500000000011,-2.9290300000000005,39.0,25.767950000000003,0,19.0,3340.0,2.0,5.1758999999999995,-0.09,-1.02,-0.03,4.214000000000001,0.9135999999999994,0.7483500000000015,0,1,1,100.0,1.359915326743009,6.04205,-4.682134673256991
7,38.0,2,20.0,1.0,6,2,6.0678,-0.025780000000000004,-0.1019200000000001,-3.1294400000000007,39.0,25.76,0,19.0,3340.0,2.0,5.1244,-0.09,-1.0289000000000001,-0.03,4.756100000000002,0.609699999999999,1.5597000000000023,0,1,1,100.0,1.4770851958472626,6.0678,-4.5907148041527375
7,39.0,2,20.0,1.0,6,2,6.10545,-0.029090000000000008,-0.06243000000000024,-3.5217650000000007,39.0,25.70365,0,19.0,3340.0,2.0,5.1109,-0.09,-1.03,-0.03,6.272450000000003,-0.22530000000000155,3.8668500000000043,0,1,1,100.0,1.6667342260355653,6.10545,-4.438715773964435
7,40.0,2,20.0,1.0,6,2,6.144,-0.0344,-0.1638,-4.2408,39.0,25.612000000000002,0,19.0,3340.0,2.0,5.3759999999999994,-0.1,-1.03,-0.02,8.296000000000001,-1.3940000000000001,7.311999999999999,0,1,1,100.0,1.970974815250032,6.144,-4.173025184749968
7,41.0,2,20.0,1.0,6,2,6.1742,-0.03742,-0.11687,-4.5607500000000005,39.0,25.5516,0,19.0,3340.0,2.0,5.5865,-0.1,-1.03,-0.02,8.874300000000002,-1.7875000000000008,8.650600000000003,0,1,1,100.0,2.1440080693795407,6.1742,-4.030191930620459
7,42.0,2,20.0,1.0,6,2,6.2855,-0.03951,-0.08532000000000008,-4.824050000000001,39.0,25.51,0,19.0,3340.0,2.0,6.1424,-0.11,-1.02,-0.01,9.2645,-2.654600000000001,10.6607,0,1,1,100.0,2.263756248561883,6.2855,-4.021743751438117
7,43.0,2,20.0,1.0,6,2,6.3499,-0.04,0.02003000000000062,-4.843685,39.0,25.51,0,19.0,3340.0,2.0,6.4262500000000005,-0.11665000000000003,-1.02,-0.01,9.1203,-3.3322000000000025,11.245900000000002,0,1,1,100.0,2.291831180523293,6.3499,-4.058068819476707
7,44.0,2,20.0,1.0,6,2,6.710400000000001,-0.04,0.02683999999999846,-4.83708,39.0,25.51,0,19.0,3340.0,2.0,7.437200000000002,-0.1364000000000001,-1.02,-0.01,7.205599999999993,-8.721600000000018,12.184000000000001,0,1,1,100.0,2.291831180523293,6.710400000000001,-4.418568819476707
7,45.0,2,20.0,1.975,6,2,6.8767499999999995,-0.039025,0.016700000000000003,-4.720725,39.0,25.51,0,19.975,3340.0,2.0,7.72475,-0.14,-1.02,-0.01,6.17975,-11.49675,12.298,0,1,1,100.0,2.2359677954980377,6.8767499999999995,-4.640782204501962
7,46.0,2,20.0,1.2600000000000136,6,2,7.201600000000003,-0.03773999999999998,0.11412000000000017,-4.441399999999998,39.0,25.5504,0,19.260000000000012,3340.0,2.0,8.106400000000002,-0.15,-1.0226000000000002,0.0,4.216399999999989,-16.420000000000027,12.511200000000002,0,1,1,100.0,2.1623427188237256,7.201600000000003,-5.039257281176277
7,47.0,2,20.0,2.0,6,2,7.7213,-0.033715,0.15498000000000006,-3.996085,39.0,25.62,0,20.0,3340.0,2.0,8.5613,-0.15285,-1.02715,0.01,1.7319499999999983,-21.614800000000002,12.94275,0,1,1,100.0,1.9317272062835706,7.7213,-5.789572793716429
7,48.0,2,20.0,2.0,6,2,8.216000000000003,-0.032,0.0035999999999981017,-3.7735199999999978,39.0,25.65,0,20.0,3340.0,2.0,9.064800000000004,-0.16,-1.02,0.01880000000000018,0.08479999999999017,-24.15600000000001,13.368400000000005,0,1,1,100.0,1.8334649444186344,8.216000000000003,-6.382535055581369
7,49.0,2,20.0,2.0,6,2,8.479900000000002,-0.03080999999999999,0.01726000000000049,-3.6770899999999993,39.0,25.6576,0,20.0,3340.0,2.0,9.338000000000003,-0.17,-1.02,0.02190000000000009,-0.3823000000000015,-24.564799999999998,13.649400000000002,0,1,1,100.0,1.7652829667980658,8.479900000000002,-6.714617033201937
7,50.0,2,20.0,2.0,6,2,8.97,-0.029,0.0635,-3.3775,39.0,25.705000000000002,0,19.0,3340.0,2.0,9.75,-0.175,-1.02,0.035,-0.315,-23.380000000000003,14.41,0,1,1,100.0,1.6615776058793874,8.97,-7.308422394120614
7,51.0,2,20.0,2.0,6,2,9.613150000000001,-0.023189999999999985,0.05749499999999986,-2.7169649999999983,39.0,25.77215,0,19.0,3340.0,2.0,10.211000000000002,-0.18405000000000007,-1.03,0.05,1.2335000000000047,-18.565449999999988,15.951100000000004,0,1,1,100.0,1.3286891269083783,9.613150000000001,-8.284460873091623
7,52.0,2,20.0,1.0,6,2,10.1188,-0.018879999999999994,0.1398799999999999,-2.2037999999999998,39.0,25.83,0,18.0,3340.0,2.0,10.786,-0.19560000000000002,-1.0244,0.06,2.687200000000001,-13.915999999999995,17.253600000000002,0,1,1,100.0,1.0817443172069938,10.1188,-9.037055682793007
7,53.0,2,20.0,1.0,6,2,10.573200000000005,-0.016569999999999984,0.04396999999999962,-1.8948199999999977,39.0,25.86,0,18.0,3340.0,2.0,11.59360000000001,-0.21,-1.0156999999999998,0.06,3.647700000000007,-10.177399999999968,18.070400000000006,0,1,1,100.0,0.9493910665317732,10.573200000000005,-9.623808933468233
7,54.0,2,20.0,1.0,6,2,11.429800000000002,-0.015,0.016880000000001016,-1.75938,39.0,25.889599999999998,0,18.0,3340.0,2.0,13.623200000000006,-0.23740000000000008,-0.9925999999999999,0.06,4.351800000000001,-5.3215999999999894,17.829199999999997,0,1,1,100.0,0.8594366926962348,11.429800000000002,-10.570363307303767
7,55.0,2,20.0,1.0,6,2,12.0645,-0.01495,0.07535,-1.74495,39.0,25.86,0,18.0,3340.0,2.0,15.16,-0.2605,-0.9795,0.06,4.3245000000000005,-3.2714999999999996,16.075499999999998,0,1,1,100.0,0.8565719037205807,12.0645,-11.20792809627942
7,56.0,2,20.0,1.0,6,2,12.471466666666668,-0.014,0.012840000000000257,-1.7182,39.0,25.878133333333334,0,18.0,3340.0,2.0,15.97026666666667,-0.2745333333333334,-0.97,0.06,4.133866666666666,-2.562266666666665,14.47786666666666,0,1,1,100.0,0.8021409131831525,12.471466666666668,-11.669325753483516
7,57.0,2,20.0,1.0,6,2,13.421000000000001,-0.013329999999999995,0.05671000000000006,-1.5845799999999999,39.0,25.9,0,18.0,3340.0,2.0,17.247600000000002,-0.2967,-0.96,0.06,2.9280999999999975,-2.2672000000000008,10.175399999999994,0,1,1,100.0,0.763752740909387,13.421000000000001,-12.657247259090614
7,58.0,2,20.0,1.0,6,2,14.114000000000004,-0.013,-0.05126000000000249,-1.54278,39.0,25.9,0,18.0,3340.0,2.0,17.697000000000003,-0.3098000000000002,-0.96,0.06,1.2757999999999856,-3.002000000000007,7.086199999999976,0,1,1,100.0,0.7448451336700702,14.114000000000004,-13.369154866329934
7,59.0,2,20.0,1.0,6,2,14.758300000000002,-0.013290000000000008,0.022470000000000392,-1.5604600000000006,39.0,25.9,0,18.0,3340.0,2.0,17.8629,-0.31,-0.96,0.06,-0.6246000000000067,-4.056000000000004,4.35259999999999,0,1,1,100.0,0.7614609097288646,14.758300000000002,-13.996839090271138
7,60.0,2,20.0,1.0,6,2,15.158000000000001,-0.014,-0.06539999999999999,-1.6554,39.0,25.9,0,18.0,3340.0,2.0,17.837999999999997,-0.31,-0.96,0.06,-1.5979999999999999,-4.572,2.848,0,1,1,100.0,0.8021409131831525,15.158000000000001,-14.35585908681685
7,61.0,2,20.0,1.0,6,2,15.78555,-0.014,0.0218250000000001,-1.707365,39.0,25.9,0,18.0,3340.0,2.0,17.53265,-0.30544999999999994,-0.97,0.05544999999999993,-2.1062999999999987,-4.739949999999999,0.9870499999999967,0,1,1,100.0,0.8021409131831525,15.78555,-14.983409086816849
7,62.0,2,20.0,1.0,6,2,16.1296,-0.014,-0.04673999999999985,-1.69346,39.0,25.891199999999998,0,18.0,3340.0,2.0,17.216,-0.3,-0.9722000000000001,0.05,-1.5555999999999977,-4.393999999999998,0.3547999999999993,0,1,1,100.0,0.8021409131831525,16.1296,-15.327459086816848
7,63.0,2,20.0,1.0,6,2,16.60445,-0.014,-0.04002499999999986,-1.6785549999999998,39.0,25.8894,0,18.0,3340.0,2.0,16.662899999999997,-0.2973499999999999,-0.99,0.05,0.28430000000000566,-3.3013499999999962,0.38830000000000203,0,1,1,100.0,0.8021409131831525,16.60445,-15.802309086816848
7,64.0,2,20.0,1.0,6,2,16.8478,-0.014,-0.000980000000000543,-1.67326,39.0,25.9,0,18.0,3340.0,2.0,16.4206,-0.29,-0.99,0.05,1.474800000000002,-2.421999999999998,1.0012000000000016,0,1,1,100.0,0.8021409131831525,16.8478,-16.045659086816848
7,65.0,2,20.0,1.0,6,2,17.0545,-0.014,0.030975000000000003,-1.674925,39.0,25.9,0,18.0,3340.0,2.0,16.29925,-0.29,-0.99,0.05,2.3565,-1.43525,2.0845,0,1,1,100.0,0.8021409131831525,17.0545,-16.25235908681685
7,66.0,2,20.0,1.0,6,2,17.133,-0.014,0.0004799999999998359,-1.6675599999999997,39.0,25.8816,0,18.0,3340.0,2.0,16.29,-0.29,-0.99,0.054600000000000135,2.6566000000000027,-0.9827999999999956,2.7308000000000066,0,1,1,100.0,0.8021409131831525,17.133,-16.330859086816847
7,67.0,2,20.0,1.3850000000000022,6,2,17.2254,-0.013614999999999997,0.01648000000000011,-1.57252,39.0,25.9,0,18.385,3340.0,2.0,16.3077,-0.29,-0.99385,0.05614999999999998,3.1216500000000003,-0.38449999999999934,3.660950000000001,0,1,1,100.0,0.7800820380706156,17.2254,-16.445317961929383
7,68.0,2,20.0,2.0,6,2,17.2962,-0.012,0.02525999999999972,-1.4057599999999995,39.0,25.9,0,19.0,3340.0,2.0,16.392400000000002,-0.29,-1.0,0.05,3.8814000000000037,0.2458000000000025,4.636800000000004,0,1,1,100.0,0.6875493541569879,17.2962,-16.60865064584301
7,69.0,2,20.0,2.0,6,2,17.4278,-0.01,0.026485000000000102,-1.227685,39.0,25.9,0,19.0,3340.0,2.0,16.83705,-0.3,-0.99,0.051950000000000045,5.265100000000001,0.8939000000000001,5.763150000000001,0,1,1,100.0,0.5729577951308232,17.4278,-16.85484220486918
7,70.0,2,20.0,2.0,6,2,17.514,-0.01,0.011199999999999998,-1.20455,39.0,25.9,0,19.0,3340.0,2.0,17.253,-0.31,-0.9864999999999999,0.06,5.3265,0.7945,6.055,0,1,1,100.0,0.5729577951308232,17.514,-16.941042204869177
7,71.0,2,20.0,2.0,6,2,17.6506,-0.01,-0.04523999999999896,-1.1812199999999988,39.0,25.9,0,19.0,3340.0,2.0,17.6104,-0.31,-0.98,0.07,4.264099999999991,0.4697999999999997,6.483300000000005,0,1,1,100.0,0.5729577951308232,17.6506,-17.07764220486918
7,72.0,2,20.0,2.0,6,2,17.7562,-0.009339999999999998,0.04254000000000004,-1.0551599999999999,39.0,25.9198,0,19.0,3340.0,2.0,17.65,-0.31,-0.98,0.07,3.297199999999999,0.5094000000000002,7.113600000000001,0,1,1,100.0,0.5351425806521888,17.7562,-17.22105741934781
7,73.0,2,20.0,2.0,6,2,17.9552,-0.007,0.053854999999999244,-0.7772699999999987,39.0,25.93,0,19.0,3340.0,2.0,17.5737,-0.31,-0.99,0.08,2.1343999999999976,1.0908000000000029,8.867750000000008,0,1,1,100.0,0.40107045659157625,17.9552,-17.554129543408425
7,74.0,2,20.0,2.0,6,2,18.094600000000003,-0.006059999999999991,0.02708000000000029,-0.6602599999999998,39.0,25.93,0,19.0,3340.0,2.0,17.56,-0.31,-0.99,0.08,1.9135999999999993,1.610800000000003,10.343000000000009,0,1,1,100.0,0.34721242384927836,18.094600000000003,-17.747387576150725
7,75.0,2,20.0,2.0,6,2,18.44,-0.00375,0.047,-0.26999999999999996,39.0,25.93,0,19.0,3340.0,2.0,17.8275,-0.32,-1.0,0.07,2.67,2.4325,14.035,0,1,1,100.0,0.2148591731740587,18.44,-18.225140826825942
7,76.0,2,20.0,2.0,6,2,18.631400000000003,-0.0022199999999999932,-0.00022000000000033394,-0.07499999999999864,39.0,25.93,0,19.0,3340.0,2.0,18.0882,-0.3278000000000001,-1.0,0.07,3.2898000000000027,2.692600000000001,15.824800000000007,0,1,1,100.0,0.12719663051904237,18.631400000000003,-18.504203369480962
7,77.0,2,20.0,2.0,6,2,19.009600000000002,0.0004350000000000023,0.07063000000000022,0.27187000000000044,39.0,25.93,0,19.0,3340.0,2.0,18.84095,-0.34,-0.99,0.07,4.237450000000001,3.1670000000000003,18.6776,0,1,1,100.0,-0.024923664088190942,19.009600000000002,-19.034523664088194
7,78.0,2,20.0,2.0,6,2,19.488,0.004090000000000009,0.04454000000000005,0.6676200000000011,39.0,25.93,0,19.0,3340.0,2.0,20.040400000000005,-0.36,-0.9790999999999999,0.0709000000000001,4.6373,3.7934000000000023,20.819500000000005,0,1,1,100.0,-0.23433973820850723,19.488,-19.722339738208507
7,79.0,2,20.0,2.0,6,2,20.007600000000004,0.00649000000000001,0.14696999999999957,0.9446400000000013,39.0,25.9153,0,19.0,3340.0,2.0,21.443800000000007,-0.37490000000000007,-0.9650999999999998,0.08,4.391999999999999,4.4372000000000025,21.798000000000002,0,1,1,100.0,-0.3718496090399048,20.007600000000004,-20.37944960903991
7,80.0,2,20.0,2.0,6,2,20.355,0.0079,0.0411,1.1022,39.0,25.927,0,19.0,3340.0,2.0,22.327,-0.389,-0.951,0.08,4.065,4.841,21.927,0,1,1,100.0,-0.4526366581533504,20.355,-20.80763665815335
7,81.0,2,20.0,2.0,6,2,21.1065,0.01,-0.019239999999999778,1.3728450000000005,39.0,25.913349999999998,0,19.0,3340.0,2.0,23.963000000000005,-0.41555000000000003,-0.9344499999999999,0.08,3.2457499999999975,5.567650000000001,21.360199999999995,0,1,1,100.0,-0.5729577951308232,21.1065,-21.679457795130823
7,82.0,2,20.0,2.0,6,2,21.7062,0.011473333333333335,0.006193333333333407,1.5203000000000002,39.0,25.9,0,19.0,3340.0,2.0,25.070333333333334,-0.43,-0.92,0.08,2.4917333333333325,5.8342,20.4944,0,1,1,100.0,-0.6573735769467647,21.7062,-22.363573576946763
7,83.0,2,20.0,1.0,6,2,22.465500000000006,0.013730000000000018,0.06110000000000128,1.705800000000001,39.0,25.9,0,18.0,3340.0,2.0,26.230400000000007,-0.4473000000000002,-0.91,0.08,1.36849999999999,5.560199999999996,19.13549999999999,0,1,1,100.0,-0.7866710527146213,22.465500000000006,-23.252171052714626
7,84.0,2,20.0,1.0,6,2,23.294800000000006,0.015080000000000017,0.08331999999999916,1.9899600000000013,39.0,25.86,0,18.0,3340.0,2.0,27.172000000000004,-0.4604000000000001,-0.9,0.07,0.047999999999995005,4.503199999999994,17.510399999999994,0,1,1,100.0,-0.8640203550572824,23.294800000000006,-24.158820355057287
7,85.0,2,20.0,1.0,6,2,24.149500000000007,0.018350000000000023,0.06035000000000184,2.313600000000003,39.0,25.8495,0,18.0,3340.0,2.0,27.749500000000005,-0.4735000000000002,-0.9,0.06,-1.1100000000000092,2.7989999999999804,15.817999999999984,0,1,1,100.0,-1.0513775540650618,24.149500000000007,-25.20087755406507
7,86.0,2,20.0,1.0,6,2,25.058800000000005,0.02,0.03594999999999909,2.5554600000000005,39.0,25.83,0,18.0,3340.0,2.0,28.0015,-0.48,-0.91,0.05,-1.8809000000000016,0.01969999999999044,13.851299999999993,0,1,1,100.0,-1.1459155902616465,25.058800000000005,-26.204715590261653
7,87.0,2,20.0,1.0,6,2,25.834600000000002,0.020985000000000004,-0.03874999999999989,2.5466100000000003,39.0,25.83,0,18.0,3340.0,2.0,27.9015,-0.48,-0.91,0.04,-2.2279000000000004,-6.114350000000008,10.707149999999995,0,1,1,100.0,-1.2023519330820327,25.834600000000002,-27.036951933082033
7,88.0,2,20.0,1.0,0,5,26.724800000000002,0.02,-0.013919999999999802,2.467799999999999,39.0,25.83,0,18.0,3340.0,2.0,26.550399999999993,-0.4471999999999998,-0.9,0.04,-2.954400000000004,-24.445200000000078,0.7303999999999528,0,1,1,100.0,-1.1459155902616465,26.724800000000002,-27.87071559026165
7,89.0,2,20.0,0.0,0,6,27.34465,0.02,-0.046,2.434,39.0,25.83,0,34.90000000000009,3340.0,2.0,23.307699999999993,-0.3861499999999999,-0.89,0.0659000000000001,-4.575250000000004,-41.936600000000034,-13.650750000000036,0,1,1,100.0,-1.1459155902616465,27.34465,-28.49056559026165
7,90.0,2,20.0,0.0,0,6,27.811,0.23600000000000002,28.9133,0.24340000000000012,39.0,25.983,0,9.5,3340.0,2.0,18.095,-0.294,-0.89,0.098,-7.322,-51.251999999999995,-34.476,0,1,1,100.0,-13.521803965087429,27.811,-41.33280396508743
7,91.0,2,20.0,0.0,0,6,27.9727,0.26183999999999996,0.3977300000000044,-0.0,39.0,25.97,0,4.0,3340.0,2.0,10.060500000000019,-0.1637000000000003,-0.9241999999999998,0.1520999999999999,-12.656699999999988,-37.19670000000009,-69.27259999999993,0,1,1,100.0,-15.002326907705474,27.9727,-42.97502690770547
7,92.0,2,20.0,0.0,0,6,27.679999999999996,0.265,0.013760000000000014,-0.0,39.0,25.9396,0,4.0,3340.0,2.0,7.296399999999978,-0.12479999999999973,-0.9552000000000003,0.16,-14.245200000000011,-20.762399999999843,-82.51000000000012,0,1,1,100.0,-15.183381570966816,27.679999999999996,-42.86338157096681
7,93.0,2,20.0,0.0,0,6,26.200499999999987,0.26417,-0.020050000000000633,-0.0,39.0,25.9632,0,4.0,3340.0,2.0,4.3051999999999895,-0.08,-1.0266000000000004,0.14169999999999983,-13.14869999999998,17.10810000000022,-100.73670000000008,0,1,1,100.0,-15.135826073970959,26.200499999999987,-41.336326073970945
7,94.0,2,20.0,0.0,0,6,24.19739999999999,0.25972,-0.2901399999999986,-0.0,39.0,25.97,0,4.0,3340.0,2.0,3.9836000000000023,-0.0714000000000001,-1.0728000000000002,0.08719999999999982,-9.605599999999987,40.41340000000007,-106.6118,0,1,1,100.0,-14.880859855137741,24.19739999999999,-39.07825985513773
7,95.0,2,20.0,0.0,0,7,22.36825,0.25727500000000003,0.004749999999999992,-0.0,39.0,25.97,0,4.0,3340.0,2.0,4.4945,-0.08725,-1.09725,0.04825,-7.595999999999999,50.354,-106.089,0,1,1,100.0,-14.740771674228256,22.36825,-37.10902167422826
7,96.0,2,20.0,0.0,0,7,18.630999999999972,0.25462,-0.10924000000000178,-0.0,39.0,25.97,0,4.0,3340.0,2.0,6.194000000000014,-0.11760000000000037,-1.1061999999999999,-0.031400000000000546,-7.08900000000001,53.74199999999996,-96.6591999999999,0,1,1,100.0,-14.588651379621021,18.630999999999972,-33.21965137962099
7,97.0,2,20.0,0.0,0,7,14.228899999999953,0.2432999999999997,-0.41706000000000704,-0.0,39.0,25.97,0,4.0,3340.0,2.0,8.578600000000026,-0.16140000000000054,-1.0792999999999997,-0.08070000000000027,-9.614500000000037,42.0280999999998,-77.28899999999975,0,1,1,100.0,-13.940063155532913,14.228899999999953,-28.168963155532865
7,98.0,2,20.0,0.0,0,7,11.426299999999983,0.22985999999999995,-0.3961799999999966,-0.0,39.0,25.9424,0,4.0,3340.0,2.0,10.166200000000009,-0.1869000000000001,-1.0561999999999998,-0.0969000000000001,-11.870500000000012,29.674399999999924,-61.58819999999991,0,1,1,100.0,-13.170007878877101,11.426299999999983,-24.596307878877084
7,99.0,2,20.0,0.0,0,7,8.003899999999986,0.1890499999999995,-4.884000000000064,-0.0,38.69000000000001,25.97,0,4.0,3340.0,2.0,11.921300000000008,-0.2169000000000001,-1.0231,-0.1,-14.700100000000011,11.700599999999916,-39.9799999999999,0,1,1,100.0,-10.831767116948184,8.003899999999986,-18.83566711694817
7,100.0,2,20.0,0.0,0,7,2.86,0.176,0.61,-0.0,38.0,25.97,0,4.0,3340.0,2.0,9.12,-0.16,-1.02,-0.06,-16.7,-18.33,-8.23,0,1,1,100.0,-10.084057194302488,2.86,-12.944057194302488
8,0.0,2,20.0,0.0,0,1,1.52,0.144,-3.927,-0.0,39.0,25.93,0,4.0,3340.0,2.0,6.04,-0.11,-1.04,-0.04,-16.04,-26.69,-2.13,0,1,1,100.0,-8.250592249883853,1.52,-9.770592249883853
8,1.0,2,20.0,0.0,0,1,-0.8258,0.09816000000000001,-0.994,-0.0,38.0,25.9672,0,4.0,3340.0,2.0,-1.0099999999999998,0.014199999999999996,-1.0614000000000001,0.011399999999999999,-13.9537,-39.3708,7.9924,0,1,1,100.0,-5.624153717004162,-0.8258,-4.7983537170041615
8,2.0,2,20.0,0.0,0,1,-2.6037999999999997,0.06662000000000001,-1.1186,-0.0,38.0,25.9356,0,4.0,3340.0,2.0,-6.4948,0.1256,-1.0914000000000001,0.0414,-11.5738,-44.1814,16.738400000000002,0,1,1,100.0,-3.817044831161545,-2.6037999999999997,-1.2132448311615454
8,3.0,2,20.0,0.0,0,1,-3.9205999999999994,0.030700000000000015,-0.9420599999999999,-0.0,38.0,25.9532,0,4.0,3340.0,2.0,-9.561399999999999,0.18419999999999997,-1.1,0.06,-8.181800000000003,-41.8898,25.708199999999994,0,1,1,100.0,-1.7589804310516282,-3.9205999999999994,2.161619568948371
8,4.0,2,20.0,0.0,0,1,-4.6288,0.0010400000000000088,-0.9438799999999998,-0.0,38.0,25.97,0,4.0,3340.0,2.0,-10.0268,0.19440000000000002,-1.1,0.05,-4.328400000000001,-35.6728,32.8988,0,1,1,100.0,-0.05958761069360612,-4.6288,4.569212389306394
8,5.0,2,20.0,0.0,0,1,-4.849,-0.01535,-0.81245,-0.0,38.0,25.97,0,4.0,3340.0,2.0,-9.4455,0.1815,-1.0915000000000001,0.0415,-1.9714999999999998,-31.198,36.3095,0,1,1,100.0,0.8794902155258137,-4.849,5.728490215525814
8,6.0,2,20.0,0.0,0,1,-4.8338,-0.043619999999999985,-0.6614999999999995,-0.0,38.0,25.9532,0,4.0,3340.0,2.0,-7.018600000000001,0.13160000000000002,-1.0658,0.03580000000000001,1.9991999999999985,-22.428600000000003,40.1614,0,1,1,100.0,2.4992419023606502,-4.8338,7.33304190236065
8,7.0,2,20.0,0.0,0,1,-4.5936,-0.05685999999999999,-0.20926000000000122,-0.0,38.0,25.969199999999997,0,4.0,3340.0,2.0,-5.124800000000001,0.09060000000000004,-1.06,0.03,3.7295999999999982,-17.699000000000005,40.6284,0,1,1,100.0,3.25783802311386,-4.5936,7.851438023113861
8,8.0,2,20.0,0.0,0,1,-3.6408000000000005,-0.0676,-0.2582,-0.0,38.0,25.97,0,4.0,3340.0,2.0,-1.1596000000000013,0.017600000000000022,-1.03,0.03,5.0312,-10.256800000000002,37.1516,0,1,1,100.0,3.8731946950843645,-3.6408000000000005,7.5139946950843655
8,9.0,2,20.0,0.0,0,1,-2.7763,-0.07513,-0.17449,-0.0,38.0,25.97,0,4.0,3340.0,2.0,1.0760999999999996,-0.021299999999999996,-1.02,0.03,4.0878000000000005,-6.7689,32.602,0,1,1,100.0,4.304631914817875,-2.7763,7.080931914817875
8,10.0,2,20.0,0.0,0,1,-2.146,-0.0768,-0.1402,-0.0,38.0,25.97,0,4.0,3340.0,2.0,2.26,-0.038,-1.02,0.034,2.794,-4.982,29.268,0,1,1,100.0,4.400315866604722,-2.146,6.546315866604722
8,11.0,2,20.0,0.0,0,1,-0.8788000000000006,-0.08308,-0.3055599999999999,-0.0,38.0,25.97,0,4.0,3340.0,2.0,3.995099999999999,-0.0677,-1.01,0.04,-0.3633999999999983,-2.4370000000000007,23.024200000000004,0,1,1,100.0,4.760133361946879,-0.8788000000000006,5.63893336194688
8,12.0,2,20.0,0.0,0,1,0.5569999999999987,-0.09971999999999998,-0.5261400000000005,-0.0,38.0,25.97,0,4.0,3340.0,2.0,5.198999999999999,-0.09339999999999998,-1.01,0.03,-3.8077999999999976,-0.6832000000000011,17.679800000000004,0,1,1,100.0,5.713535133044568,0.5569999999999987,5.156535133044569
8,13.0,2,20.0,0.0,6,2,1.9127999999999992,-0.11246,-0.1044400000000003,-0.0,38.0,25.97,0,4.0,3340.0,2.0,5.9514,-0.10819999999999999,-1.01,0.02,-6.321599999999999,0.3787999999999996,14.877600000000001,0,1,1,100.0,6.443483364041239,1.9127999999999992,4.53068336404124
8,14.0,2,20.0,0.0,6,2,2.5195999999999987,-0.113,-0.07171999999999996,0.06173999999999989,38.0,25.862199999999998,0,17.719999999999974,3340.0,2.0,6.294,-0.11,-1.01,0.010200000000000018,-7.234599999999999,0.6065999999999997,13.818600000000002,0,1,1,100.0,6.474423084978302,2.5195999999999987,3.9548230849783037
8,15.0,2,20.0,0.1,6,2,4.002,-0.040600000000000004,0.4303,-3.7936,38.0,25.65,0,18.1,3340.0,2.0,7.316,-0.13,-1.01,0.0,-9.117,-0.484,6.723,0,1,1,100.0,2.3262086482311424,4.002,-1.6757913517688574
8,16.0,2,20.0,0.11999999999999887,6,2,4.8256,-0.035,0.1670800000000002,-3.96784,38.0,25.6464,0,18.119999999999997,3340.0,2.0,7.7272,-0.14,-1.01,-0.01,-9.9748,-1.4619999999999995,0.662000000000003,0,1,1,100.0,2.0053522829578814,4.8256,-2.8202477170421183
8,17.0,2,20.0,1.0,6,2,5.2246,-0.035,0.009030000000000144,-4.040039999999999,38.0,25.62,0,19.0,3340.0,2.0,7.7743,-0.14,-1.01,-0.011899999999999978,-10.2509,-1.8155999999999994,-2.078499999999995,0,1,1,100.0,2.0053522829578814,5.2246,-3.2192477170421183
8,18.0,2,20.0,1.0,6,2,6.199599999999999,-0.035,-0.05640000000000007,-4.21892,38.0,25.58,0,19.0,3340.0,2.0,7.366,-0.13,-1.0152,-0.03519999999999999,-9.5728,-2.1848,-6.574,0,1,1,100.0,2.0053522829578814,6.199599999999999,-4.194247717042118
8,19.0,2,20.0,1.0,6,2,6.622199999999999,-0.035,-0.04789999999999978,-4.24168,38.0,25.5936,0,19.0,3340.0,2.0,6.9446,-0.12340000000000004,-1.02,-0.04659999999999997,-7.727000000000004,-2.0374000000000003,-6.602000000000001,0,1,1,100.0,2.0053522829578814,6.622199999999999,-4.616847717042118
8,20.0,2,20.0,1.0,6,2,6.797,-0.035,0.029900000000000013,-4.2697,38.0,25.58,0,19.0,3340.0,2.0,6.7090000000000005,-0.12,-1.02,-0.05,-6.281000000000001,-1.9009999999999998,-5.996,0,1,1,100.0,2.0053522829578814,6.797,-4.791647717042118
8,21.0,2,20.0,1.0,6,2,6.9988,-0.04034999999999999,-0.2896199999999997,-5.191859999999999,38.0,25.4583,0,19.0,3340.0,2.0,6.2507,-0.11,-1.0247,-0.06,-2.7297000000000016,-1.9345999999999997,-3.4373000000000014,0,1,1,100.0,2.311884703352871,6.9988,-4.686915296647129
8,22.0,2,20.0,1.0,6,2,7.04,-0.05115999999999999,-0.2045400000000008,-6.45018,38.0,25.2222,0,19.0,3340.0,2.0,5.8428,-0.10460000000000003,-1.03,-0.07,0.620399999999996,-2.560599999999999,0.24399999999999533,0,1,1,100.0,2.931252079889291,7.04,-4.108747920110709
8,23.0,2,20.0,1.0,6,2,6.9956000000000005,-0.054,-0.04754000000000011,-6.51032,38.0,25.16,0,19.0,3340.0,2.0,5.6842,-0.1,-1.03,-0.07,5.806599999999998,-3.5749999999999997,5.800599999999998,0,1,1,100.0,3.093972093706445,6.9956000000000005,-3.9016279062935553
8,24.0,2,20.0,1.0,6,2,6.9596,-0.054,0.02228000000000002,-6.50344,38.0,25.16,0,19.0,3340.0,2.0,5.905999999999999,-0.10679999999999995,-1.03,-0.07,8.702399999999992,-3.8447999999999993,8.047599999999994,0,1,1,100.0,3.093972093706445,6.9596,-3.865627906293555
8,25.0,2,20.0,1.0,6,2,6.925,-0.05275,0.131,-6.3425,38.0,25.200000000000003,0,19.0,3340.0,2.0,6.3325000000000005,-0.1125,-1.03,-0.06,11.46,-3.7875,9.3825,0,1,1,100.0,3.0223523693150924,6.925,-3.9026476306849074
8,26.0,2,20.0,0.36000000000000226,6,2,6.9328,-0.04936,0.04324000000000013,-5.94148,38.0,25.3,0,18.360000000000003,3340.0,2.0,7.4392,-0.13,-1.02,-0.04360000000000002,15.248,-2.766800000000001,8.592,0,1,1,100.0,2.8281196767657435,6.9328,-4.104680323234257
8,27.0,2,20.0,1.0,6,2,7.019,-0.049,-0.03847999999999993,-5.92258,38.0,25.3,0,19.0,3340.0,2.0,7.894799999999999,-0.14,-1.0122,-0.03,16.229599999999998,-1.9870000000000014,6.957200000000004,0,1,1,100.0,2.807493196141034,7.019,-4.211506803858966
8,28.0,2,20.0,1.0,6,2,7.132199999999999,-0.049,0.005720000000000402,-5.94574,38.0,25.3,0,19.0,3340.0,2.0,8.0384,-0.14,-1.01,-0.015400000000000035,16.6028,-1.5096000000000007,5.972200000000002,0,1,1,100.0,2.807493196141034,7.132199999999999,-4.324706803858965
8,29.0,2,20.0,1.0,6,2,7.366,-0.05,-0.06936000000000085,-6.0148,38.05999999999999,25.297600000000003,0,19.0,3340.0,2.0,8.0924,-0.14059999999999992,-1.02,0.0,17.029,-1.0976000000000004,5.515399999999999,0,1,1,100.0,2.8647889756541165,7.366,-4.501211024345883
8,30.0,2,20.0,1.0,6,2,7.5920000000000005,-0.05,0.0212,-6.0244,39.0,25.3,0,19.0,3340.0,2.0,8.236,-0.15,-1.02,0.01,17.276,-1.046,5.7299999999999995,0,1,1,100.0,2.8647889756541165,7.5920000000000005,-4.727211024345884
8,31.0,2,20.0,1.0,6,2,7.8274,-0.04866,0.0789199999999999,-5.86708,39.0,25.3102,0,19.0,3340.0,2.0,8.5848,-0.15339999999999998,-1.01,0.023399999999999976,17.1418,-0.9628000000000002,5.5478000000000005,0,1,1,100.0,2.788012631106586,7.8274,-5.039387368893414
8,32.0,2,20.0,1.0,6,2,7.954266666666666,-0.04750666666666667,0.08476000000000006,-5.70496,39.0,25.349733333333333,0,19.0,3340.0,2.0,8.8484,-0.16,-1.01,0.03,16.792666666666666,-0.8557333333333336,5.043866666666667,0,1,1,100.0,2.721931498734831,7.954266666666666,-5.2323351679318355
8,33.0,2,20.0,1.0,6,2,8.2982,-0.043760000000000014,0.15803999999999938,-5.189300000000001,39.0,25.4586,0,19.0,3340.0,2.0,9.486799999999999,-0.17,-1.0,0.05619999999999993,14.608600000000006,-0.4008000000000011,2.3328000000000073,0,1,1,100.0,2.5072633114924834,8.2982,-5.790936688507516
8,34.0,2,20.0,1.0,6,2,8.436799999999998,-0.04124000000000001,0.14548000000000025,-4.914320000000001,39.0,25.505200000000002,0,19.0,3340.0,2.0,9.592799999999999,-0.17,-1.0,0.06,13.219200000000006,-0.18160000000000082,0.9796000000000047,0,1,1,100.0,2.362877947119516,8.436799999999998,-6.073922052880482
8,35.0,2,20.0,1.0,6,2,8.731,-0.0381,0.0492,-4.5422,39.0,25.54,0,19.0,3340.0,2.0,9.478000000000002,-0.17,-1.0,0.08,8.98,0.39099999999999996,-1.743,0,1,1,100.0,2.182969199448437,8.731,-6.5480308005515635
8,36.0,2,20.0,1.0,6,2,8.8214,-0.037,0.04796,-4.46328,39.0,25.5408,0,19.0,3340.0,2.0,9.3576,-0.16,-1.0,0.0802,7.301000000000002,0.5833999999999998,-2.4499999999999993,0,1,1,100.0,2.1199438419840457,8.8214,-6.701456158015954
8,37.0,2,20.0,1.0,6,2,9.0136,-0.03482000000000001,0.029869999999999678,-4.103300000000001,39.0,25.586299999999998,0,19.0,3340.0,2.0,8.968300000000001,-0.16,-1.0009,0.09,3.2364000000000024,1.0607999999999997,-3.6833999999999993,0,1,1,100.0,1.9950390426455271,9.0136,-7.018560957354473
8,38.0,2,20.0,1.0,6,2,9.0864,-0.03168000000000001,0.0029599999999994683,-3.7989200000000003,39.0,25.65,0,19.0,3340.0,2.0,8.681600000000001,-0.15,-1.01,0.09,1.1992000000000047,1.3087999999999995,-4.164799999999999,0,1,1,100.0,1.8151302949744483,9.0864,-7.271269705025551
8,39.0,2,20.0,1.0,6,2,9.108466666666667,-0.030846666666666668,0.08078000000000052,-3.6331200000000003,39.0,25.69,0,19.0,3340.0,2.0,8.451600000000001,-0.15,-1.01,0.08,0.179400000000001,1.4591999999999998,-4.343066666666666,0,1,1,100.0,1.7673838120468794,9.108466666666667,-7.3410828546197875
8,40.0,2,20.0,1.0,6,2,9.101333333333333,-0.03013333333333333,-0.04119999999999999,-3.5732,39.0,25.69,0,19.0,3340.0,2.0,8.366,-0.15,-1.01,0.08,-0.05600000000000002,1.502,-4.357333333333334,0,1,1,100.0,1.7265128226608806,9.101333333333333,-7.3748205106724525
8,41.0,2,20.0,1.0,6,2,9.0339,-0.029130000000000003,0.05560999999999988,-3.5223299999999997,39.0,25.69,0,19.0,3340.0,2.0,7.9969,-0.14,-1.0187,0.07130000000000002,-0.12820000000000015,1.5887,-4.0347,0,1,1,100.0,1.6690260572160882,9.0339,-7.364873942783911
8,42.0,2,20.0,1.0,6,2,8.943,-0.029,0.0005599999999999488,-3.5198400000000003,39.0,25.69,0,19.0,3340.0,2.0,7.7472,-0.14,-1.02,0.07,0.48839999999999917,1.5806,-3.430400000000001,0,1,1,100.0,1.6615776058793874,8.943,-7.281422394120613
8,43.0,2,20.0,1.0,6,2,8.7593,-0.03,0.0060800000000003135,-3.5662999999999996,39.0,25.69,0,19.0,3340.0,2.0,7.4192,-0.13,-1.02,0.07,1.8745999999999985,1.4392000000000003,-2.1051000000000015,0,1,1,100.0,1.7188733853924696,8.7593,-7.04042661460753
8,44.0,2,20.0,2.0,6,2,8.618800000000002,-0.03,-0.08080000000000064,-3.5837600000000003,39.15999999999999,25.69,0,20.0,3340.0,2.0,7.272000000000001,-0.13,-1.02,0.07,2.8323999999999967,1.254000000000001,-1.0516000000000043,0,1,1,100.0,1.7188733853924696,8.618800000000002,-6.899926614607533
8,45.0,2,20.0,2.0,6,2,8.529666666666667,-0.03,-0.04669999999999978,-3.5453666666666668,40.0,25.69,0,20.0,3340.0,2.0,7.2170000000000005,-0.13,-1.02,0.07,3.302999999999999,1.1223333333333336,-0.4363333333333351,0,1,1,100.0,1.7188733853924696,8.529666666666667,-6.810793281274198
8,46.0,2,20.0,2.0,6,2,8.3468,-0.029,0.01408000000000004,-3.53134,40.0,25.69,0,19.0,3340.0,2.0,7.1822,-0.13,-1.02,0.07,3.9276,0.8324,0.7203999999999996,0,1,1,100.0,1.6615776058793874,8.3468,-6.685222394120613
8,47.0,2,20.0,2.0,6,2,8.271,-0.028420000000000004,0.034719999999999626,-3.4156200000000005,40.0,25.69,0,19.0,3340.0,2.0,7.2074,-0.13,-1.02,0.07,3.99,0.7410000000000002,1.1091999999999989,0,1,1,100.0,1.6283460537618,8.271,-6.642653946238201
8,48.0,2,20.0,2.0,6,2,8.164000000000001,-0.02728000000000002,0.03351999999999744,-3.1887200000000013,40.0,25.72,0,19.0,3340.0,2.0,7.2959999999999985,-0.13,-1.02,0.08,3.8264000000000022,0.6971999999999998,1.3787999999999991,0,1,1,100.0,1.5630288651168869,8.164000000000001,-6.600971134883115
8,49.0,2,20.0,2.0,6,2,8.0671,-0.026,0.024579999999999973,-3.0831800000000005,40.0,25.7372,0,19.0,3340.0,2.0,7.4844,-0.13,-1.0157,0.08,3.328300000000001,0.8014999999999998,1.052500000000001,0,1,1,100.0,1.4896902673401404,8.0671,-6.577409732659859
8,50.0,2,20.0,2.0,6,2,8.01,-0.025,0.056,-3.033,40.0,25.76,0,19.0,3340.0,2.0,7.67,-0.14,-1.01,0.08,2.91,0.93,0.22,0,1,1,100.0,1.4323944878270582,8.01,-6.5776055121729415
8,51.0,2,20.0,2.0,6,2,7.995733333333334,-0.025,-0.011053333333332907,-3.0251533333333334,40.0,25.76,0,19.0,3340.0,2.0,7.698533333333333,-0.14,-1.01,0.08,2.8458000000000006,0.9442666666666666,-0.05819999999999825,0,1,1,100.0,1.4323944878270582,7.995733333333334,-6.5633388455062756
8,52.0,2,20.0,2.0,6,2,7.9636,-0.025,0.014319999999999859,-2.9713600000000002,40.0,25.76,0,19.0,3340.0,2.0,7.6452,-0.14,-1.01,0.08,2.8775999999999997,0.8944000000000001,-1.0563999999999993,0,1,1,100.0,1.4323944878270582,7.9636,-6.531205512172941
8,53.0,2,20.0,2.0,6,2,7.9529000000000005,-0.025,0.005600000000000366,-2.97141,40.0,25.76,0,19.0,3340.0,2.0,7.403500000000002,-0.13,-1.0171,0.08,3.1877999999999984,0.7703000000000007,-1.2829000000000002,0,1,1,100.0,1.4323944878270582,7.9529000000000005,-6.520505512172942
8,54.0,2,20.0,2.0,6,2,7.9372,-0.023720000000000005,0.0711200000000001,-2.8370000000000006,40.0,25.76,0,19.0,3340.0,2.0,7.121200000000001,-0.13,-1.02,0.08,3.511599999999999,0.6888000000000002,-0.9524000000000019,0,1,1,100.0,1.359055890050313,7.9372,-6.578144109949687
8,55.0,2,20.0,2.0,6,2,7.923,-0.023,0.028700000000000003,-2.6894,40.0,25.781,0,19.0,3340.0,2.0,6.8229999999999995,-0.123,-1.0270000000000001,0.08,3.831,0.667,-0.202,0,1,1,100.0,1.3178029288008934,7.923,-6.605197071199107
8,56.0,2,20.0,2.0,6,2,7.8758,-0.019580000000000007,-0.019120000000000435,-2.251600000000001,40.0,25.83,0,19.0,3340.0,2.0,6.1396000000000015,-0.11,-1.04,0.09,4.704999999999998,1.195999999999998,3.7863999999999907,0,1,1,100.0,1.1218513628661524,7.8758,-6.753948637133847
8,57.0,2,20.0,2.0,6,2,7.8502,-0.016020000000000006,0.0586599999999997,-1.8540800000000006,40.0,25.86,0,19.0,3340.0,2.0,6.0296,-0.11,-1.04,0.09,5.4533999999999985,2.230599999999998,7.697999999999993,0,1,1,100.0,0.9178783877995792,7.8502,-6.932321612200421
8,58.0,2,20.0,2.0,6,2,7.85,-0.014940000000000009,0.0689599999999994,-1.7271200000000009,40.0,25.862399999999997,0,19.0,3340.0,2.0,6.118999999999999,-0.11,-1.04,0.1,5.855199999999996,2.7711999999999954,9.457799999999985,0,1,1,100.0,0.8559989459254504,7.85,-6.994001054074549
8,59.0,2,20.0,2.0,6,2,7.8678,-0.012740000000000008,0.0007000000000005005,-1.4142400000000006,40.0,25.9,0,19.0,3340.0,2.0,6.550199999999998,-0.12,-1.04,0.1,6.870399999999996,3.8847999999999954,12.985199999999987,0,1,1,100.0,0.7299482309966693,7.8678,-7.137851769003331
8,60.0,2,20.0,2.0,6,2,7.962000000000001,-0.0103,-0.013799999999999996,-1.1995,40.0,25.9,0,19.0,3340.0,2.0,7.315,-0.137,-1.04,0.1,8.322,5.101,16.439999999999998,0,1,1,100.0,0.590146528984748,7.962000000000001,-7.371853471015252
8,61.0,2,20.0,2.0,6,2,8.199399999999999,-0.008460000000000013,0.09643999999999883,-0.9676800000000008,40.0,25.93,0,19.0,3340.0,2.0,8.467599999999994,-0.15539999999999987,-1.03,0.11,10.35419999999999,6.931199999999989,19.40279999999999,0,1,1,100.0,0.4847222946806772,8.199399999999999,-7.714677705319322
8,62.0,2,20.0,2.0,6,2,8.3228,-0.007440000000000001,0.09400000000000011,-0.91412,40.0,25.9132,0,19.0,3340.0,2.0,8.9332,-0.16,-1.0244,0.11559999999999998,11.081999999999999,7.782799999999999,20.144,0,1,1,100.0,0.42628059957733255,8.3228,-7.896519400422668
8,63.0,2,20.0,2.0,6,2,8.801999999999998,-0.006590000000000009,0.08360999999999981,-0.6923000000000006,40.0,25.93,0,19.0,3340.0,2.0,10.371399999999996,-0.1840999999999999,-1.01,0.13,12.718099999999996,10.642799999999989,21.3279,0,1,1,100.0,0.377579186991213,8.801999999999998,-8.424420813008785
8,64.0,2,20.0,2.0,6,2,9.370399999999998,-0.005040000000000009,0.026320000000000305,-0.5110400000000007,40.0,25.93,0,19.0,3340.0,2.0,11.787199999999995,-0.2095999999999999,-1.0,0.14,13.3548,13.32919999999999,21.442400000000003,0,1,1,100.0,0.2887707287459354,9.370399999999998,-9.081629271254062
8,65.0,2,20.0,2.0,6,2,9.935,-0.00395,-0.0369,-0.32825000000000004,40.0,25.93,0,19.0,3340.0,2.0,12.9465,-0.2305,-0.99,0.15,13.239,15.228,21.056,0,1,1,100.0,0.2263183290766752,9.935,-9.708681670923326
8,66.0,2,20.0,2.0,6,2,10.296799999999996,-0.003,0.04992000000000057,-0.25723999999999997,40.0,25.93,0,19.0,3340.0,2.0,13.574799999999993,-0.24,-0.9876000000000001,0.15,12.958000000000004,16.10359999999999,20.715600000000002,0,1,1,100.0,0.17188733853924698,10.296799999999996,-10.12491266146075
8,67.0,2,20.0,2.0,6,2,11.266499999999999,-0.0018100000000000024,0.07558000000000004,-0.10099000000000019,40.0,25.93,0,19.0,3340.0,2.0,15.075,-0.26189999999999997,-0.9781,0.15189999999999998,11.8269,17.5813,19.7316,0,1,1,100.0,0.10370536091867914,11.266499999999999,-11.16279463908132
8,68.0,2,20.0,2.0,6,2,11.737199999999994,-0.001,0.024600000000001277,0.00979999999999836,40.0,25.93,0,19.0,3340.0,2.0,15.745199999999992,-0.27519999999999983,-0.97,0.1548000000000002,11.14920000000001,17.8572,19.24760000000001,0,1,1,100.0,0.057295779513082325,11.737199999999994,-11.679904220486913
8,69.0,2,20.0,2.0,6,2,12.587099999999998,-0.00017000000000000454,-0.031329999999999775,0.05508999999999989,40.0,25.93,0,19.0,3340.0,2.0,16.968199999999996,-0.29829999999999995,-0.97,0.15,9.750500000000002,17.5893,18.313100000000002,0,1,1,100.0,0.009740282517224254,12.587099999999998,-12.577359717482773
8,70.0,2,20.0,2.0,6,2,13.324,0.0,-0.073,0.092,40.0,25.93,0,18.0,3340.0,2.0,18.058,-0.31,-0.96,0.15,8.288,16.394,17.354,0,1,1,100.0,-0.0,13.324,-13.324
8,71.0,2,20.0,1.0,6,2,14.507799999999994,0.0,0.005079999999998877,0.06784000000000019,40.0,25.93,0,17.0,3340.0,2.0,19.651799999999994,-0.33939999999999987,-0.95,0.14,5.679800000000011,12.964400000000017,15.38140000000001,0,1,1,100.0,-0.0,14.507799999999994,-14.507799999999994
8,72.0,2,20.0,1.0,6,2,15.319599999999998,0.0,-0.05167999999999956,0.06571999999999996,40.0,25.93,0,17.0,3340.0,2.0,20.4732,-0.35079999999999995,-0.94,0.14,4.101200000000003,10.243200000000005,13.777600000000003,0,1,1,100.0,-0.0,15.319599999999998,-15.319599999999998
8,73.0,2,20.0,1.0,6,2,16.059599999999996,0.0,-0.05909000000000074,0.06919999999999892,40.0,25.93,0,17.0,3340.0,2.0,20.9998,-0.36,-0.94,0.14,2.982700000000004,7.875600000000009,12.207500000000007,0,1,1,100.0,-0.0,16.059599999999996,-16.059599999999996
8,74.0,2,20.0,1.0,6,2,16.801199999999998,0.001,0.08183999999999983,0.22107999999999975,40.0,25.93,0,17.0,3340.0,2.0,21.2908,-0.37,-0.94,0.14,2.1860000000000017,5.829800000000004,10.742000000000003,0,1,1,100.0,-0.057295779513082325,16.801199999999998,-16.85849577951308
8,75.0,2,20.0,1.0,6,2,17.25,0.0015,0.10250000000000001,0.36650000000000005,40.0,25.93,0,17.0,3340.0,2.0,21.345000000000002,-0.37,-0.945,0.14,1.7999999999999998,4.68,10.004999999999999,0,1,1,100.0,-0.08594366926962349,17.25,-17.335943669269625
8,76.0,2,20.0,1.3600000000000136,6,2,17.954799999999995,0.0036399999999999866,0.09043999999999937,0.6460799999999987,40.0,25.93,0,17.360000000000014,3340.0,2.0,21.2752,-0.37,-0.95,0.14,1.2172000000000036,2.944400000000011,9.301200000000003,0,1,1,100.0,-0.20855663742761887,17.954799999999995,-18.163356637427615
8,77.0,2,20.0,1.0,6,2,18.548000000000002,0.006186666666666664,0.09611999999999998,0.8964266666666664,40.0,25.93,0,17.0,3340.0,2.0,21.100666666666665,-0.37,-0.96,0.14,0.6520000000000005,1.4072000000000013,9.416466666666667,0,1,1,100.0,-0.35446988925426914,18.548000000000002,-18.90246988925427
8,78.0,2,20.0,1.919999999999982,6,2,18.936799999999995,0.007919999999999983,0.0807600000000004,1.1124399999999972,40.0,25.9024,0,17.91999999999998,3340.0,2.0,20.968000000000004,-0.37,-0.9691999999999998,0.14,0.2816000000000049,0.3908000000000139,9.887199999999993,0,1,1,100.0,-0.453782573743611,18.936799999999995,-19.390582573743604
8,79.0,2,20.0,2.0,6,2,20.004399999999997,0.01305999999999999,0.048920000000000165,1.750599999999999,40.0,25.862399999999997,0,18.0,3340.0,2.0,20.9248,-0.37,-0.97,0.14,-0.09040000000000147,-1.9585999999999972,12.581199999999995,0,1,1,100.0,-0.7482828804408546,20.004399999999997,-20.75268288044085
8,80.0,2,20.0,2.0,6,2,20.374,0.0146,0.0344,1.9152,40.0,25.875999999999998,0,18.0,3340.0,2.0,21.060000000000002,-0.37,-0.97,0.146,0.198,-2.4059999999999997,13.244,0,1,1,100.0,-0.836518380891002,20.374,-21.210518380891
8,81.0,2,20.0,1.6600000000000137,6,2,20.994799999999998,0.016,0.022439999999999783,2.0254000000000008,40.0,25.86,0,17.660000000000014,3340.0,2.0,21.27,-0.37,-0.9466000000000001,0.15,0.8007999999999984,-3.2597999999999936,12.419400000000014,0,1,1,100.0,-0.9167324722093172,20.994799999999998,-21.911532472209316
8,82.0,2,20.0,1.0,6,2,21.302799999999998,0.016739999999999998,0.015240000000000054,2.07448,40.0,25.86,0,17.0,3340.0,2.0,21.1738,-0.36260000000000003,-0.9326000000000001,0.15739999999999998,0.8726,-4.0657999999999985,10.390200000000004,0,1,1,100.0,-0.959131349048998,21.302799999999998,-22.261931349048997
8,83.0,2,20.0,1.0,6,2,21.923999999999996,0.017619999999999983,0.0037599999999982136,2.2050199999999998,40.0,25.86,0,17.0,3340.0,2.0,20.03180000000001,-0.3338000000000002,-0.91,0.17,0.08860000000000855,-6.519399999999984,1.4470000000000756,0,1,1,100.0,-1.0095516350205096,21.923999999999996,-22.933551635020507
8,84.0,2,20.0,1.0,0,5,22.3292,0.018,-0.011439999999999376,2.3049999999999993,40.0,25.86,0,17.0,3340.0,2.0,18.346000000000007,-0.2948000000000002,-0.8924000000000001,0.1775999999999999,-1.1235999999999944,-7.755599999999997,-9.17479999999995,0,1,1,100.0,-1.0313240312354817,22.3292,-23.36052403123548
8,85.0,2,20.0,0.0,0,6,22.637999999999995,0.019,0.05,2.349,40.0,25.86,0,36.999999999999545,3340.0,2.0,16.100000000000026,-0.26200000000000045,-0.8989999999999998,0.18899999999999978,-2.4949999999999855,-8.117999999999999,-23.579999999999828,0,1,1,100.0,-1.088619810748564,22.637999999999995,-23.72661981074856
8,86.0,2,20.0,0.0,0,6,22.755599999999998,0.09387999999999902,17.06283999999978,1.127520000000016,40.0,25.99,0,30.400000000000375,3340.0,2.0,14.502400000000007,-0.23480000000000006,-0.9203999999999999,0.19519999999999993,-3.3275999999999972,-6.439200000000012,-36.694399999999945,0,1,1,100.0,-5.378927780688112,22.755599999999998,-28.13452778068811
8,87.0,2,20.0,0.0,0,6,22.6969,0.16912999999999997,0.564379999999998,-0.0,40.0,25.953599999999998,0,4.0,3340.0,2.0,13.1386,-0.22410000000000002,-0.9617999999999999,0.2,-3.5138000000000003,-0.373100000000009,-50.56829999999999,0,1,1,100.0,-9.690435189047612,22.6969,-32.38733518904761
8,88.0,2,20.0,0.0,0,6,22.131200000000003,0.21387999999999982,0.7287200000000106,-0.0,40.0,25.9428,0,4.0,3340.0,2.0,12.451200000000002,-0.22,-1.0063999999999997,0.2,-1.7184000000000206,12.407199999999909,-59.39799999999998,0,1,1,100.0,-12.254421322258036,22.131200000000003,-34.38562132225804
8,89.0,2,20.0,0.0,0,6,21.235400000000006,0.22913999999999993,0.5391599999999978,-0.0,40.0,25.97,0,4.0,3340.0,2.0,12.3454,-0.23,-1.0346,0.18080000000000018,1.0615999999999868,21.788599999999967,-59.8804,0,1,1,100.0,-13.12875491762768,21.235400000000006,-34.36415491762769
8,90.0,2,20.0,0.0,0,7,20.480000000000008,0.23799999999999993,0.11760000000000792,-0.0,40.0,25.97,0,4.0,3340.0,2.0,12.34,-0.23,-1.0479999999999998,0.16200000000000012,3.0339999999999834,25.26199999999998,-58.40600000000001,0,1,1,100.0,-13.636395524113588,20.480000000000008,-34.1163955241136
8,91.0,2,20.0,0.0,0,7,18.33060000000001,0.238,0.043059999999999744,-0.0,40.0,25.9596,0,4.0,3340.0,2.0,12.116400000000002,-0.22260000000000013,-1.05,0.09520000000000027,6.281399999999992,23.40620000000003,-53.27400000000003,0,1,1,100.0,-13.636395524113592,18.33060000000001,-31.966995524113603
8,92.0,2,20.0,0.0,0,7,16.868400000000005,0.23712,-0.06431999999999966,-0.0,40.0,25.97,0,4.0,3340.0,2.0,11.7612,-0.2156,-1.0356,0.046800000000000064,5.782800000000003,17.435600000000008,-50.0108,0,1,1,100.0,-13.58597523814208,16.868400000000005,-30.454375238142084
8,93.0,2,20.0,0.0,0,7,15.421200000000017,0.23296000000000006,-0.23652000000000134,-0.0,40.0,25.97,0,4.0,3340.0,2.0,11.272000000000007,-0.1998000000000002,-1.0198000000000003,-0.0003999999999996362,2.9270000000000573,10.284200000000087,-47.01360000000003,0,1,1,100.0,-13.347624795367661,15.421200000000017,-28.768824795367678
8,94.0,2,20.0,0.0,0,7,12.43800000000001,0.22488000000000008,-0.3903599999999869,-0.0,40.0,25.97,0,4.0,3340.0,2.0,9.916000000000004,-0.1684000000000001,-0.9768000000000001,-0.07159999999999991,-9.596399999999953,-4.069199999999963,-41.56880000000002,0,1,1,100.0,-12.884674896901958,12.43800000000001,-25.322674896901965
8,95.0,2,20.0,0.0,0,7,10.43400000000002,0.1603000000000011,-3.344100000000009,-0.0,40.0,25.942,0,4.0,3340.0,2.0,9.317000000000002,-0.15700000000000022,-0.9570000000000002,-0.09,-20.38199999999989,-13.18199999999989,-38.18500000000004,0,1,1,100.0,-9.18451345594716,10.43400000000002,-19.61851345594718
8,96.0,2,20.0,0.0,0,7,8.507200000000031,0.1313599999999993,1.3649599999999795,-0.0,40.0,25.9524,0,4.0,3340.0,2.0,8.526000000000032,-0.14560000000000037,-0.9643999999999996,-0.07120000000000072,-28.850799999999904,-24.21759999999981,-34.877200000000045,0,1,1,100.0,-7.526373596838455,8.507200000000031,-16.033573596838487
8,97.0,2,20.0,0.0,0,7,6.945100000000011,0.13259000000000037,-1.5301300000000027,-0.0,40.0,25.941599999999998,0,4.0,3340.0,2.0,6.197000000000023,-0.1113000000000004,-0.9957999999999997,-0.018400000000000544,-31.510299999999997,-32.675699999999956,-31.80690000000003,0,1,1,100.0,-7.596847405639607,6.945100000000011,-14.541947405639618
8,98.0,2,20.0,0.0,0,7,5.050000000000013,0.0837600000000003,-1.329559999999986,-0.0,40.0,25.93,0,4.0,3340.0,2.0,1.8540000000000327,-0.038400000000000545,-1.0543999999999998,0.06879999999999928,-29.855200000000025,-37.40599999999999,-23.64960000000008,0,1,1,100.0,-4.799094492015793,5.050000000000013,-9.849094492015805
8,99.0,2,20.0,0.0,0,7,3.5352000000000063,0.03378000000000025,-1.7207200000000022,-0.0,40.0,25.97,0,4.0,3340.0,2.0,-1.4481999999999875,0.027199999999999815,-1.0886,0.1185999999999999,-25.83240000000002,-35.26060000000001,-11.924000000000056,0,1,1,100.0,-1.9354514319519351,3.5352000000000063,-5.470651431951941
8,100.0,2,20.0,0.0,0,7,2.79,0.007,-1.521,-0.0,40.0,25.93,0,4.0,3340.0,2.0,-2.72,0.05,-1.1,0.13,-23.06,-32.5,-4.36,0,1,1,100.0,-0.40107045659157625,2.79,-3.1910704565915764
14,0.0,2,20.0,0.0,0,1,4.83,-0.126,0.029,0.194,41.0,25.93,0,19.0,3340.0,5.0,12.19,-0.22,-1.01,0.08,-10.84,6.49,-2.58,0,1,1,100.0,7.219268218648373,4.83,2.3892682186483727
14,1.0,2,20.0,0.0,0,1,4.9212,-0.125,-0.025,0.094,41.0,25.93,0,29.4,3340.0,5.0,11.633600000000001,-0.21,-1.01,0.07,-10.6916,5.2912,-1.5236,0,1,1,100.0,7.16197243913529,4.9212,2.2407724391352906
14,2.0,2,20.0,0.3466666666666666,0,1,4.9708,-0.125,-0.025,0.094,41.0,25.93,0,46.28,3340.0,5.0,11.382933333333334,-0.20653333333333332,-1.01,0.06653333333333333,-10.523333333333333,4.7623999999999995,-1.1148,0,1,1,100.0,7.16197243913529,4.9708,2.1911724391352907
14,3.0,2,20.0,0.8533333333333332,0,1,5.0012,-0.125,-0.025,0.094,41.0,25.93,0,56.919999999999995,3340.0,5.0,11.241066666666667,-0.20146666666666668,-1.01,0.06146666666666667,-10.396666666666667,4.4736,-0.9172,0,1,1,100.0,7.16197243913529,5.0012,2.1607724391352905
14,4.0,2,20.0,1.0,0,1,5.2332,-0.121,-0.019320000000000007,-0.0,41.0,25.93,0,2.0,3340.0,5.0,10.5936,-0.19,-1.01,0.05,-9.4792,3.27,-0.5723999999999999,0,1,1,100.0,6.932789321082961,5.2332,1.6995893210829607
14,5.0,2,20.0,1.0,0,1,5.294,-0.121,0.012600000000000004,-0.0,41.0,25.93,0,2.0,3340.0,5.0,10.472,-0.19,-1.01,0.05,-9.274000000000001,3.0799999999999996,-0.618,0,1,1,100.0,6.932789321082961,5.294,1.6387893210829612
14,6.0,2,20.0,1.0,0,1,5.4696,-0.12448,-0.22724000000000005,-0.0,41.0,25.9652,0,2.0,3340.0,5.0,10.102,-0.18,-1.01,0.04,-8.6552,2.6008000000000004,-0.6196000000000002,0,1,1,100.0,7.132178633788487,5.4696,1.6625786337884874
14,7.0,2,20.0,1.0,0,1,5.5656,-0.12896,-0.15172000000000005,-0.0,41.0,25.93,0,2.0,3340.0,5.0,9.922,-0.18,-1.01,0.04,-8.294400000000001,2.4184,-0.35800000000000015,0,1,1,100.0,7.388863726007096,5.5656,1.823263726007096
14,8.0,2,20.0,1.0,0,1,5.6328000000000005,-0.13132,-0.09171999999999997,-0.0,41.0,25.93,0,2.0,3340.0,5.0,9.8008,-0.1784,-1.0116,0.038400000000000004,-8.0092,2.3124000000000002,-0.03840000000000028,0,1,1,100.0,7.524081765657971,5.6328000000000005,1.8912817656579701
14,9.0,2,20.0,0.0,0,1,5.8344000000000005,-0.13704,-0.1087599999999998,-0.0,41.0,25.93,0,1.0,3340.0,5.0,9.566,-0.17,-1.02,0.023200000000000016,-6.910000000000001,2.0688,1.5363999999999987,0,1,1,100.0,7.851813624472801,5.8344000000000005,2.017413624472801
14,10.0,2,20.0,0.0,0,1,5.946,-0.1406,-0.1572,-0.0,41.0,25.962,0,1.0,3340.0,5.0,9.532,-0.17,-1.02,0.02,-6.096,1.904,2.696,0,1,1,100.0,8.055786599539374,5.946,2.1097865995393743
14,11.0,2,20.0,0.0,0,1,6.0388,-0.14551999999999998,-0.38987999999999967,-0.0,41.0,25.93,0,1.0,3340.0,5.0,9.550799999999999,-0.17,-1.02,0.02,-5.4348,1.7496,3.6079999999999997,0,1,1,100.0,8.337681834743739,6.0388,2.2988818347437388
14,12.0,2,20.0,0.0,0,1,6.191599999999999,-0.16168,-0.5818400000000001,-0.0,41.0,25.93,0,1.0,3340.0,5.0,9.6344,-0.17,-1.02,0.01,-4.380400000000001,1.5036000000000003,5.2891999999999975,0,1,1,100.0,9.26358163167515,6.191599999999999,3.0719816316751505
14,13.0,2,20.0,0.0,0,1,6.2904,-0.17004,-0.62364,-0.0,41.0,25.93,0,1.0,3340.0,5.0,9.7142,-0.1738,-1.02,0.01,-3.7686,1.3744,6.5812,0,1,1,100.0,9.742574348404519,6.2904,3.452174348404519
14,14.0,2,20.0,0.0,0,1,6.367999999999999,-0.17779999999999999,-0.6890400000000007,-0.0,41.0,25.93,0,1.0,3340.0,5.0,9.8036,-0.18,-1.02,0.01,-3.297200000000001,1.2692,7.730799999999998,0,1,1,100.0,10.187189597426036,6.367999999999999,3.8191895974260364
14,15.0,2,20.0,0.0,0,1,6.628,-0.1976,-0.541,-0.0,41.0,25.93,0,1.0,3340.0,5.0,10.2,-0.18,-1.012,0.01,-2.062,1.044,11.338000000000001,0,1,1,100.0,11.321646031785066,6.628,4.693646031785066
14,16.0,2,20.0,0.0,0,1,6.7292,-0.20493999999999998,-0.60222,-0.0,41.0,25.93,0,1.0,3340.0,5.0,10.385200000000001,-0.1866,-1.01,0.01,-1.6994000000000002,1.0234,12.553999999999998,0,1,1,100.0,11.74219705341109,6.7292,5.01299705341109
14,17.0,2,20.0,0.0,0,1,7.0176,-0.22104,-0.4299200000000002,-0.0,41.0,25.93,0,1.0,3340.0,5.0,10.9636,-0.1984,-1.01,0.01,-0.9648000000000007,1.0919999999999999,15.367999999999997,0,1,1,100.0,12.664659103571715,7.0176,5.647059103571715
14,18.0,2,20.0,0.0,0,1,7.2324,-0.23208,-0.4667600000000004,-0.0,41.0,25.93,0,1.0,3340.0,5.0,11.3948,-0.20179999999999998,-1.0082,0.01,-0.7156000000000001,1.2287999999999997,16.778399999999998,0,1,1,100.0,13.297204509396146,7.2324,6.064804509396145
14,19.0,2,20.0,0.0,0,1,7.3692,-0.23664,-0.30107999999999985,-0.0,41.0,25.93,0,1.0,3340.0,5.0,11.6684,-0.2094,-1.0006,0.01,-0.6547999999999999,1.3504000000000003,17.447200000000002,0,1,1,100.0,13.5584732639758,7.3692,6.1892732639758
14,20.0,2,20.0,0.0,0,1,7.872,-0.239,0.015,-0.0,41.0,25.954,0,1.0,3340.0,5.0,12.662,-0.224,-1.0,0.01,-0.9480000000000001,1.97,18.381999999999998,0,1,1,100.0,13.693691303626675,7.872,5.821691303626675
14,21.0,2,20.0,0.0,0,1,8.24,-0.23807999999999999,0.018240000000000003,-0.0,41.0,25.9668,0,1.0,3340.0,5.0,13.3156,-0.23919999999999997,-0.9908,0.01,-1.4319999999999995,2.4351999999999996,17.804000000000002,0,1,1,100.0,13.640979186474638,8.24,5.400979186474638
14,22.0,2,20.0,0.0,0,1,8.6432,-0.23612,0.07223999999999973,-0.0,41.0,25.97,0,1.0,3340.0,5.0,13.9316,-0.24439999999999998,-0.99,0.01,-2.035999999999999,2.9019999999999992,16.238000000000003,0,1,1,100.0,13.528679458628998,8.6432,4.885479458628998
14,23.0,2,20.0,0.0,0,1,8.9392,-0.23404,0.08000000000000022,-0.0,41.0,25.97,0,1.0,3340.0,5.0,14.3132,-0.25479999999999997,-0.99,0.01,-2.4423999999999992,3.1899999999999995,14.746800000000002,0,1,1,100.0,13.409504237241787,8.9392,4.470304237241788
14,24.0,2,20.0,0.0,0,1,9.2388,-0.233,-0.020999999999999658,-0.0,41.0,25.9508,0,1.0,3340.0,5.0,14.629199999999999,-0.26,-0.99,0.005200000000000046,-2.7983999999999987,3.420799999999999,13.070400000000008,0,1,1,100.0,13.349916626548183,9.2388,4.111116626548183
14,25.0,2,20.0,0.0,0,1,10.03,-0.234,-0.088,-0.0,41.0,25.97,0,1.0,3340.0,5.0,15.17,-0.27,-0.99,0.0,-3.49,3.75,8.65,0,1,1,100.0,13.407212406061264,10.03,3.3772124060612647
14,26.0,2,20.0,0.4800000000000011,6,2,10.521199999999999,-0.23651999999999998,-0.4163199999999996,-0.05719999999999987,41.0,25.8936,0,10.319999999999983,3340.0,5.0,15.3016,-0.27,-0.99,-0.0051999999999999885,-3.7783999999999995,3.383200000000001,6.530000000000001,0,1,1,100.0,13.55159777043423,10.521199999999999,3.030397770434231
14,27.0,2,20.0,0.03999999999999773,6,2,11.001999999999999,-0.16972000000000012,4.948000000000005,-5.271799999999996,40.96,24.9676,0,18.04,3340.0,5.0,15.4192,-0.27,-0.99,-0.01,-4.013599999999999,1.4220000000000055,3.8884000000000065,0,1,1,100.0,9.72423969896034,11.001999999999999,-1.2777603010396597
14,28.0,2,20.0,0.4400000000000034,6,2,11.452399999999999,-0.10548000000000006,1.4413600000000077,-8.56115999999999,40.0,24.334000000000003,0,18.440000000000005,3340.0,5.0,15.310400000000001,-0.27,-0.99,-0.015599999999999966,-4.0888,-2.52599999999999,-0.5315999999999894,0,1,1,100.0,6.043558823039927,11.452399999999999,-5.408841176960072
14,29.0,2,20.0,0.0,6,2,11.7312,-0.09530000000000001,0.3718600000000002,-10.033719999999999,40.0,23.9404,0,18.0,3340.0,5.0,15.0996,-0.27,-0.9954,-0.02,-3.9828000000000006,-5.275799999999994,-3.465999999999993,0,1,1,100.0,5.460287787596746,11.7312,-6.270912212403253
14,30.0,2,20.0,0.0,6,2,12.01,-0.09,0.3216,-10.183200000000001,40.0,23.89,0,18.0,3340.0,5.0,14.794,-0.264,-1.0,-0.02,-3.678,-7.978,-6.216,0,1,1,100.0,5.156620156177409,12.01,-6.853379843822591
14,31.0,2,20.0,0.11999999999999887,6,2,12.3652,-0.08276,0.24728,-9.778039999999999,40.12,24.0868,0,18.119999999999997,3340.0,5.0,14.3364,-0.25880000000000003,-1.0012,-0.02,-2.862400000000001,-10.855599999999999,-8.9576,0,1,1,100.0,4.7417987125026935,12.3652,-7.623401287497306
14,32.0,2,20.0,1.0,6,2,12.658800000000001,-0.07780000000000001,0.24392,-9.19044,40.36,24.2996,0,19.0,3340.0,5.0,13.9428,-0.25,-1.01,-0.02,-1.6888000000000019,-12.150799999999998,-10.063199999999998,0,1,1,100.0,4.4576116461178055,12.658800000000001,-8.201188353882195
14,33.0,2,20.0,1.0,6,2,12.9764,-0.06984000000000001,0.16132000000000013,-8.30972,41.0,24.605600000000003,0,19.0,3340.0,5.0,13.5212,-0.24,-1.01,-0.02,0.2719999999999989,-11.578000000000001,-9.594000000000001,0,1,1,100.0,4.00153724119367,12.9764,-8.97486275880633
14,34.0,2,20.0,1.0,6,2,13.0372,-0.06832,0.10736000000000016,-8.20256,41.0,24.658800000000003,0,19.0,3340.0,5.0,13.4376,-0.24,-1.01,-0.02,0.7659999999999986,-10.894000000000002,-9.062000000000001,0,1,1,100.0,3.9144476563337847,13.0372,-9.122752343666216
14,35.0,2,20.0,1.0,6,2,13.104,-0.0666,0.029400000000000003,-7.9366,41.0,24.714,0,19.0,3340.0,5.0,13.288,-0.24,-1.01,-0.02,1.4340000000000002,-9.392000000000001,-7.868,0,1,1,100.0,3.815898915571283,13.104,-9.288101084428716
14,36.0,2,20.0,1.0,6,2,13.0884,-0.06056000000000001,0.12920000000000115,-7.357800000000001,41.0,24.8904,0,19.0,3340.0,5.0,12.962000000000002,-0.23,-1.01,-0.012800000000000068,1.8959999999999997,-6.149600000000009,-5.071600000000009,0,1,1,100.0,3.469832407312266,13.0884,-9.618567592687734
14,37.0,2,20.0,1.0,6,2,13.0328,-0.05876,0.11815999999999996,-6.96312,41.0,24.9884,0,19.0,3340.0,5.0,12.7184,-0.23,-1.01,-0.01,1.8752,-4.353600000000001,-3.2396000000000016,0,1,1,100.0,3.366700004188717,13.0328,-9.666099995811283
14,38.0,2,20.0,1.0,6,2,12.9872,-0.05724,0.15084000000000006,-6.73588,41.0,25.041600000000003,0,19.0,3340.0,5.0,12.5816,-0.23,-1.01,-0.01,1.8448,-3.4263999999999983,-2.1603999999999983,0,1,1,100.0,3.279610419328832,12.9872,-9.707589580671169
14,39.0,2,20.0,1.0,6,2,12.8202,-0.05286,0.09028000000000011,-6.382160000000001,41.0,25.19,0,19.0,3340.0,5.0,12.258799999999999,-0.22,-1.02,-0.01,1.9137999999999995,-1.048200000000002,1.3509999999999964,0,1,1,100.0,3.0286549050615315,12.8202,-9.791545094938469
14,40.0,2,20.0,1.0,6,2,12.767,-0.0521,0.0538,-6.2636,41.0,25.19,0,19.0,3340.0,5.0,12.198,-0.22,-1.02,-0.01,2.043,-0.387,2.605,0,1,1,100.0,2.985110112631589,12.767,-9.781889887368411
14,41.0,2,20.0,1.0,6,2,12.5908,-0.04968000000000001,0.03131999999999982,-6.00328,41.0,25.26,0,19.0,3340.0,5.0,12.3144,-0.22,-1.0168000000000001,-0.02,2.843999999999997,1.101199999999997,6.41439999999999,0,1,1,100.0,2.84645432620993,12.5908,-9.74434567379007
14,42.0,2,20.0,1.0,6,2,12.529,-0.049,0.028840000000000053,-5.97116,41.0,25.2768,0,19.0,3340.0,5.0,12.535,-0.22419999999999998,-1.01,-0.02,3.3641999999999994,1.4975999999999996,7.883999999999999,0,1,1,100.0,2.807493196141034,12.529,-9.721506803858965
14,43.0,2,20.0,1.0,6,2,12.4628,-0.049,-0.011240000000000078,-5.92416,41.0,25.285600000000002,0,19.0,3340.0,5.0,13.126000000000001,-0.23360000000000003,-1.0064,-0.02,4.428800000000001,1.8624000000000003,9.788400000000001,0,1,1,100.0,2.807493196141034,12.4628,-9.655306803858966
14,44.0,2,20.0,1.0,6,2,12.45,-0.049,-0.028600000000000025,-5.939279999999999,41.0,25.26,0,19.0,3340.0,5.0,13.6756,-0.24,-1.0,-0.02,5.319199999999997,1.9464,10.617199999999999,0,1,1,100.0,2.807493196141034,12.45,-9.642506803858964
14,45.0,2,20.0,1.0,6,2,12.464,-0.049,0.004199999999999999,-5.9254999999999995,41.0,25.26,0,19.0,3340.0,5.0,13.979,-0.247,-0.993,-0.02,5.803,1.943,10.809999999999999,0,1,1,100.0,2.807493196141034,12.464,-9.656506803858967
14,46.0,2,20.0,1.0,6,2,12.5068,-0.049,-0.024319999999999686,-5.92352,41.0,25.26,0,19.0,3340.0,5.0,14.411999999999997,-0.25,-0.99,-0.02,6.513599999999996,1.8940000000000003,10.87,0,1,1,100.0,2.807493196141034,12.5068,-9.699306803858967
14,47.0,2,20.0,1.0,6,2,12.662,-0.049,0.03951999999999998,-5.94694,41.0,25.2912,0,19.0,3340.0,5.0,15.078399999999998,-0.2622,-0.98,-0.01,7.7334,1.6880000000000002,10.411800000000001,0,1,1,100.0,2.807493196141034,12.662,-9.854506803858968
14,48.0,2,20.0,1.0,6,2,12.738,-0.049,0.05167999999999993,-5.929460000000001,41.0,25.260800000000003,0,19.0,3340.0,5.0,15.2456,-0.2698,-0.98,-0.01,8.090599999999997,1.6120000000000005,10.176200000000001,0,1,1,100.0,2.807493196141034,12.738,-9.930506803858965
14,49.0,2,20.0,1.0,6,2,13.0136,-0.049,0.04404000000000001,-5.9276,41.0,25.3,0,19.0,3340.0,5.0,15.604,-0.2724,-0.98,0.0,8.889999999999999,1.4304000000000001,9.48,0,1,1,100.0,2.807493196141034,13.0136,-10.206106803858965
14,50.0,2,20.0,1.0,6,2,13.12,-0.049,0.041,-5.901,41.0,25.3,0,19.0,3340.0,5.0,15.68,-0.28,-0.98,0.0,9.08,1.4,9.29,0,1,1,100.0,2.807493196141034,13.12,-10.312506803858966
14,51.0,2,20.0,1.0,6,2,13.358399999999998,-0.04748000000000001,0.08936000000000038,-5.765040000000001,41.0,25.3156,0,19.0,3340.0,5.0,15.776,-0.28,-0.9852,0.005199999999999932,9.292,1.3903999999999999,9.0632,0,1,1,100.0,2.7204036112811494,13.358399999999998,-10.637996388718848
14,52.0,2,20.0,1.0399999999999978,6,2,13.797199999999998,-0.04492,0.06195999999999972,-5.31984,41.0,25.4016,0,19.04,3340.0,5.0,15.882000000000001,-0.28,-0.99,0.010399999999999977,9.295200000000001,1.5028,9.096,0,1,1,100.0,2.573726415727658,13.797199999999998,-11.223473584272341
14,53.0,2,20.0,2.0,6,2,14.0204,-0.042440000000000005,0.19079999999999983,-5.058320000000002,41.0,25.4484,0,20.0,3340.0,5.0,15.943999999999999,-0.28,-0.99,0.02,9.1296,1.5979999999999996,9.298799999999998,0,1,1,100.0,2.4316328825352143,14.0204,-11.588767117464787
14,54.0,2,20.0,2.0,6,2,14.345066666666666,-0.03797333333333333,0.19270666666666691,-4.4964666666666675,42.0,25.5108,0,20.0,3340.0,5.0,16.041866666666667,-0.29,-0.9902666666666666,0.02026666666666665,8.773866666666667,1.7726666666666666,9.729333333333333,0,1,1,100.0,2.1757117340434458,14.345066666666666,-12.16935493262322
14,55.0,2,20.0,2.0,6,2,14.441333333333333,-0.03746666666666666,0.11113333333333333,-4.410333333333334,42.0,25.526,0,20.0,3340.0,5.0,16.077333333333332,-0.29,-0.9953333333333333,0.025333333333333333,8.657333333333334,1.8233333333333335,9.906666666666666,0,1,1,100.0,2.146681872423484,14.441333333333333,-12.294651460909849
14,56.0,2,20.0,2.0,6,2,14.552799999999998,-0.036760000000000015,0.046439999999999405,-4.304360000000002,42.0,25.5448,0,20.0,3340.0,5.0,16.1208,-0.29,-1.0,0.03,8.522400000000003,1.8831999999999993,10.120399999999998,0,1,1,100.0,2.106192854900907,14.552799999999998,-12.44660714509909
14,57.0,2,20.0,2.0,6,2,15.0316,-0.031720000000000005,0.2029999999999999,-3.7086400000000004,42.0,25.6392,0,20.0,3340.0,5.0,16.3832,-0.29,-1.0,0.03,8.046800000000001,2.1275999999999997,11.3484,0,1,1,100.0,1.8174221261549717,15.0316,-13.214177873845028
14,58.0,2,20.0,1.0,6,2,15.520399999999999,-0.027680000000000017,0.08271999999999939,-3.2225200000000016,42.0,25.6948,0,19.0,3340.0,5.0,16.8184,-0.3,-1.0,0.04,7.977599999999999,2.3295999999999992,12.889199999999994,0,1,1,100.0,1.5859471769221196,15.520399999999999,-13.93445282307788
14,59.0,2,20.0,0.6600000000000023,6,2,15.748,-0.025660000000000002,0.14206,-3.01664,42.0,25.72,0,18.660000000000004,3340.0,5.0,17.115199999999998,-0.30339999999999995,-0.9966,0.04,8.138,2.4004,13.607199999999999,0,1,1,100.0,1.4702097023056926,15.748,-14.277790297694306
14,60.0,2,20.0,1.0,6,2,16.122,-0.023,0.0438,-2.794,42.0,25.76,0,19.0,3340.0,5.0,17.674,-0.312,-0.99,0.04,8.636000000000001,2.488,14.626,0,1,1,100.0,1.3178029288008934,16.122,-14.804197071199106
14,61.0,2,20.0,1.0,6,2,16.4412,-0.022280000000000005,0.06683999999999918,-2.59296,42.0,25.7816,0,19.0,3340.0,5.0,18.1676,-0.32,-0.9828,0.04,9.263999999999998,2.5488,15.348399999999996,0,1,1,100.0,1.2765499675514744,16.4412,-15.164650032448524
14,62.0,2,20.0,1.0,6,2,16.6364,-0.02138,0.09046000000000003,-2.50446,42.0,25.79,0,19.0,3340.0,5.0,18.445999999999998,-0.3262,-0.98,0.04,9.7124,2.5972,15.7652,0,1,1,100.0,1.2249837659897,16.6364,-15.411416234010298
14,63.0,2,20.0,1.0,6,2,16.8872,-0.019480000000000018,0.14099999999999932,-2.2540400000000025,42.0,25.79,0,19.0,3340.0,5.0,18.757599999999996,-0.33,-0.98,0.04,10.373599999999994,2.6883999999999992,16.327599999999993,0,1,1,100.0,1.1161217849148446,16.8872,-15.771078215085156
14,64.0,2,20.0,1.0,6,2,17.4772,-0.014720000000000004,0.1273600000000005,-1.667400000000001,42.0,25.86,0,19.0,3340.0,5.0,19.1796,-0.34,-0.9827999999999999,0.05,12.270399999999995,3.3243999999999976,18.033199999999997,0,1,1,100.0,0.843393874432572,17.4772,-16.63380612556743
14,65.0,2,20.0,1.0,6,2,17.75,-0.0128,0.08479999999999999,-1.4058,42.0,25.875999999999998,0,19.0,3340.0,5.0,19.238,-0.34400000000000003,-0.99,0.054,13.376,3.95,19.174,0,1,1,100.0,0.7333859777674537,17.75,-17.016614022232545
14,66.0,2,20.0,1.0,6,2,18.2132,-0.008680000000000005,0.08611999999999997,-0.9751600000000005,42.0,25.9,0,19.0,3340.0,5.0,19.2352,-0.35,-1.0,0.06159999999999997,15.554799999999995,5.529999999999996,21.540799999999994,0,1,1,100.0,0.4973273661735549,18.2132,-17.715872633826447
14,67.0,2,20.0,1.0,6,2,18.418400000000002,-0.007160000000000002,0.09144,-0.8429200000000001,42.0,25.9,0,19.0,3340.0,5.0,19.212400000000002,-0.35,-1.0,0.0692,16.717599999999997,6.479999999999999,22.7796,0,1,1,100.0,0.41023778131366956,18.418400000000002,-18.008162218686333
14,68.0,2,20.0,1.0,6,2,19.121599999999997,-0.003280000000000018,0.15635999999999975,-0.24476000000000278,42.0,25.9192,0,19.0,3340.0,5.0,19.197200000000002,-0.35,-1.0135999999999998,0.08359999999999991,21.757999999999978,11.104399999999977,27.351999999999983,0,1,1,100.0,0.18793015680291106,19.121599999999997,-18.933669843197087
14,69.0,2,20.0,1.0,6,2,19.601599999999998,-0.0011200000000000045,0.1527600000000001,0.1853199999999988,42.0,25.9,0,19.0,3340.0,5.0,19.2452,-0.35879999999999995,-1.02,0.09879999999999996,26.01239999999999,15.537199999999986,30.30719999999999,0,1,1,100.0,0.06417127305465245,19.601599999999998,-19.537428726945347
14,70.0,2,20.0,1.0,6,2,20.11,0.0028,0.1558,0.6212,42.0,25.918,0,19.0,3340.0,5.0,19.392,-0.36,-1.02,0.124,31.343999999999998,21.862,33.092,0,1,1,100.0,-0.1604281826366305,20.11,-20.27042818263663
14,71.0,2,20.0,1.0,6,2,20.660400000000003,0.006760000000000014,0.15944000000000016,1.1010800000000016,42.0,25.9,0,19.0,3340.0,5.0,19.654000000000003,-0.36,-1.02,0.1484000000000001,37.54240000000002,30.126000000000026,35.537600000000005,0,1,1,100.0,-0.3873194695084373,20.660400000000003,-21.04771946950844
14,72.0,2,20.0,1.0,6,2,20.9636,0.00915999999999998,0.27287999999999896,1.4581999999999968,42.0,25.9,0,19.0,3340.0,5.0,19.8788,-0.3671999999999999,-1.0128000000000001,0.15719999999999992,41.11279999999997,35.39959999999996,36.57439999999999,0,1,1,100.0,-0.524829340339833,20.9636,-21.48842934033983
14,73.0,2,20.0,1.0,6,2,21.463599999999996,0.013839999999999963,0.23728000000000077,1.9124399999999968,42.0,25.8616,0,19.0,3340.0,5.0,20.3344,-0.37,-1.0004000000000002,0.16959999999999992,46.78599999999996,44.335599999999936,37.84199999999999,0,1,1,100.0,-0.7929735884610573,21.463599999999996,-22.256573588461052
14,74.0,2,20.0,0.5200000000000046,6,2,22.565599999999996,0.015520000000000004,-0.14751999999999998,1.8895200000000005,42.0,25.86,0,18.520000000000003,3340.0,5.0,21.869999999999997,-0.3848,-0.9652000000000001,0.19,57.32839999999998,62.21319999999997,37.146800000000006,0,1,1,100.0,-0.8892304980430379,22.565599999999996,-23.454830498043034
14,75.0,2,20.0,1.0,6,2,23.29,0.013,-0.15,1.543,42.0,25.86,0,19.0,3340.0,5.0,23.05,-0.4,-0.93,0.18,62.0,69.07,33.31,0,1,1,100.0,-0.7448451336700702,23.29,-24.034845133670068
14,76.0,2,20.0,1.0,6,2,24.055200000000003,0.01095999999999999,-0.07224000000000051,1.2700399999999994,42.0,25.9,0,19.0,3340.0,5.0,24.183600000000002,-0.40520000000000006,-0.8996,0.16479999999999997,64.46000000000001,70.0068,25.54199999999997,0,1,1,100.0,-0.6279617434633817,24.055200000000003,-24.683161743463383
14,77.0,2,20.0,1.0,6,2,24.480266666666665,0.009306666666666677,-0.1131733333333335,1.0920133333333346,42.0,25.9,0,19.0,3340.0,5.346666666666662,24.686799999999998,-0.41,-0.8830666666666668,0.15653333333333339,64.95386666666667,68.59933333333333,19.948400000000035,0,1,1,100.0,-0.5332327213350867,24.480266666666665,-25.01349938800175
14,78.0,2,20.0,1.0,1,5,24.74373333333333,0.00829333333333334,-0.09442666666666677,0.9531866666666675,42.0,25.9,0,19.0,3340.0,5.85333333333333,24.9452,-0.41,-0.8729333333333333,0.1514666666666667,64.97413333333334,67.18066666666667,16.087600000000023,0,1,1,100.0,-0.4751729980951631,24.74373333333333,-25.218906331428496
14,79.0,2,20.0,0.0,1,6,26.355999999999998,-0.0855199999999998,-3.222600000000002,1.6014799999999991,42.0,25.7876,0,19.0,3340.0,6.0,25.2836,-0.38920000000000005,-0.8192,0.10920000000000005,60.00080000000001,54.03560000000002,-12.883199999999956,0,1,1,100.0,4.899935063958789,26.355999999999998,-21.45606493604121
14,80.0,2,20.0,0.0,1,6,27.01,-0.1494,-2.5894,1.902,42.0,25.76,0,19.0,3340.0,6.0,24.65,-0.374,-0.81,0.094,55.114,49.891999999999996,-27.396,0,1,1,100.0,8.5599894592545,27.01,-18.450010540745502
14,81.0,2,20.0,0.0,1,6,27.541200000000003,-0.20024000000000014,-1.8863599999999994,2.1765599999999994,42.0,25.76,0,19.0,3340.0,6.0,23.5844,-0.34879999999999994,-0.8012000000000001,0.07879999999999995,49.174399999999984,48.4176,-41.73280000000005,0,1,1,100.0,11.472906889699612,27.541200000000003,-16.06829311030039
14,82.0,2,20.0,0.0,1,6,27.827599999999997,-0.23135999999999984,-1.638200000000003,2.253279999999997,42.0,25.7472,0,19.0,3340.0,6.0,22.515600000000006,-0.3368000000000001,-0.81,0.06680000000000007,43.83200000000003,49.83759999999999,-52.66159999999994,0,1,1,100.0,13.255951548146717,27.827599999999997,-14.57164845185328
14,83.0,2,20.0,0.0,1,6,27.961199999999998,-0.24987999999999982,-1.3018800000000021,2.562040000000001,42.0,25.72,0,19.0,3340.0,6.0,21.760400000000008,-0.3284000000000001,-0.8116,0.056800000000000184,39.919600000000045,52.182799999999965,-60.023199999999925,0,1,1,100.0,14.317069384729,27.961199999999998,-13.644130615270997
14,84.0,2,20.0,0.0,1,6,27.888,-0.2901599999999999,-0.8634000000000011,2.950799999999998,42.0,25.72,0,19.0,3340.0,6.0,20.526,-0.31,-0.8367999999999999,0.01640000000000009,28.61440000000002,67.16799999999996,-78.48799999999997,0,1,1,100.0,16.624943383515962,27.888,-11.26305661648404
14,85.0,2,20.0,0.0,1,6,27.48,-0.3044,-0.452,3.2845999999999997,42.0,25.69,0,19.0,3340.0,6.0,21.256,-0.336,-0.862,-0.006,22.796,79.458,-85.286,0,1,1,100.0,17.44083528378226,27.48,-10.03916471621774
14,86.0,2,20.0,0.0,1,6,26.9656,-0.31216,-0.3948399999999998,3.4314400000000003,42.0,25.6756,0,19.0,3340.0,6.0,22.739600000000003,-0.3708000000000001,-0.8772000000000001,-0.037200000000000046,18.734399999999994,88.30520000000001,-87.19680000000001,0,1,1,100.0,17.885450532803777,26.9656,-9.080149467196222
14,87.0,2,20.0,0.0,1,6,26.46400000000001,-0.31671999999999995,-0.28756000000000315,3.639119999999995,42.0,25.6428,0,19.0,3340.0,6.0,24.158799999999978,-0.39959999999999946,-0.8947999999999997,-0.05719999999999959,15.81920000000004,93.92519999999993,-86.80240000000003,0,1,1,100.0,18.14671928738343,26.46400000000001,-8.31728071261658
14,88.0,2,20.0,0.0,3,7,25.37720000000001,-0.319,-0.04816000000000076,4.141479999999998,42.0,25.5896,0,19.0,3340.0,6.0,26.35519999999999,-0.46039999999999964,-0.9251999999999999,-0.08759999999999991,12.064800000000018,100.37759999999997,-82.31840000000004,0,1,1,100.0,18.27735366467326,25.37720000000001,-7.099846335326749
14,89.0,2,20.0,0.6399999999999978,3,7,23.699200000000005,-0.31608,0.1748,4.6488000000000005,42.0,25.5208,0,19.639999999999997,3340.0,6.0,27.528,-0.5064,-0.9727999999999999,-0.07720000000000005,9.88,102.0416,-71.41960000000002,0,1,1,100.0,18.110049988495064,23.699200000000005,-5.589150011504941
14,90.0,2,20.0,0.19999999999999996,3,7,21.448,-0.3088,0.2232,4.545,42.0,25.54,0,19.2,3340.0,6.0,26.894000000000002,-0.52,-1.018,-0.026000000000000002,8.292,96.786,-54.58,0,1,1,100.0,17.692936713639824,21.448,-3.7550632863601763
14,91.0,2,20.0,0.16000000000000228,3,7,19.9408,-0.29923999999999995,0.5983600000000004,4.5508,42.0,25.591199999999997,0,19.160000000000004,3340.0,6.0,25.880799999999997,-0.5067999999999999,-1.0416,0.014800000000000068,6.914399999999997,90.0448,-43.39759999999998,0,1,1,100.0,17.14518906149475,19.9408,-2.7956109385052486
14,92.0,2,20.0,0.9199999999999933,3,7,19.089600000000008,-0.2908800000000001,0.7663199999999986,4.4216000000000015,42.0,25.644399999999997,0,19.919999999999995,3340.0,6.0,25.219600000000003,-0.49160000000000015,-1.0492,0.03759999999999979,6.032800000000008,85.31760000000004,-37.40120000000006,0,1,1,100.0,16.666196344765392,19.089600000000008,-2.4234036552346154
14,93.0,2,20.0,0.0,3,7,17.750400000000003,-0.27520000000000006,0.9269599999999996,4.048400000000001,42.0,25.658399999999997,0,19.0,3340.0,6.0,24.077600000000004,-0.4676,-1.0512,0.062399999999999935,4.656400000000003,76.82640000000002,-28.794400000000017,0,1,1,100.0,15.767798522000259,17.750400000000003,-1.9826014779997436
14,94.0,2,20.0,0.0,3,7,17.203200000000002,-0.26760000000000006,1.007013333333333,3.9192,42.0,25.693866666666665,0,19.0,3340.0,6.0,23.5608,-0.4574666666666667,-1.0562666666666667,0.0725333333333333,4.134533333333335,73.01120000000002,-25.561866666666674,0,1,1,100.0,15.332350597700833,17.203200000000002,-1.8708494022991697
14,95.0,2,20.0,0.0,3,7,16.384,-0.2552,1.1492,3.6948,42.0,25.747999999999998,0,19.0,3340.0,6.0,22.748,-0.442,-1.06,0.084,3.422,67.18,-21.003999999999998,0,1,1,100.0,14.621882931738607,16.384,-1.762117068261393
14,96.0,2,20.0,0.0,3,7,12.340000000000012,-0.1718800000000002,0.9137999999999997,1.0962400000000043,42.0,25.927599999999998,0,19.0,3340.0,6.0,18.93400000000001,-0.3608000000000002,-1.0408000000000002,0.10919999999999982,0.8188000000000111,36.102800000000116,-5.954000000000028,0,1,1,100.0,9.847998582708602,12.340000000000012,-2.4920014172914104
14,97.0,2,20.0,0.0,3,7,11.797600000000005,-0.1623600000000001,0.7263600000000018,0.6640000000000039,42.0,25.93,0,19.0,3340.0,6.0,18.587600000000002,-0.35280000000000006,-1.04,0.11,0.19400000000000547,31.549200000000038,-5.203600000000006,0,1,1,100.0,9.302542761744052,11.797600000000005,-2.495057238255953
14,98.0,2,20.0,0.0,3,7,11.331600000000002,-0.15660000000000002,0.4120400000000023,0.3662000000000013,42.0,25.93,0,19.0,3340.0,6.0,18.302000000000003,-0.34520000000000006,-1.0352000000000001,0.11,-0.5099999999999955,27.550800000000024,-4.734400000000003,0,1,1,100.0,8.972519071748692,11.331600000000002,-2.359080928251309
14,99.0,2,20.0,0.0,3,7,10.328400000000002,-0.15448,-0.1457599999999996,0.15128000000000005,42.0,25.9144,0,19.0,3340.0,6.0,17.631600000000002,-0.32520000000000004,-1.02,0.11,-2.8243999999999945,18.695600000000017,-4.0752000000000015,0,1,1,100.0,8.851052019180958,10.328400000000002,-1.4773479808190437
14,100.0,2,20.0,1.0,3,7,9.46,-0.157,-0.001,0.133,42.0,25.93,0,20.0,3340.0,6.0,16.75,-0.3,-1.01,0.1,-6.1,10.91,-3.22,0,1,1,100.0,8.995437383553925,9.46,-0.46456261644607544
15,0.0,2,20.0,0.0,0,1,9.23,-0.157,-0.046,0.067,42.0,25.93,0,19.0,3340.0,6.0,16.38,-0.3,-1.01,0.1,-7.35,8.78,-2.73,0,1,1,100.0,8.995437383553925,9.23,-0.234562616446075
15,1.0,2,20.0,0.0,0,1,8.9564,-0.158,-0.032,0.013,42.0,25.93,0,33.8,3340.0,6.0,15.716199999999999,-0.2826,-1.0,0.0926,-9.3514,6.1206000000000005,-1.6864000000000001,0,1,1,100.0,9.052733163067007,8.9564,0.09633316306700657
15,2.0,2,20.0,0.23999999999999988,0,1,8.8156,-0.15968,-0.24319999999999986,0.009880000000000002,42.0,25.93,0,45.80000000000001,3340.0,6.0,15.1808,-0.27,-1.0,0.0876,-10.8808,4.6024,-0.7064,0,1,1,100.0,9.148990072648985,8.8156,0.3333900726489851
15,3.0,2,20.0,0.7800000000000004,0,1,8.7378,-0.16544,-0.14946000000000004,-0.0,42.0,25.93,0,3.7800000000000002,3340.0,6.0,14.560599999999999,-0.26,-1.0,0.07780000000000001,-12.544,3.4286,0.5009999999999998,0,1,1,100.0,9.479013762644339,8.7378,0.7412137626443389
15,4.0,2,20.0,0.0,0,1,8.7492,-0.16796,0.019439999999999947,-0.0,42.0,25.93,0,3.0,3340.0,6.0,14.129199999999999,-0.2504,-1.0,0.0604,-13.6564,2.9192000000000005,1.3907999999999996,0,1,1,100.0,9.623399127017306,8.7492,0.874199127017306
15,5.0,2,20.0,0.0,0,1,8.808,-0.168,0.005400000000000002,-0.0,42.0,25.93,0,3.0,3340.0,6.0,13.818,-0.243,-1.0,0.053,-14.45,2.762,2.0100000000000002,0,1,1,100.0,9.625690958197831,8.808,0.8176909581978311
15,6.0,2,20.0,0.0,0,1,8.9108,-0.17132,-0.14351999999999993,-0.0,42.0,25.93,0,3.0,3340.0,6.0,13.606,-0.24,-1.0,0.04560000000000001,-15.0056,2.8108,2.3528,0,1,1,100.0,9.815912946181264,8.9108,0.9051129461812639
15,7.0,2,20.0,0.0,0,1,9.0381,-0.17736,-0.2961400000000001,-0.0,42.0,25.9664,0,3.0,3340.0,6.0,13.452800000000002,-0.24,-1.0,0.029100000000000008,-15.3045,2.9817,2.5425999999999997,0,1,1,100.0,10.16197945444028,9.0381,1.1238794544402797
15,8.0,2,20.0,0.0,0,1,9.116399999999999,-0.18084,-0.16216000000000008,-0.0,42.0,25.9316,0,3.0,3340.0,6.0,13.3832,-0.24,-1.0,0.020400000000000005,-15.347999999999999,3.0948,2.6643999999999997,0,1,1,100.0,10.361368767145807,9.116399999999999,1.2449687671458083
15,9.0,2,20.0,0.0,0,1,9.376,-0.18964,-0.2860399999999999,-0.0,42.0,25.93,0,3.0,3340.0,6.0,13.177200000000001,-0.2334,-1.0,0.003400000000000006,-14.683,3.3564000000000003,3.4074,0,1,1,100.0,10.865571626860932,9.376,1.4895716268609327
15,10.0,2,20.0,0.0,0,1,9.564,-0.202,-0.5244,-0.0,42.0,25.93,0,3.0,3340.0,6.0,13.056,-0.23,-1.004,-0.01,-13.512,3.322,4.38,0,1,1,100.0,11.57374746164263,9.564,2.0097474616426307
15,11.0,2,20.0,0.0,0,1,9.7554,-0.21753999999999998,-0.6340399999999989,-0.0,42.0,25.93,0,3.0,3340.0,6.0,12.9886,-0.23,-1.01,-0.021399999999999978,-11.735000000000003,3.1334000000000004,5.994999999999997,0,1,1,100.0,12.464123875275927,9.7554,2.7087238752759273
15,12.0,2,20.0,0.0,0,1,9.9028,-0.23315999999999998,-0.96104,-0.0,42.0,25.93,0,3.0,3340.0,6.0,12.9844,-0.23,-1.01,-0.03,-10.0484,2.8644000000000003,7.765199999999999,0,1,1,100.0,13.359083951270273,9.9028,3.456283951270274
15,13.0,2,20.0,0.0,0,1,10.1706,-0.25858,-0.5213600000000006,-0.0,42.0,25.93,0,3.0,3340.0,6.0,13.1182,-0.2362,-1.01,-0.04,-6.698400000000002,2.2068000000000003,11.927799999999998,0,1,1,100.0,14.815542666492826,10.1706,4.644942666492826
15,14.0,2,20.0,0.0,0,1,10.4104,-0.26744,-0.2826000000000003,-0.0,42.0,25.93,0,3.0,3340.0,6.0,13.447199999999999,-0.24,-1.01,-0.05,-3.5488000000000066,1.5016000000000014,15.803999999999991,0,1,1,100.0,15.323183272978737,10.4104,4.9127832729787375
15,15.0,2,20.0,0.0,0,1,10.588000000000001,-0.2722,-0.22445,-0.0,42.0,25.93,0,3.0,3340.0,6.0,13.818,-0.2455,-1.01,-0.05,-1.2585,0.978,18.203,0,1,1,100.0,15.595911183461007,10.588000000000001,5.007911183461006
15,16.0,2,20.0,0.0,0,1,10.8028,-0.27736,-0.2802799999999998,-0.0,42.0,25.93,0,3.0,3340.0,6.0,14.341199999999999,-0.25839999999999996,-1.01,-0.05,1.1807999999999956,0.42720000000000097,20.266399999999997,0,1,1,100.0,15.891557405748513,10.8028,5.088757405748513
15,17.0,2,20.0,0.0,0,1,11.3634,-0.28515999999999997,-0.06029999999999962,-0.0,42.0,25.93,0,3.0,3340.0,6.0,15.743199999999998,-0.28,-0.9942000000000001,-0.044200000000000045,5.399199999999994,-0.42339999999999894,22.185399999999998,0,1,1,100.0,16.338464485950553,11.3634,4.975064485950552
15,18.0,2,20.0,0.0,0,1,11.7964,-0.287,0.004880000000000047,-0.0,42.0,25.93,0,3.0,3340.0,6.0,16.6664,-0.29319999999999996,-0.9868,-0.03680000000000001,7.0844,-0.7251999999999998,21.7816,0,1,1,100.0,16.443888720254627,11.7964,4.647488720254627
15,19.0,2,20.0,0.0,0,1,12.288599999999999,-0.28706,-0.06706000000000018,-0.0,42.0,25.93,0,3.0,3340.0,6.0,17.537,-0.3106,-0.98,-0.029400000000000034,7.9596,-0.87,20.392200000000006,0,1,1,100.0,16.44732646702541,12.288599999999999,4.15872646702541
15,20.0,2,20.0,0.0,6,2,12.844,-0.2888,-0.09780000000000001,0.012,42.0,25.874,0,15.0,3340.0,6.0,18.288,-0.32,-0.972,-0.02,8.078,-0.83,18.29,0,1,1,100.0,16.547021123378176,12.844,3.7030211233781767
15,21.0,2,20.0,0.26999999999999885,6,2,13.357199999999999,-0.18694000000000008,6.030800000000004,-5.461479999999998,42.0,24.8125,0,18.27,3340.0,6.0,18.859099999999998,-0.3327,-0.97,-0.01,7.9522,-1.0595999999999994,14.243600000000004,0,1,1,100.0,10.710873022175614,13.357199999999999,-2.646326977824385
15,22.0,2,20.0,0.0,6,2,14.083599999999999,-0.09620000000000005,0.9427600000000027,-9.029239999999998,42.0,24.2604,0,18.0,3340.0,6.0,19.335199999999997,-0.34,-0.97,-0.007200000000000046,7.574400000000002,-2.484799999999996,3.955200000000027,0,1,1,100.0,5.5118539891585225,14.083599999999999,-8.571746010841476
15,23.0,2,20.0,1.0,6,2,14.712266666666668,-0.08096,0.3179,-9.069293333333333,42.0,24.350733333333334,0,19.0,3340.0,6.0,19.349,-0.34,-0.97,0.0,7.027200000000001,-3.9944,-6.003333333333331,0,1,1,100.0,4.638666309379145,14.712266666666668,-10.073600357287523
15,24.0,2,20.0,1.0,6,2,14.909466666666667,-0.07748000000000001,0.30920000000000003,-8.833813333333334,42.0,24.414533333333335,0,19.0,3340.0,6.0,19.262,-0.34,-0.97,0.0,6.783600000000001,-4.377199999999999,-8.903333333333327,0,1,1,100.0,4.439276996673619,14.909466666666667,-10.470189669993047
15,25.0,2,20.0,1.0,6,2,15.519999999999998,-0.07000000000000002,0.18149999999999972,-8.271500000000001,42.0,24.58,0,19.0,3340.0,6.0,18.805,-0.3350000000000001,-0.98,0.01,5.905000000000003,-5.159999999999999,-16.604999999999983,0,1,1,100.0,4.010704565915764,15.519999999999998,-11.509295434084233
15,26.0,2,20.0,1.0,6,2,15.9452,-0.06664,0.1349600000000001,-7.88428,42.0,24.7132,0,19.0,3340.0,6.0,18.2532,-0.32,-0.98,0.01,5.1024,-5.1028,-20.5068,0,1,1,100.0,3.818190746751806,15.9452,-12.127009253248193
15,27.0,2,20.0,1.0,6,2,16.127899999999997,-0.06403,0.054920000000000205,-7.552810000000001,42.0,24.808899999999998,0,19.0,3340.0,6.0,17.9139,-0.32,-0.98,0.01,4.684800000000001,-4.833100000000001,-21.716099999999997,0,1,1,100.0,3.668648762222661,16.127899999999997,-12.459251237777336
15,28.0,2,20.0,1.0,6,2,16.47,-0.05656000000000001,0.13175999999999996,-6.732400000000002,42.0,25.0704,0,19.0,3340.0,6.0,16.175600000000003,-0.2828000000000001,-0.9872,0.01,3.364400000000001,-2.613200000000005,-22.221600000000002,0,1,1,100.0,3.240649289259937,16.47,-13.229350710740063
15,29.0,2,20.0,1.0,6,2,16.3886,-0.053540000000000004,0.052579999999999925,-6.47992,42.0,25.12,0,19.0,3340.0,6.0,15.232400000000002,-0.2654,-0.99,0.01,3.1416000000000004,-1.4602000000000022,-20.933000000000003,0,1,1,100.0,3.067616035130428,16.3886,-13.320983964869573
15,30.0,2,20.0,1.0,6,2,16.193,-0.053,0.0222,-6.4322,42.0,25.16,0,19.0,3340.0,6.0,14.302,-0.249,-0.991,0.01,3.234,-0.5239999999999999,-19.099999999999998,0,1,1,100.0,3.036676314193363,16.193,-13.156323685806639
15,31.0,2,20.0,1.0,6,2,16.045099999999998,-0.053,0.03263999999999999,-6.44264,42.0,25.16,0,19.0,3340.0,6.0,13.7974,-0.2403,-0.9997,0.01,3.4428,-0.12380000000000048,-17.882,0,1,1,100.0,3.036676314193363,16.045099999999998,-13.008423685806635
15,32.0,2,20.0,1.0,6,2,15.430000000000001,-0.053,-0.004319999999999661,-6.35848,42.0,25.16,0,19.0,3340.0,6.0,12.313200000000002,-0.22320000000000004,-1.01,0.01,4.795199999999997,0.5783999999999994,-12.939200000000008,0,1,1,100.0,3.036676314193363,15.430000000000001,-12.393323685806639
15,33.0,2,20.0,1.0,6,2,15.151200000000001,-0.05229,-0.01309000000000007,-6.32522,42.0,25.1813,0,19.0,3340.0,6.0,11.816300000000002,-0.21290000000000003,-1.0171,0.01,5.518299999999998,0.6483999999999999,-10.696700000000009,0,1,1,100.0,2.995996310739075,15.151200000000001,-12.155203689260926
15,34.0,2,20.0,1.0,6,2,14.4868,-0.051,0.020559999999999853,-6.1303600000000005,42.0,25.23,0,19.0,3340.0,6.0,10.943200000000001,-0.19920000000000004,-1.0208,0.01,7.329199999999997,0.6284000000000001,-5.152800000000011,0,1,1,100.0,2.9220847551671985,14.4868,-11.564715244832803
15,35.0,2,20.0,1.0,6,2,14.2345,-0.051,0.0484,-6.0799,42.0,25.23,0,19.0,3340.0,6.0,10.7605,-0.1905,-1.0295,0.01,7.973,0.611,-3.117,0,1,1,100.0,2.9220847551671985,14.2345,-11.312415244832803
15,36.0,2,20.0,1.0,6,2,13.7672,-0.04936,0.06135999999999989,-5.97752,42.0,25.26,0,19.0,3340.0,6.0,10.65,-0.19,-1.03,0.02,9.044799999999999,0.5708000000000001,0.4963999999999953,0,1,1,100.0,2.8281196767657435,13.7672,-10.939080323234258
15,37.0,2,20.0,1.0,6,2,13.086400000000001,-0.049,0.042739999999999896,-5.9671,42.0,25.2752,0,19.0,3340.0,6.0,11.007399999999999,-0.2,-1.02,0.03,10.1336,0.44960000000000033,4.908399999999994,0,1,1,100.0,2.807493196141034,13.086400000000001,-10.278906803858966
15,38.0,2,20.0,1.0,6,2,12.739600000000001,-0.049,-0.008520000000000536,-5.973000000000001,42.0,25.26,0,19.0,3340.0,6.0,11.444799999999997,-0.20119999999999993,-1.01,0.04,10.38,0.3056000000000008,6.603199999999996,0,1,1,100.0,2.807493196141034,12.739600000000001,-9.932106803858968
15,39.0,2,20.0,1.0,6,2,12.4696,-0.049,-0.03015999999999904,-5.9642599999999995,42.85999999999999,25.26,0,19.0,3340.0,6.0,11.966599999999996,-0.21,-1.0014,0.04,10.285400000000001,0.07960000000000127,7.440999999999997,0,1,1,100.0,2.807493196141034,12.4696,-9.662106803858965
15,40.0,2,20.0,1.0,6,2,12.391333333333334,-0.049,-0.020466666666666664,-5.967866666666667,43.0,25.26,0,19.0,3340.0,6.0,12.17,-0.21533333333333332,-1.0,0.04533333333333334,10.152666666666667,-0.020000000000000004,7.532666666666667,0,1,1,100.0,2.807493196141034,12.391333333333334,-9.5838401371923
15,41.0,2,20.0,1.0,6,2,12.1932,-0.049,-0.09265000000000018,-5.93117,43.0,25.26,0,19.0,3340.0,6.0,12.894,-0.23,-0.99,0.06,9.1982,-0.3952999999999999,7.0452,0,1,1,100.0,2.807493196141034,12.1932,-9.385706803858966
15,42.0,2,20.0,1.0399999999999978,6,2,12.1508,-0.049,0.002840000000000123,-5.9525999999999994,43.0,25.2616,0,19.04,3340.0,6.0,13.224400000000001,-0.23,-0.99,0.07,8.112800000000002,-0.5084000000000001,6.138400000000002,0,1,1,100.0,2.807493196141034,12.1508,-9.343306803858965
15,43.0,2,20.0,1.9099999999999966,6,2,12.1682,-0.049,-0.04413999999999982,-5.922149999999999,43.0,25.296400000000002,0,19.909999999999997,3340.0,6.0,13.3201,-0.23,-0.99,0.07,7.521200000000002,-0.47360000000000013,5.668600000000002,0,1,1,100.0,2.807493196141034,12.1682,-9.360706803858967
15,44.0,2,20.0,2.0,6,2,12.2568,-0.046720000000000005,0.02584000000000044,-5.66936,43.0,25.33,0,20.0,3340.0,6.0,13.4228,-0.24,-0.99,0.07279999999999996,5.795600000000003,-0.13560000000000105,4.444000000000003,0,1,1,100.0,2.6768588188512066,12.2568,-9.579941181148794
15,45.0,2,20.0,2.0,6,2,12.324,-0.046,-0.02690000000000065,-5.5592000000000015,43.0,25.342,0,20.0,3340.0,6.0,13.427,-0.24,-0.99,0.08,5.0570000000000075,0.10799999999999706,4.0030000000000046,0,1,1,100.0,2.635605857601787,12.324,-9.688394142398213
15,46.0,2,20.0,2.0,6,2,12.541799999999999,-0.04396,0.0334399999999998,-5.17042,43.0,25.44,0,20.0,3340.0,6.0,13.359399999999999,-0.24,-1.0,0.08,3.2794000000000008,0.8755999999999997,3.2072000000000003,0,1,1,100.0,2.518722467395099,12.541799999999999,-10.0230775326049
