t_ms,segment_id,packet_type,source_mode,frame_fid,note,walk_fid,walk_dt_ms,walk_exec_ms,walk_out,walk_state,walk_tilt_forward_deg,walk_pos_rad,walk_vel_rad_s,walk_tq_nm,walk_temp_c,walk_vbus_v,walk_err_code,walk_fb_age_ms,walk_typical_stride_ms,walk_effective_step_count,walk_tilt_accel_deg,walk_acc_x,walk_acc_y,walk_acc_z,walk_gyr_x,walk_gyr_y,walk_gyr_z,cfg_fid,cfg_robot_id,cfg_ble_target,cfg_gait_model,cfg_gait_mode,cfg_side_is_left,cfg_assist_pct
20,1,walk,walk,11804,,11804.0,20.0,2.0,6.0,2.0,-0.21,-0.015,-0.07,1.761,34.0,28.07,0.0,19.0,0.0,10.0,0.39,0.01,-1.0,-0.08,0.15,-0.92,0.31,313.0,,,0.0,1.0,0.0,100.0
40,1,walk,walk,11805,,11805.0,20.0,2.0,6.0,2.0,-0.21,-0.015,-0.036,1.812,34.0,28.07,0.0,19.0,0.0,10.0,0.41,0.01,-1.0,-0.08,0.13,-0.98,0.4,313.0,,,0.0,1.0,0.0,100.0
60,1,walk,walk,11806,,11806.0,20.0,2.0,6.0,2.0,-0.21,-0.015,-0.103,1.805,34.0,28.07,0.0,19.0,0.0,10.0,0.44,0.01,-1.0,-0.08,0.11,-1.04,0.53,313.0,,,0.0,1.0,0.0,100.0
100,1,walk,walk,11807,,11807.0,20.0,2.0,6.0,2.0,-0.2,-0.015,-0.023,1.843,34.0,28.07,0.0,19.0,0.0,10.0,0.45,0.01,-1.0,-0.08,0.09,-1.11,0.67,313.0,,,0.0,1.0,0.0,100.0
100,1,walk,walk,11808,,11808.0,20.0,2.0,6.0,2.0,-0.2,-0.015,-0.038,1.859,34.0,28.07,0.0,19.0,0.0,10.0,0.46,0.01,-1.0,-0.08,0.07,-1.18,0.81,313.0,,,0.0,1.0,0.0,100.0
120,1,walk,walk,11809,,11809.0,20.0,2.0,6.0,2.0,-0.2,-0.015,0.057,1.84,34.0,28.07,0.0,19.0,0.0,10.0,0.45,0.01,-1.0,-0.08,0.05,-1.23,0.92,313.0,,,0.0,1.0,0.0,100.0
140,1,walk,walk,11810,,11810.0,20.0,2.0,6.0,2.0,-0.2,-0.015,-0.011,1.847,34.0,28.07,0.0,19.0,0.0,10.0,0.44,0.01,-1.0,-0.08,0.05,-1.26,0.99,313.0,,,0.0,1.0,0.0,100.0
160,1,walk,walk,11811,,11811.0,20.0,2.0,6.0,2.0,-0.2,-0.015,-0.023,1.839,34.0,28.07,0.0,19.0,0.0,10.0,0.41,0.01,-1.0,-0.08,0.05,-1.27,1.03,313.0,,,0.0,1.0,0.0,100.0
200,1,walk,walk,11812,,11812.0,20.0,2.0,6.0,2.0,-0.19,-0.015,-0.053,1.822,34.0,28.07,0.0,19.0,0.0,10.0,0.39,0.01,-1.0,-0.08,0.07,-1.27,1.01,313.0,,,0.0,1.0,0.0,100.0
220,1,walk,walk,11813,,11813.0,20.0,2.0,6.0,2.0,-0.19,-0.015,0.041,1.84,34.0,28.07,0.0,19.0,0.0,10.0,0.36,0.01,-1.0,-0.08,0.1,-1.24,0.96,313.0,,,0.0,1.0,0.0,100.0
240,1,walk,walk,11814,,11814.0,20.0,2.0,6.0,2.0,-0.19,-0.015,0.001,1.778,34.0,28.07,0.0,19.0,0.0,10.0,0.33,0.01,-1.0,-0.08,0.13,-1.19,0.87,313.0,,,0.0,1.0,0.0,100.0
240,1,walk,walk,11815,,11815.0,20.0,2.0,6.0,2.0,-0.19,-0.015,-0.011,1.809,34.0,28.07,0.0,19.0,0.0,10.0,0.3,0.01,-1.0,-0.08,0.17,-1.13,0.75,313.0,,,0.0,1.0,0.0,100.0
280,1,walk,walk,11816,,11816.0,20.0,2.0,6.0,2.0,-0.19,-0.015,0.046,1.778,34.0,28.07,0.0,19.0,0.0,10.0,0.28,0.0,-1.0,-0.08,0.21,-1.07,0.6,313.0,,,0.0,1.0,0.0,100.0
280,1,walk,walk,11817,,11817.0,20.0,2.0,6.0,2.0,-0.2,-0.015,-0.007,1.765,34.0,28.07,0.0,19.0,0.0,10.0,0.27,0.0,-1.0,-0.08,0.25,-1.01,0.45,313.0,,,0.0,1.0,0.0,100.0
300,1,walk,walk,11818,,11818.0,20.0,2.0,6.0,2.0,-0.2,-0.015,-0.023,1.77,34.0,28.07,0.0,19.0,0.0,10.0,0.27,0.0,-1.0,-0.08,0.29,-0.95,0.3,313.0,,,0.0,1.0,0.0,100.0
320,1,walk,walk,11819,,11819.0,20.0,2.0,6.0,2.0,-0.2,-0.015,0.015,1.752,34.0,28.07,0.0,19.0,0.0,10.0,0.27,0.0,-1.0,-0.08,0.33,-0.91,0.17,313.0,,,0.0,1.0,0.0,100.0
340,1,walk,walk,11820,,11820.0,20.0,2.0,6.0,2.0,-0.2,-0.015,0.066,1.749,34.0,28.07,0.0,19.0,0.0,10.0,0.28,0.0,-1.0,-0.08,0.36,-0.87,0.07,313.0,,,0.0,1.0,0.0,100.0
360,1,walk,walk,11821,,11821.0,20.0,2.0,6.0,2.0,-0.2,-0.015,0.03,1.751,34.0,28.07,0.0,19.0,0.0,10.0,0.3,0.01,-1.0,-0.08,0.39,-0.86,-0.01,313.0,,,0.0,1.0,0.0,100.0
420,1,walk,walk,11822,,11822.0,20.0,2.0,6.0,2.0,-0.21,-0.015,-0.019,1.751,34.0,28.07,0.0,19.0,0.0,10.0,0.33,0.01,-1.0,-0.08,0.41,-0.85,-0.05,313.0,,,0.0,1.0,0.0,100.0
420,1,walk,walk,11823,,11823.0,20.0,2.0,6.0,2.0,-0.21,-0.015,0.011,1.752,34.0,28.07,0.0,19.0,0.0,10.0,0.35,0.01,-1.0,-0.08,0.42,-0.86,-0.06,313.0,,,0.0,1.0,0.0,100.0
420,1,walk,walk,11824,,11824.0,20.0,2.0,6.0,2.0,-0.21,-0.015,-0.057,1.774,34.0,28.07,0.0,19.0,0.0,10.0,0.37,0.01,-1.0,-0.08,0.43,-0.88,-0.04,313.0,,,0.0,1.0,0.0,100.0
440,1,walk,walk,11825,,11825.0,20.0,2.0,6.0,2.0,-0.21,-0.015,-0.011,1.802,34.0,28.07,0.0,19.0,0.0,10.0,0.39,0.01,-1.0,-0.08,0.43,-0.91,0.0,313.0,,,0.0,1.0,0.0,100.0
460,1,walk,walk,11826,,11826.0,20.0,2.0,6.0,2.0,-0.2,-0.015,0.011,1.771,34.0,28.07,0.0,19.0,0.0,10.0,0.41,0.01,-1.0,-0.08,0.42,-0.95,0.06,313.0,,,0.0,1.0,0.0,100.0
480,1,walk,walk,11827,,11827.0,20.0,2.0,6.0,2.0,-0.2,-0.015,0.065,1.755,34.0,28.07,0.0,19.0,0.0,10.0,0.43,0.01,-1.0,-0.08,0.41,-0.99,0.14,313.0,,,0.0,1.0,0.0,100.0
500,1,walk,walk,11828,,11828.0,20.0,2.0,6.0,2.0,-0.2,-0.015,-0.04,1.77,34.0,28.11,0.0,19.0,0.0,10.0,0.44,0.01,-1.0,-0.08,0.41,-1.03,0.23,313.0,,,0.0,1.0,0.0,100.0
520,1,walk,walk,11829,,11829.0,20.0,2.0,6.0,2.0,-0.19,-0.015,0.101,1.779,34.0,28.07,0.0,19.0,0.0,10.0,0.44,0.01,-1.0,-0.08,0.4,-1.08,0.32,313.0,,,0.0,1.0,0.0,100.0
540,1,walk,walk,11830,,11830.0,20.0,2.0,6.0,2.0,-0.19,-0.015,-0.036,1.773,34.0,28.07,0.0,19.0,0.0,10.0,0.44,0.01,-1.0,-0.08,0.39,-1.13,0.42,313.0,,,0.0,1.0,0.0,100.0
600,1,walk,walk,11831,,11831.0,20.0,2.0,6.0,2.0,-0.18,-0.015,0.003,1.777,34.0,28.07,0.0,19.0,0.0,10.0,0.44,0.01,-1.0,-0.08,0.39,-1.16,0.5,313.0,,,0.0,1.0,0.0,100.0
600,1,walk,walk,11832,,11832.0,20.0,2.0,6.0,2.0,-0.18,-0.015,0.04,1.776,34.0,28.07,0.0,19.0,0.0,10.0,0.43,0.01,-1.0,-0.08,0.38,-1.19,0.56,313.0,,,0.0,1.0,0.0,100.0
600,1,walk,walk,11833,,11833.0,20.0,2.0,6.0,2.0,-0.17,-0.015,0.029,1.778,34.0,28.07,0.0,19.0,0.0,10.0,0.43,0.01,-1.0,-0.08,0.38,-1.22,0.61,313.0,,,0.0,1.0,0.0,100.0
620,1,walk,walk,11834,,11834.0,20.0,2.0,6.0,2.0,-0.16,-0.015,-0.099,1.771,34.0,28.07,0.0,19.0,0.0,10.0,0.42,0.01,-1.0,-0.08,0.38,-1.23,0.64,313.0,,,0.0,1.0,0.0,100.0
640,1,walk,walk,11835,,11835.0,20.0,2.0,6.0,2.0,-0.16,-0.015,-0.019,1.766,34.0,28.07,0.0,19.0,0.0,10.0,0.41,0.01,-1.0,-0.08,0.38,-1.24,0.66,313.0,,,0.0,1.0,0.0,100.0
660,1,walk,walk,11836,,11836.0,20.0,2.0,6.0,2.0,-0.15,-0.015,-0.023,1.779,34.0,28.07,0.0,19.0,0.0,10.0,0.41,0.01,-1.0,-0.08,0.38,-1.24,0.67,313.0,,,0.0,1.0,0.0,100.0
700,1,walk,walk,11837,,11837.0,20.0,2.0,6.0,2.0,-0.15,-0.015,0.013,1.784,34.0,28.07,0.0,19.0,0.0,10.0,0.4,0.01,-1.0,-0.08,0.39,-1.24,0.66,313.0,,,0.0,1.0,0.0,100.0
720,1,walk,walk,11838,,11838.0,20.0,2.0,6.0,2.0,-0.14,-0.015,0.021,1.776,34.0,28.07,0.0,19.0,0.0,10.0,0.4,0.01,-1.0,-0.08,0.39,-1.23,0.65,313.0,,,0.0,1.0,0.0,100.0
740,1,walk,walk,11839,,11839.0,20.0,2.0,6.0,2.0,-0.14,-0.015,-0.018,1.795,34.0,28.07,0.0,19.0,0.0,10.0,0.4,0.01,-1.0,-0.08,0.39,-1.2,0.62,313.0,,,0.0,1.0,0.0,100.0
740,1,walk,walk,11840,,11840.0,20.0,2.0,6.0,2.0,-0.14,-0.015,0.017,1.79,34.0,28.07,0.0,19.0,0.0,10.0,0.4,0.01,-1.0,-0.08,0.38,-1.18,0.59,313.0,,,0.0,1.0,0.0,100.0
760,1,walk,walk,11841,,11841.0,20.0,2.0,6.0,2.0,-0.13,-0.015,0.003,1.772,34.0,28.07,0.0,19.0,0.0,10.0,0.4,0.01,-1.0,-0.08,0.38,-1.15,0.57,313.0,,,0.0,1.0,0.0,100.0
780,1,walk,walk,11842,,11842.0,20.0,2.0,6.0,2.0,-0.13,-0.015,-0.042,1.764,34.0,28.07,0.0,19.0,0.0,10.0,0.4,0.01,-1.0,-0.08,0.37,-1.13,0.54,313.0,,,0.0,1.0,0.0,100.0
820,1,walk,walk,11843,,11843.0,20.0,2.0,6.0,2.0,-0.13,-0.015,-0.002,1.758,34.0,28.07,0.0,19.0,0.0,10.0,0.4,0.01,-1.0,-0.08,0.37,-1.1,0.52,313.0,,,0.0,1.0,0.0,100.0
820,1,walk,walk,11844,,11844.0,20.0,2.0,6.0,2.0,-0.13,-0.015,0.03,1.763,34.0,28.07,0.0,19.0,0.0,10.0,0.4,0.01,-1.0,-0.08,0.37,-1.09,0.5,313.0,,,0.0,1.0,0.0,100.0
840,1,walk,walk,11845,,11845.0,20.0,2.0,6.0,2.0,-0.13,-0.015,-0.005,1.785,34.0,28.07,0.0,19.0,0.0,10.0,0.4,0.01,-1.0,-0.08,0.37,-1.07,0.47,313.0,,,0.0,1.0,0.0,100.0
860,1,walk,walk,11846,,11846.0,20.0,2.0,6.0,2.0,-0.13,-0.015,0.042,1.748,34.0,28.11,0.0,19.0,0.0,10.0,0.39,0.01,-1.0,-0.08,0.38,-1.05,0.44,313.0,,,0.0,1.0,0.0,100.0
920,1,walk,walk,11847,,11847.0,20.0,2.0,6.0,2.0,-0.13,-0.015,0.038,1.774,34.0,28.07,0.0,19.0,0.0,10.0,0.39,0.01,-1.0,-0.08,0.4,-1.03,0.42,313.0,,,0.0,1.0,0.0,100.0
920,1,walk,walk,11848,,11848.0,20.0,2.0,6.0,2.0,-0.13,-0.015,0.041,1.759,34.0,28.07,0.0,19.0,0.0,10.0,0.38,0.01,-1.0,-0.08,0.42,-1.01,0.39,313.0,,,0.0,1.0,0.0,100.0
940,1,walk,walk,11849,,11849.0,20.0,2.0,6.0,2.0,-0.13,-0.015,-0.048,1.788,34.0,28.07,0.0,19.0,0.0,10.0,0.38,0.01,-1.0,-0.08,0.44,-0.98,0.36,313.0,,,0.0,1.0,0.0,100.0
940,1,walk,walk,11850,,11850.0,20.0,2.0,6.0,2.0,-0.13,-0.015,-0.011,1.796,34.0,28.07,0.0,19.0,0.0,10.0,0.38,0.01,-1.0,-0.08,0.46,-0.95,0.33,313.0,,,0.0,1.0,0.0,100.0
960,1,walk,walk,11851,,11851.0,20.0,2.0,6.0,2.0,-0.13,-0.015,0.01,1.762,34.0,28.07,0.0,19.0,0.0,10.0,0.38,0.01,-1.0,-0.08,0.49,-0.93,0.31,313.0,,,0.0,1.0,0.0,100.0
980,1,walk,walk,11852,,11852.0,20.0,2.0,6.0,2.0,-0.13,-0.015,-0.056,1.753,34.0,28.07,0.0,19.0,0.0,10.0,0.39,0.01,-1.0,-0.08,0.51,-0.91,0.3,313.0,,,0.0,1.0,0.0,100.0
1000,1,walk,walk,11853,,11853.0,20.0,2.0,6.0,2.0,-0.13,-0.015,-0.054,1.76,34.0,28.07,0.0,19.0,0.0,10.0,0.4,0.01,-1.0,-0.08,0.52,-0.9,0.3,313.0,,,0.0,1.0,0.0,100.0
1020,1,walk,walk,11854,,11854.0,20.0,2.0,6.0,2.0,-0.12,-0.015,0.056,1.769,34.0,28.07,0.0,19.0,0.0,10.0,0.41,0.01,-1.0,-0.08,0.52,-0.89,0.32,313.0,,,0.0,1.0,0.0,100.0
1080,1,walk,walk,11855,,11855.0,20.0,2.0,6.0,2.0,-0.12,-0.015,0.034,1.763,34.0,28.07,0.0,19.0,0.0,10.0,0.42,0.01,-1.0,-0.08,0.52,-0.89,0.35,313.0,,,0.0,1.0,0.0,100.0
1080,1,walk,walk,11856,,11856.0,20.0,2.0,6.0,2.0,-0.12,-0.015,0.065,1.775,34.0,28.07,0.0,19.0,0.0,10.0,0.43,0.01,-1.0,-0.08,0.51,-0.89,0.38,313.0,,,0.0,1.0,0.0,100.0
1080,1,walk,walk,11857,,11857.0,20.0,2.0,6.0,2.0,-0.12,-0.015,-0.023,1.803,34.0,28.07,0.0,19.0,0.0,10.0,0.43,0.01,-1.0,-0.08,0.5,-0.9,0.41,313.0,,,0.0,1.0,0.0,100.0
1100,1,walk,walk,11858,,11858.0,20.0,2.0,6.0,2.0,-0.12,-0.015,-0.017,1.765,34.0,28.07,0.0,19.0,0.0,10.0,0.43,0.01,-1.0,-0.08,0.48,-0.9,0.44,313.0,,,0.0,1.0,0.0,100.0
1140,1,walk,walk,11859,,11859.0,20.0,2.0,6.0,2.0,-0.12,-0.015,-0.081,1.773,34.0,28.07,0.0,19.0,0.0,10.0,0.43,0.01,-1.0,-0.08,0.46,-0.9,0.47,313.0,,,0.0,1.0,0.0,100.0
1140,1,walk,walk,11860,,11860.0,20.0,2.0,6.0,2.0,-0.11,-0.015,-0.018,1.776,34.0,28.07,0.0,19.0,0.0,10.0,0.43,0.01,-1.0,-0.08,0.44,-0.91,0.49,313.0,,,0.0,1.0,0.0,100.0
1180,1,walk,walk,11861,,11861.0,20.0,2.0,6.0,2.0,-0.11,-0.015,0.087,1.78,34.0,28.07,0.0,19.0,0.0,10.0,0.43,0.01,-1.0,-0.08,0.42,-0.92,0.51,313.0,,,0.0,1.0,0.0,100.0
1220,1,walk,walk,11862,,11862.0,20.0,2.0,6.0,2.0,-0.11,-0.015,-0.009,1.747,34.0,28.07,0.0,19.0,0.0,10.0,0.43,0.01,-1.0,-0.08,0.4,-0.93,0.53,313.0,,,0.0,1.0,0.0,100.0
1220,1,walk,walk,11863,,11863.0,20.0,2.0,6.0,2.0,-0.11,-0.015,0.06,1.774,34.0,28.07,0.0,19.0,0.0,10.0,0.43,0.01,-1.0,-0.08,0.39,-0.94,0.54,313.0,,,0.0,1.0,0.0,100.0
1240,1,walk,walk,11864,,11864.0,20.0,2.0,6.0,2.0,-0.1,-0.015,-0.006,1.772,34.0,28.07,0.0,19.0,0.0,10.0,0.42,0.01,-1.0,-0.08,0.39,-0.95,0.55,313.0,,,0.0,1.0,0.0,100.0
1240,1,walk,walk,11865,,11865.0,20.0,2.0,6.0,2.0,-0.1,-0.015,-0.048,1.783,34.0,28.07,0.0,19.0,0.0,10.0,0.42,0.01,-1.0,-0.08,0.39,-0.96,0.56,313.0,,,0.0,1.0,0.0,100.0
1260,1,walk,walk,11866,,11866.0,20.0,2.0,6.0,2.0,-0.1,-0.015,-0.019,1.774,34.0,28.07,0.0,19.0,0.0,10.0,0.42,0.01,-1.0,-0.08,0.4,-0.97,0.57,313.0,,,0.0,1.0,0.0,100.0
1280,1,walk,walk,11867,,11867.0,20.0,2.0,6.0,2.0,-0.1,-0.015,0.048,1.778,34.0,28.07,0.0,19.0,0.0,10.0,0.41,0.01,-1.0,-0.08,0.4,-0.98,0.58,313.0,,,0.0,1.0,0.0,100.0
1320,1,walk,walk,11868,,11868.0,20.0,2.0,6.0,2.0,-0.1,-0.015,-0.026,1.799,34.0,28.07,0.0,19.0,0.0,10.0,0.41,0.01,-1.0,-0.08,0.41,-0.99,0.59,313.0,,,0.0,1.0,0.0,100.0
1320,1,walk,walk,11869,,11869.0,20.0,2.0,6.0,2.0,-0.09,-0.015,0.036,1.759,34.0,28.07,0.0,19.0,0.0,10.0,0.41,0.01,-1.0,-0.08,0.42,-1.01,0.6,313.0,,,0.0,1.0,0.0,100.0
1340,1,walk,walk,11870,,11870.0,20.0,2.0,6.0,2.0,-0.09,-0.015,0.009,1.771,34.0,28.07,0.0,19.0,0.0,10.0,0.41,0.01,-1.0,-0.08,0.42,-1.02,0.61,313.0,,,0.0,1.0,0.0,100.0
1380,1,walk,walk,11871,,11871.0,20.0,2.0,6.0,2.0,-0.09,-0.015,-0.057,1.767,34.0,28.07,0.0,19.0,0.0,10.0,0.41,0.01,-1.0,-0.08,0.43,-1.03,0.62,313.0,,,0.0,1.0,0.0,100.0
1400,1,walk,walk,11872,,11872.0,20.0,2.0,6.0,2.0,-0.09,-0.015,0.053,1.796,34.0,28.07,0.0,19.0,0.0,10.0,0.4,0.01,-1.0,-0.08,0.42,-1.04,0.63,313.0,,,0.0,1.0,0.0,100.0
1400,1,walk,walk,11873,,11873.0,20.0,2.0,6.0,2.0,-0.09,-0.015,0.041,1.775,34.0,28.07,0.0,19.0,0.0,10.0,0.4,0.01,-1.0,-0.08,0.42,-1.05,0.64,313.0,,,0.0,1.0,0.0,100.0
1420,1,walk,walk,11874,,11874.0,20.0,2.0,6.0,2.0,-0.09,-0.015,0.042,1.742,34.0,28.07,0.0,19.0,0.0,10.0,0.4,0.01,-1.0,-0.08,0.42,-1.06,0.65,313.0,,,0.0,1.0,0.0,100.0
1440,1,walk,walk,11875,,11875.0,20.0,2.0,6.0,2.0,-0.09,-0.015,0.107,1.795,34.0,28.07,0.0,19.0,0.0,10.0,0.4,0.01,-1.0,-0.08,0.42,-1.06,0.66,313.0,,,0.0,1.0,0.0,100.0
1460,1,walk,walk,11876,,11876.0,20.0,2.0,6.0,2.0,-0.09,-0.015,0.072,1.756,34.0,28.07,0.0,19.0,0.0,10.0,0.4,0.01,-1.0,-0.08,0.42,-1.07,0.66,313.0,,,0.0,1.0,0.0,100.0
1480,1,walk,walk,11877,,11877.0,20.0,2.0,6.0,2.0,-0.1,-0.015,0.003,1.769,34.0,28.07,0.0,19.0,0.0,10.0,0.39,0.01,-1.0,-0.08,0.43,-1.07,0.66,313.0,,,0.0,1.0,0.0,100.0
1500,1,walk,walk,11878,,11878.0,20.0,2.0,6.0,2.0,-0.1,-0.015,-0.023,1.782,34.0,28.07,0.0,19.0,0.0,10.0,0.39,0.01,-1.0,-0.08,0.43,-1.06,0.66,313.0,,,0.0,1.0,0.0,100.0
1560,1,walk,walk,11879,,11879.0,20.0,2.0,6.0,2.0,-0.1,-0.015,0.001,1.76,34.0,28.07,0.0,19.0,0.0,10.0,0.39,0.01,-1.0,-0.08,0.43,-1.05,0.65,313.0,,,0.0,1.0,0.0,100.0
1560,1,walk,walk,11880,,11880.0,20.0,2.0,6.0,2.0,-0.1,-0.015,-0.021,1.777,34.0,28.07,0.0,19.0,0.0,10.0,0.39,0.01,-1.0,-0.08,0.42,-1.03,0.64,313.0,,,0.0,1.0,0.0,100.0
1560,1,walk,walk,11881,,11881.0,20.0,2.0,6.0,2.0,-0.1,-0.015,-0.052,1.786,34.0,28.07,0.0,19.0,0.0,10.0,0.39,0.01,-1.0,-0.08,0.42,-1.01,0.64,313.0,,,0.0,1.0,0.0,100.0
1600,1,walk,walk,11882,,11882.0,20.0,2.0,6.0,2.0,-0.1,-0.015,0.056,1.767,34.0,28.07,0.0,19.0,0.0,10.0,0.39,0.01,-1.0,-0.08,0.42,-0.99,0.63,313.0,,,0.0,1.0,0.0,100.0
1600,1,walk,walk,11883,,11883.0,20.0,2.0,6.0,2.0,-0.1,-0.015,-0.037,1.769,34.0,28.07,0.0,19.0,0.0,10.0,0.39,0.01,-1.0,-0.08,0.42,-0.97,0.62,313.0,,,0.0,1.0,0.0,100.0
1620,1,walk,walk,11884,,11884.0,20.0,2.0,6.0,2.0,-0.11,-0.015,-0.003,1.767,34.0,28.07,0.0,19.0,0.0,10.0,0.4,0.01,-1.0,-0.08,0.42,-0.95,0.61,313.0,,,0.0,1.0,0.0,100.0
1660,1,walk,walk,11885,,11885.0,20.0,2.0,6.0,2.0,-0.11,-0.015,-0.088,1.767,34.0,28.07,0.0,19.0,0.0,10.0,0.4,0.01,-1.0,-0.08,0.42,-0.94,0.6,313.0,,,0.0,1.0,0.0,100.0
1680,1,walk,walk,11886,,11886.0,20.0,2.0,6.0,2.0,-0.11,-0.015,0.061,1.766,34.0,28.07,0.0,19.0,0.0,10.0,0.41,0.01,-1.0,-0.08,0.42,-0.94,0.59,313.0,,,0.0,1.0,0.0,100.0
1700,1,walk,walk,11887,,11887.0,20.0,2.0,6.0,2.0,-0.11,-0.015,0.095,1.778,34.0,28.07,0.0,19.0,0.0,10.0,0.42,0.01,-1.0,-0.08,0.42,-0.94,0.58,313.0,,,0.0,1.0,0.0,100.0
1700,1,walk,walk,11888,,11888.0,20.0,2.0,6.0,2.0,-0.11,-0.015,0.038,1.764,34.0,28.07,0.0,19.0,0.0,10.0,0.42,0.01,-1.0,-0.08,0.41,-0.94,0.57,313.0,,,0.0,1.0,0.0,100.0
1720,1,walk,walk,11889,,11889.0,20.0,2.0,6.0,2.0,-0.12,-0.015,0.023,1.765,34.0,28.07,0.0,19.0,0.0,10.0,0.43,0.01,-1.0,-0.08,0.4,-0.96,0.56,313.0,,,0.0,1.0,0.0,100.0
1740,1,walk,walk,11890,,11890.0,20.0,2.0,6.0,2.0,-0.12,-0.015,0.066,1.785,34.0,28.07,0.0,19.0,0.0,10.0,0.43,0.01,-1.0,-0.08,0.4,-0.98,0.56,313.0,,,0.0,1.0,0.0,100.0
1780,1,walk,walk,11891,,11891.0,20.0,2.0,6.0,2.0,-0.12,-0.015,-0.011,1.787,34.0,28.07,0.0,19.0,0.0,10.0,0.44,0.01,-1.0,-0.08,0.39,-1.02,0.56,313.0,,,0.0,1.0,0.0,100.0
1780,1,walk,walk,11892,,11892.0,20.0,2.0,6.0,2.0,-0.12,-0.015,0.113,1.78,34.0,28.07,0.0,19.0,0.0,10.0,0.44,0.01,-1.0,-0.08,0.38,-1.06,0.56,313.0,,,0.0,1.0,0.0,100.0
1800,1,walk,walk,11893,,11893.0,20.0,2.0,6.0,2.0,-0.12,-0.015,0.076,1.765,34.0,28.07,0.0,19.0,0.0,10.0,0.45,0.01,-1.0,-0.08,0.37,-1.11,0.57,313.0,,,0.0,1.0,0.0,100.0
1820,1,walk,walk,11894,,11894.0,20.0,2.0,6.0,2.0,-0.12,-0.015,-0.046,1.767,34.0,28.07,0.0,19.0,0.0,10.0,0.46,0.01,-1.0,-0.08,0.35,-1.16,0.59,313.0,,,0.0,1.0,0.0,100.0
1860,1,walk,walk,11895,,11895.0,20.0,2.0,6.0,2.0,-0.13,-0.015,-0.018,1.791,34.0,28.07,0.0,19.0,0.0,10.0,0.46,0.01,-1.0,-0.08,0.33,-1.2,0.61,313.0,,,0.0,1.0,0.0,100.0
1880,1,walk,walk,11896,,11896.0,20.0,2.0,6.0,2.0,-0.13,-0.015,0.011,1.791,34.0,28.07,0.0,19.0,0.0,10.0,0.47,0.01,-1.0,-0.08,0.3,-1.24,0.63,313.0,,,0.0,1.0,0.0,100.0
1900,1,walk,walk,11897,,11897.0,20.0,2.0,6.0,2.0,-0.13,-0.015,0.073,1.783,34.0,28.07,0.0,19.0,0.0,10.0,0.47,0.01,-1.0,-0.08,0.26,-1.28,0.67,313.0,,,0.0,1.0,0.0,100.0
1900,1,walk,walk,11898,,11898.0,20.0,2.0,6.0,2.0,-0.13,-0.015,-0.052,1.829,34.0,28.07,0.0,19.0,0.0,10.0,0.48,0.01,-1.0,-0.08,0.21,-1.31,0.71,313.0,,,0.0,1.0,0.0,100.0
1920,1,walk,walk,11899,,11899.0,20.0,2.0,6.0,2.0,-0.13,-0.015,-0.069,1.819,34.0,28.07,0.0,19.0,0.0,10.0,0.48,0.01,-1.0,-0.08,0.16,-1.34,0.75,313.0,,,0.0,1.0,0.0,100.0
1940,1,walk,walk,11900,,11900.0,20.0,2.0,6.0,2.0,-0.13,-0.015,-0.075,1.801,34.0,28.07,0.0,19.0,0.0,10.0,0.48,0.01,-1.0,-0.08,0.11,-1.36,0.8,313.0,,,0.0,1.0,0.0,100.0
1960,1,walk,walk,11901,,11901.0,20.0,2.0,6.0,2.0,-0.13,-0.015,-0.001,1.846,34.0,28.07,0.0,19.0,0.0,10.0,0.47,0.01,-1.0,-0.08,0.05,-1.37,0.86,313.0,,,0.0,1.0,0.0,100.0
1980,1,walk,walk,11902,,11902.0,20.0,2.0,6.0,2.0,-0.13,-0.015,0.032,1.837,34.0,28.07,0.0,19.0,0.0,10.0,0.46,0.01,-1.0,-0.08,0.0,-1.38,0.91,313.0,,,0.0,1.0,0.0,100.0
2040,1,walk,walk,11903,,11903.0,20.0,2.0,6.0,2.0,-0.13,-0.015,-0.017,1.854,34.0,28.07,0.0,19.0,0.0,10.0,0.45,0.01,-1.0,-0.08,-0.03,-1.37,0.96,313.0,,,0.0,1.0,0.0,100.0
2040,1,walk,walk,11904,,11904.0,20.0,2.0,6.0,2.0,-0.13,-0.015,-0.015,1.846,34.0,28.07,0.0,19.0,0.0,10.0,0.44,0.01,-1.0,-0.08,-0.06,-1.36,0.99,313.0,,,0.0,1.0,0.0,100.0
2040,1,walk,walk,11905,,11905.0,20.0,2.0,6.0,2.0,-0.13,-0.015,-0.025,1.829,34.0,28.07,0.0,19.0,0.0,10.0,0.42,0.01,-1.0,-0.08,-0.07,-1.35,1.01,313.0,,,0.0,1.0,0.0,100.0
2060,1,walk,walk,11906,,11906.0,20.0,2.0,6.0,2.0,-0.14,-0.015,0.068,1.845,34.0,28.07,0.0,19.0,0.0,10.0,0.4,0.01,-1.0,-0.08,-0.08,-1.32,1.02,313.0,,,0.0,1.0,0.0,100.0
2080,1,walk,walk,11907,,11907.0,20.0,2.0,6.0,2.0,-0.14,-0.015,-0.065,1.875,34.0,28.07,0.0,19.0,0.0,10.0,0.39,0.01,-1.0,-0.08,-0.09,-1.3,1.02,313.0,,,0.0,1.0,0.0,100.0
2100,1,walk,walk,11908,,11908.0,20.0,2.0,6.0,2.0,-0.14,-0.015,-0.053,1.853,34.0,28.07,0.0,19.0,0.0,10.0,0.38,0.01,-1.0,-0.08,-0.1,-1.28,1.01,313.0,,,0.0,1.0,0.0,100.0
2120,1,walk,walk,11909,,11909.0,20.0,2.0,6.0,2.0,-0.14,-0.015,0.101,1.875,34.0,28.07,0.0,19.0,0.0,10.0,0.36,0.01,-1.0,-0.08,-0.11,-1.25,1.02,313.0,,,0.0,1.0,0.0,100.0
2140,1,walk,walk,11910,,11910.0,20.0,2.0,6.0,2.0,-0.15,-0.015,0.026,1.868,34.0,28.07,0.0,19.0,0.0,10.0,0.35,0.01,-1.0,-0.08,-0.11,-1.24,1.02,313.0,,,0.0,1.0,0.0,100.0
2160,1,walk,walk,11911,,11911.0,20.0,2.0,6.0,2.0,-0.15,-0.016,-0.101,1.879,34.0,28.07,0.0,19.0,0.0,10.0,0.34,0.01,-1.0,-0.08,-0.11,-1.22,1.03,313.0,,,0.0,1.0,0.0,100.0
2200,1,walk,walk,11912,,11912.0,20.0,2.0,6.0,2.0,-0.16,-0.016,0.009,1.864,34.0,28.07,0.0,19.0,0.0,10.0,0.33,0.01,-1.0,-0.08,-0.11,-1.21,1.04,313.0,,,0.0,1.0,0.0,100.0
2200,1,walk,walk,11913,,11913.0,20.0,2.0,6.0,2.0,-0.16,-0.016,0.07,1.891,34.0,28.07,0.0,19.0,0.0,10.0,0.32,0.01,-1.0,-0.08,-0.1,-1.2,1.05,313.0,,,0.0,1.0,0.0,100.0
2220,1,walk,walk,11914,,11914.0,20.0,2.0,6.0,2.0,-0.17,-0.016,0.075,1.876,34.0,28.07,0.0,19.0,0.0,10.0,0.31,0.01,-1.0,-0.08,-0.1,-1.19,1.06,313.0,,,0.0,1.0,0.0,100.0
2240,1,walk,walk,11915,,11915.0,20.0,2.0,6.0,2.0,-0.18,-0.016,0.023,1.884,34.0,28.07,0.0,19.0,0.0,10.0,0.3,0.01,-1.0,-0.08,-0.09,-1.18,1.06,313.0,,,0.0,1.0,0.0,100.0
2260,1,walk,walk,11916,,11916.0,20.0,2.0,6.0,2.0,-0.18,-0.016,0.028,1.9,34.0,28.07,0.0,19.0,0.0,10.0,0.28,0.0,-1.0,-0.08,-0.08,-1.16,1.06,313.0,,,0.0,1.0,0.0,100.0
2280,1,walk,walk,11917,,11917.0,20.0,2.0,6.0,2.0,-0.19,-0.016,0.023,1.878,34.0,28.07,0.0,19.0,0.0,10.0,0.27,0.0,-1.0,-0.08,-0.08,-1.15,1.05,313.0,,,0.0,1.0,0.0,100.0
2300,1,walk,walk,11918,,11918.0,20.0,2.0,6.0,2.0,-0.2,-0.016,0.007,1.887,34.0,28.07,0.0,19.0,0.0,10.0,0.25,0.0,-1.0,-0.08,-0.07,-1.15,1.03,313.0,,,0.0,1.0,0.0,100.0
2360,1,walk,walk,11919,,11919.0,20.0,2.0,6.0,2.0,-0.21,-0.016,0.131,1.912,34.0,28.07,0.0,19.0,0.0,10.0,0.23,0.0,-1.0,-0.08,-0.05,-1.14,1.0,313.0,,,0.0,1.0,0.0,100.0
2360,1,walk,walk,11920,,11920.0,20.0,2.0,6.0,2.0,-0.22,-0.016,0.107,1.878,34.0,28.07,0.0,19.0,0.0,10.0,0.21,0.0,-1.0,-0.08,-0.04,-1.13,0.96,313.0,,,0.0,1.0,0.0,100.0
2360,1,walk,walk,11921,,11921.0,20.0,2.0,6.0,2.0,-0.22,-0.016,0.068,1.899,34.0,28.07,0.0,19.0,0.0,10.0,0.2,0.0,-1.0,-0.08,-0.02,-1.11,0.92,313.0,,,0.0,1.0,0.0,100.0
2380,1,walk,walk,11922,,11922.0,20.0,2.0,6.0,2.0,-0.23,-0.016,-0.101,1.867,34.0,28.07,0.0,19.0,0.0,10.0,0.19,0.0,-1.0,-0.08,-0.01,-1.1,0.88,313.0,,,0.0,1.0,0.0,100.0
2400,1,walk,walk,11923,,11923.0,20.0,2.0,6.0,2.0,-0.24,-0.016,-0.069,1.916,34.0,28.07,0.0,19.0,0.0,10.0,0.19,0.0,-1.0,-0.08,-0.01,-1.08,0.85,313.0,,,0.0,1.0,0.0,100.0
2420,1,walk,walk,11924,,11924.0,20.0,2.0,6.0,2.0,-0.25,-0.016,0.006,1.866,34.0,28.07,0.0,19.0,0.0,10.0,0.19,0.0,-1.0,-0.08,0.0,-1.07,0.82,313.0,,,0.0,1.0,0.0,100.0
2440,1,walk,walk,11925,,11925.0,20.0,2.0,6.0,2.0,-0.26,-0.016,0.005,1.888,34.0,28.07,0.0,19.0,0.0,10.0,0.19,0.0,-1.0,-0.08,0.0,-1.05,0.8,313.0,,,0.0,1.0,0.0,100.0
2460,1,walk,walk,11926,,11926.0,20.0,2.0,6.0,2.0,-0.27,-0.016,-0.037,1.889,34.0,28.07,0.0,19.0,0.0,10.0,0.19,0.0,-1.0,-0.08,0.0,-1.05,0.8,313.0,,,0.0,1.0,0.0,100.0
2520,1,walk,walk,11927,,11927.0,20.0,2.0,6.0,2.0,-0.27,-0.016,0.022,1.902,34.0,28.07,0.0,19.0,0.0,10.0,0.19,0.0,-1.0,-0.08,0.0,-1.04,0.8,313.0,,,0.0,1.0,0.0,100.0
2520,1,walk,walk,11928,,11928.0,20.0,2.0,6.0,2.0,-0.28,-0.016,0.022,1.883,34.0,28.07,0.0,19.0,0.0,10.0,0.18,0.0,-1.0,-0.08,0.0,-1.03,0.81,313.0,,,0.0,1.0,0.0,100.0
2520,1,walk,walk,11929,,11929.0,20.0,2.0,6.0,2.0,-0.29,-0.016,0.023,1.898,34.0,28.07,0.0,19.0,0.0,10.0,0.18,0.0,-1.0,-0.08,-0.01,-1.03,0.82,313.0,,,0.0,1.0,0.0,100.0
2540,1,walk,walk,11930,,11930.0,20.0,2.0,6.0,2.0,-0.3,-0.016,-0.009,1.909,34.0,28.07,0.0,19.0,0.0,10.0,0.17,0.0,-1.0,-0.08,-0.01,-1.01,0.82,313.0,,,0.0,1.0,0.0,100.0
2560,1,walk,walk,11931,,11931.0,20.0,2.0,6.0,2.0,-0.31,-0.016,0.037,1.875,34.0,28.07,0.0,19.0,0.0,10.0,0.16,0.0,-1.0,-0.08,-0.01,-1.0,0.82,313.0,,,0.0,1.0,0.0,100.0
2580,1,walk,walk,11932,,11932.0,20.0,2.0,6.0,2.0,-0.31,-0.016,-0.049,1.875,34.0,28.07,0.0,19.0,0.0,10.0,0.15,0.0,-1.0,-0.08,-0.01,-1.0,0.79,313.0,,,0.0,1.0,0.0,100.0
2600,1,walk,walk,11933,,11933.0,20.0,2.0,6.0,2.0,-0.32,-0.016,-0.022,1.887,34.0,28.07,0.0,19.0,0.0,10.0,0.14,0.0,-1.0,-0.08,-0.01,-0.99,0.77,313.0,,,0.0,1.0,0.0,100.0
2620,1,walk,walk,11934,,11934.0,20.0,2.0,6.0,2.0,-0.33,-0.016,0.054,1.907,34.0,28.07,0.0,19.0,0.0,10.0,0.14,0.0,-1.0,-0.08,0.0,-0.99,0.73,313.0,,,0.0,1.0,0.0,100.0
2660,1,walk,walk,11935,,11935.0,20.0,2.0,6.0,2.0,-0.33,-0.016,-0.022,1.893,34.0,28.07,0.0,19.0,0.0,10.0,0.14,0.0,-1.0,-0.08,0.01,-1.0,0.7,313.0,,,0.0,1.0,0.0,100.0
2680,1,walk,walk,11936,,11936.0,20.0,2.0,6.0,2.0,-0.34,-0.016,-0.006,1.878,34.0,28.07,0.0,19.0,0.0,10.0,0.15,0.0,-1.0,-0.08,0.03,-1.0,0.68,313.0,,,0.0,1.0,0.0,100.0
2680,1,walk,walk,11937,,11937.0,20.0,2.0,6.0,2.0,-0.34,-0.016,-0.017,1.884,34.0,28.07,0.0,19.0,0.0,10.0,0.16,0.0,-1.0,-0.08,0.05,-1.01,0.66,313.0,,,0.0,1.0,0.0,100.0
2700,1,walk,walk,11938,,11938.0,20.0,2.0,6.0,2.0,-0.35,-0.016,0.062,1.906,34.0,28.07,0.0,19.0,0.0,10.0,0.16,0.0,-1.0,-0.08,0.06,-1.03,0.66,313.0,,,0.0,1.0,0.0,100.0
2720,1,walk,walk,11939,,11939.0,20.0,2.0,6.0,2.0,-0.36,-0.016,0.015,1.887,34.0,28.07,0.0,19.0,0.0,10.0,0.17,0.0,-1.0,-0.08,0.08,-1.04,0.67,313.0,,,0.0,1.0,0.0,100.0
2740,1,walk,walk,11940,,11940.0,20.0,2.0,6.0,2.0,-0.36,-0.016,0.04,1.888,34.0,28.07,0.0,19.0,0.0,10.0,0.17,0.0,-1.0,-0.08,0.08,-1.06,0.68,313.0,,,0.0,1.0,0.0,100.0
2760,1,walk,walk,11941,,11941.0,20.0,2.0,6.0,2.0,-0.36,-0.016,0.033,1.918,34.0,28.07,0.0,19.0,0.0,10.0,0.17,0.0,-1.0,-0.08,0.09,-1.08,0.69,313.0,,,0.0,1.0,0.0,100.0
2800,1,walk,walk,11942,,11942.0,20.0,2.0,6.0,2.0,-0.37,-0.016,0.018,1.88,34.0,28.07,0.0,19.0,0.0,10.0,0.17,0.0,-1.0,-0.08,0.1,-1.09,0.69,313.0,,,0.0,1.0,0.0,100.0
2820,1,walk,walk,11943,,11943.0,20.0,2.0,6.0,2.0,-0.37,-0.016,0.013,1.916,34.0,28.07,0.0,19.0,0.0,10.0,0.16,0.0,-1.0,-0.08,0.1,-1.11,0.69,313.0,,,0.0,1.0,0.0,100.0
2840,1,walk,walk,11944,,11944.0,20.0,2.0,6.0,2.0,-0.38,-0.016,-0.057,1.884,34.0,28.07,0.0,19.0,0.0,10.0,0.15,0.0,-1.0,-0.08,0.12,-1.12,0.67,313.0,,,0.0,1.0,0.0,100.0
2840,1,walk,walk,11945,,11945.0,20.0,2.0,6.0,2.0,-0.38,-0.016,-0.042,1.893,34.0,28.07,0.0,19.0,0.0,10.0,0.13,0.0,-1.0,-0.08,0.13,-1.12,0.64,313.0,,,0.0,1.0,0.0,100.0
2860,1,walk,walk,11946,,11946.0,20.0,2.0,6.0,2.0,-0.38,-0.016,-0.069,1.892,34.0,28.07,0.0,19.0,0.0,10.0,0.12,0.0,-1.0,-0.08,0.16,-1.11,0.6,313.0,,,0.0,1.0,0.0,100.0
2880,1,walk,walk,11947,,11947.0,20.0,2.0,6.0,2.0,-0.39,-0.016,0.036,1.875,34.0,28.07,0.0,19.0,0.0,10.0,0.12,0.0,-1.0,-0.08,0.18,-1.1,0.57,313.0,,,0.0,1.0,0.0,100.0
2900,1,walk,walk,11948,,11948.0,20.0,2.0,6.0,2.0,-0.39,-0.016,0.053,1.881,34.0,28.07,0.0,19.0,0.0,10.0,0.11,0.0,-1.0,-0.08,0.21,-1.09,0.54,313.0,,,0.0,1.0,0.0,100.0
2920,1,walk,walk,11949,,11949.0,20.0,2.0,6.0,2.0,-0.39,-0.016,0.03,1.877,34.0,28.07,0.0,19.0,0.0,10.0,0.11,0.0,-1.0,-0.08,0.24,-1.08,0.52,313.0,,,0.0,1.0,0.0,100.0
2940,1,walk,walk,11950,,11950.0,20.0,2.0,6.0,2.0,-0.4,-0.016,0.041,1.9,34.0,28.07,0.0,19.0,0.0,10.0,0.11,0.0,-1.0,-0.08,0.26,-1.09,0.52,313.0,,,0.0,1.0,0.0,100.0
3000,1,walk,walk,11951,,11951.0,20.0,2.0,6.0,2.0,-0.4,-0.016,0.01,1.905,34.0,28.07,0.0,19.0,0.0,10.0,0.11,0.0,-1.0,-0.09,0.29,-1.09,0.53,313.0,,,0.0,1.0,0.0,100.0
3000,1,walk,walk,11952,,11952.0,20.0,2.0,6.0,2.0,-0.4,-0.016,0.037,1.876,34.0,28.07,0.0,19.0,0.0,10.0,0.12,0.0,-1.0,-0.09,0.31,-1.09,0.54,313.0,,,0.0,1.0,0.0,100.0
3000,1,walk,walk,11953,,11953.0,20.0,2.0,6.0,2.0,-0.4,-0.016,-0.028,1.857,34.0,28.07,0.0,19.0,0.0,10.0,0.12,0.0,-1.0,-0.09,0.33,-1.1,0.56,313.0,,,0.0,1.0,0.0,100.0
3020,1,walk,walk,11954,,11954.0,20.0,2.0,6.0,2.0,-0.4,-0.016,-0.017,1.898,34.0,28.07,0.0,19.0,0.0,10.0,0.12,0.0,-1.0,-0.09,0.34,-1.11,0.58,313.0,,,0.0,1.0,0.0,100.0
3040,1,walk,walk,11955,,11955.0,20.0,2.0,6.0,2.0,-0.4,-0.016,0.009,1.888,34.0,28.07,0.0,19.0,0.0,10.0,0.12,0.0,-1.0,-0.09,0.36,-1.12,0.6,313.0,,,0.0,1.0,0.0,100.0
3060,1,walk,walk,11956,,11956.0,20.0,2.0,6.0,2.0,-0.41,-0.016,-0.042,1.875,34.0,28.07,0.0,19.0,0.0,10.0,0.12,0.0,-1.0,-0.09,0.37,-1.13,0.61,313.0,,,0.0,1.0,0.0,100.0
3080,1,walk,walk,11957,,11957.0,20.0,2.0,6.0,2.0,-0.41,-0.016,0.003,1.888,34.0,28.07,0.0,19.0,0.0,10.0,0.12,0.0,-1.0,-0.09,0.38,-1.14,0.61,313.0,,,0.0,1.0,0.0,100.0
3100,1,walk,walk,11958,,11958.0,20.0,2.0,6.0,2.0,-0.41,-0.016,0.116,1.876,34.0,28.07,0.0,19.0,0.0,10.0,0.13,0.0,-1.0,-0.09,0.39,-1.15,0.62,313.0,,,0.0,1.0,0.0,100.0
3120,1,walk,walk,11959,,11959.0,20.0,2.0,6.0,2.0,-0.41,-0.016,-0.022,1.919,34.0,28.07,0.0,19.0,0.0,10.0,0.13,0.0,-1.0,-0.08,0.38,-1.16,0.63,313.0,,,0.0,1.0,0.0,100.0
3160,1,walk,walk,11960,,11960.0,20.0,2.0,6.0,2.0,-0.41,-0.016,0.026,1.871,34.0,28.07,0.0,19.0,0.0,10.0,0.14,0.0,-1.0,-0.08,0.36,-1.17,0.65,313.0,,,0.0,1.0,0.0,100.0
3160,1,walk,walk,11961,,11961.0,20.0,2.0,6.0,2.0,-0.41,-0.016,0.036,1.893,34.0,28.07,0.0,19.0,0.0,10.0,0.14,0.0,-1.0,-0.08,0.34,-1.17,0.69,313.0,,,0.0,1.0,0.0,100.0
3200,1,walk,walk,11962,,11962.0,20.0,2.0,6.0,2.0,-0.41,-0.016,-0.014,1.88,34.0,28.07,0.0,19.0,0.0,10.0,0.15,0.0,-1.0,-0.08,0.32,-1.18,0.72,313.0,,,0.0,1.0,0.0,100.0
3200,1,walk,walk,11963,,11963.0,20.0,2.0,6.0,2.0,-0.41,-0.016,0.041,1.907,34.0,28.07,0.0,19.0,0.0,10.0,0.14,0.0,-1.0,-0.08,0.29,-1.18,0.76,313.0,,,0.0,1.0,0.0,100.0
3220,1,walk,walk,11964,,11964.0,20.0,2.0,6.0,2.0,-0.41,-0.016,-0.001,1.884,34.0,28.07,0.0,19.0,0.0,10.0,0.14,0.0,-1.0,-0.08,0.27,-1.18,0.79,313.0,,,0.0,1.0,0.0,100.0
3240,1,walk,walk,11965,,11965.0,20.0,2.0,6.0,2.0,-0.42,-0.016,0.054,1.901,34.0,28.07,0.0,19.0,0.0,10.0,0.13,0.0,-1.0,-0.08,0.25,-1.17,0.81,313.0,,,0.0,1.0,0.0,100.0
3280,1,walk,walk,11966,,11966.0,20.0,2.0,6.0,2.0,-0.42,-0.016,0.01,1.884,34.0,28.07,0.0,19.0,0.0,10.0,0.12,0.0,-1.0,-0.08,0.23,-1.15,0.81,313.0,,,0.0,1.0,0.0,100.0
3300,1,walk,walk,11967,,11967.0,20.0,2.0,6.0,2.0,-0.42,-0.016,-0.003,1.879,34.0,28.07,0.0,19.0,0.0,10.0,0.11,0.0,-1.0,-0.08,0.22,-1.14,0.81,313.0,,,0.0,1.0,0.0,100.0
3320,1,walk,walk,11968,,11968.0,20.0,2.0,6.0,2.0,-0.42,-0.016,-0.128,1.88,34.0,28.07,0.0,19.0,0.0,10.0,0.1,0.0,-1.0,-0.08,0.21,-1.12,0.79,313.0,,,0.0,1.0,0.0,100.0
3320,1,walk,walk,11969,,11969.0,20.0,2.0,6.0,2.0,-0.42,-0.016,0.04,1.912,34.0,28.07,0.0,19.0,0.0,10.0,0.1,0.0,-1.0,-0.08,0.19,-1.11,0.78,313.0,,,0.0,1.0,0.0,100.0
3340,1,walk,walk,11970,,11970.0,20.0,2.0,6.0,2.0,-0.42,-0.016,-0.052,1.887,34.0,28.07,0.0,19.0,0.0,10.0,0.1,0.0,-1.0,-0.09,0.18,-1.1,0.77,313.0,,,0.0,1.0,0.0,100.0
3360,1,walk,walk,11971,,11971.0,20.0,2.0,6.0,2.0,-0.43,-0.016,-0.03,1.895,34.0,28.07,0.0,19.0,0.0,10.0,0.1,0.0,-1.0,-0.09,0.17,-1.09,0.76,313.0,,,0.0,1.0,0.0,100.0
3380,1,walk,walk,11972,,11972.0,20.0,2.0,6.0,2.0,-0.43,-0.016,-0.097,1.899,34.0,28.07,0.0,19.0,0.0,10.0,0.11,0.0,-1.0,-0.09,0.16,-1.08,0.77,313.0,,,0.0,1.0,0.0,100.0
3420,1,walk,walk,11973,,11973.0,20.0,2.0,6.0,2.0,-0.43,-0.016,0.019,1.934,34.0,28.07,0.0,19.0,0.0,10.0,0.11,0.0,-1.0,-0.09,0.15,-1.08,0.78,313.0,,,0.0,1.0,0.0,100.0
3440,1,walk,walk,11974,,11974.0,20.0,2.0,6.0,2.0,-0.44,-0.016,-0.032,1.912,34.0,28.07,0.0,19.0,0.0,10.0,0.11,0.0,-1.0,-0.09,0.14,-1.07,0.79,313.0,,,0.0,1.0,0.0,100.0
3460,1,walk,walk,11975,,11975.0,20.0,2.0,6.0,2.0,-0.44,-0.016,-0.049,1.865,34.0,28.07,0.0,19.0,0.0,10.0,0.11,0.0,-1.0,-0.09,0.12,-1.06,0.81,313.0,,,0.0,1.0,0.0,100.0
3500,1,walk,walk,11976,,11976.0,20.0,2.0,6.0,2.0,-0.44,-0.016,0.015,1.944,34.0,28.07,0.0,19.0,0.0,10.0,0.11,0.0,-1.0,-0.09,0.11,-1.04,0.82,313.0,,,0.0,1.0,0.0,100.0
3500,1,walk,walk,11977,,11977.0,20.0,2.0,6.0,2.0,-0.45,-0.016,-0.023,1.934,34.0,28.07,0.0,19.0,0.0,10.0,0.11,0.0,-1.0,-0.09,0.09,-1.03,0.82,313.0,,,0.0,1.0,0.0,100.0
3500,1,walk,walk,11978,,11978.0,20.0,2.0,6.0,2.0,-0.45,-0.016,-0.046,1.901,34.0,28.07,0.0,19.0,0.0,10.0,0.1,0.0,-1.0,-0.09,0.08,-1.01,0.82,313.0,,,0.0,1.0,0.0,100.0
3520,1,walk,walk,11979,,11979.0,20.0,2.0,6.0,2.0,-0.45,-0.016,-0.073,1.911,34.0,28.07,0.0,19.0,0.0,10.0,0.1,0.0,-1.0,-0.09,0.07,-0.99,0.8,313.0,,,0.0,1.0,0.0,100.0
3540,1,walk,walk,11980,,11980.0,20.0,2.0,6.0,2.0,-0.46,-0.016,0.034,1.879,34.0,28.07,0.0,19.0,0.0,10.0,0.09,0.0,-1.0,-0.09,0.06,-0.97,0.78,313.0,,,0.0,1.0,0.0,100.0
3580,1,walk,walk,11981,,11981.0,20.0,2.0,6.0,2.0,-0.46,-0.016,-0.033,1.926,34.0,28.07,0.0,19.0,0.0,10.0,0.08,0.0,-1.0,-0.09,0.05,-0.96,0.74,313.0,,,0.0,1.0,0.0,100.0
3580,1,walk,walk,11982,,11982.0,20.0,2.0,6.0,2.0,-0.47,-0.016,-0.038,1.928,34.0,28.07,0.0,19.0,0.0,10.0,0.07,0.0,-1.0,-0.09,0.05,-0.96,0.7,313.0,,,0.0,1.0,0.0,100.0
3620,1,walk,walk,11983,,11983.0,20.0,2.0,6.0,2.0,-0.47,-0.016,-0.076,1.9,34.0,28.07,0.0,19.0,0.0,10.0,0.07,0.0,-1.0,-0.09,0.05,-0.96,0.66,313.0,,,0.0,1.0,0.0,100.0
3640,1,walk,walk,11984,,11984.0,20.0,2.0,6.0,2.0,-0.47,-0.016,0.002,1.911,34.0,28.07,0.0,19.0,0.0,10.0,0.07,0.0,-1.0,-0.09,0.05,-0.97,0.63,313.0,,,0.0,1.0,0.0,100.0
3680,1,walk,walk,11985,,11985.0,20.0,2.0,6.0,2.0,-0.48,-0.016,-0.105,1.88,34.0,28.07,0.0,19.0,0.0,10.0,0.07,0.0,-1.0,-0.09,0.05,-0.98,0.61,313.0,,,0.0,1.0,0.0,100.0
3680,1,walk,walk,11986,,11986.0,20.0,2.0,6.0,2.0,-0.48,-0.016,-0.036,1.934,34.0,28.07,0.0,19.0,0.0,10.0,0.07,0.0,-1.0,-0.09,0.06,-1.0,0.59,313.0,,,0.0,1.0,0.0,100.0
3680,1,walk,walk,11987,,11987.0,20.0,2.0,6.0,2.0,-0.48,-0.016,0.032,1.912,34.0,28.07,0.0,19.0,0.0,10.0,0.07,0.0,-1.0,-0.09,0.07,-1.01,0.58,313.0,,,0.0,1.0,0.0,100.0
3700,1,walk,walk,11988,,11988.0,20.0,2.0,6.0,2.0,-0.49,-0.016,-0.07,1.894,34.0,28.07,0.0,19.0,0.0,10.0,0.07,0.0,-1.0,-0.09,0.08,-1.03,0.57,313.0,,,0.0,1.0,0.0,100.0
3720,1,walk,walk,11989,,11989.0,20.0,2.0,6.0,2.0,-0.49,-0.016,0.026,1.915,34.0,28.07,0.0,19.0,0.0,10.0,0.07,0.0,-1.0,-0.09,0.1,-1.04,0.57,313.0,,,0.0,1.0,0.0,100.0
3740,1,walk,walk,11990,,11990.0,20.0,2.0,6.0,2.0,-0.49,-0.016,0.037,1.877,34.0,28.07,0.0,19.0,0.0,10.0,0.08,0.0,-1.0,-0.09,0.12,-1.07,0.57,313.0,,,0.0,1.0,0.0,100.0
3760,1,walk,walk,11991,,11991.0,20.0,2.0,6.0,2.0,-0.49,-0.016,-0.049,1.881,34.0,28.07,0.0,19.0,0.0,10.0,0.08,0.0,-1.0,-0.09,0.13,-1.09,0.58,313.0,,,0.0,1.0,0.0,100.0
3820,1,walk,walk,11992,,11992.0,20.0,2.0,6.0,2.0,-0.5,-0.016,-0.033,1.917,34.0,28.07,0.0,19.0,0.0,10.0,0.08,0.0,-1.0,-0.09,0.14,-1.11,0.59,313.0,,,0.0,1.0,0.0,100.0
3820,1,walk,walk,11993,,11993.0,20.0,2.0,6.0,2.0,-0.5,-0.016,0.005,1.909,34.0,28.07,0.0,19.0,0.0,10.0,0.08,0.0,-1.0,-0.09,0.15,-1.13,0.6,313.0,,,0.0,1.0,0.0,100.0
3820,1,walk,walk,11994,,11994.0,20.0,2.0,6.0,2.0,-0.5,-0.016,0.018,1.911,34.0,28.07,0.0,19.0,0.0,10.0,0.08,0.0,-1.0,-0.09,0.15,-1.15,0.61,313.0,,,0.0,1.0,0.0,100.0
3840,1,walk,walk,11995,,11995.0,20.0,2.0,6.0,2.0,-0.5,-0.016,0.077,1.912,34.0,28.07,0.0,19.0,0.0,10.0,0.07,0.0,-1.0,-0.09,0.16,-1.16,0.61,313.0,,,0.0,1.0,0.0,100.0
3860,1,walk,walk,11996,,11996.0,20.0,2.0,6.0,2.0,-0.5,-0.016,-0.013,1.896,34.0,28.07,0.0,19.0,0.0,10.0,0.07,0.0,-1.0,-0.09,0.16,-1.16,0.6,313.0,,,0.0,1.0,0.0,100.0
3880,1,walk,walk,11997,,11997.0,20.0,2.0,6.0,2.0,-0.5,-0.016,-0.002,1.881,34.0,28.07,0.0,19.0,0.0,10.0,0.06,0.0,-1.0,-0.09,0.17,-1.15,0.57,313.0,,,0.0,1.0,0.0,100.0
3900,1,walk,walk,11998,,11998.0,20.0,2.0,6.0,2.0,-0.5,-0.016,0.057,1.891,34.0,28.07,0.0,19.0,0.0,10.0,0.05,0.0,-1.0,-0.09,0.17,-1.12,0.53,313.0,,,0.0,1.0,0.0,100.0
3920,1,walk,walk,11999,,11999.0,20.0,2.0,6.0,2.0,-0.5,-0.016,-0.005,1.922,34.0,28.07,0.0,19.0,0.0,10.0,0.05,0.0,-1.0,-0.09,0.18,-1.09,0.49,313.0,,,0.0,1.0,0.0,100.0
3960,1,walk,walk,12000,,12000.0,20.0,2.0,6.0,2.0,-0.5,-0.016,-0.058,1.887,34.0,28.07,0.0,19.0,0.0,10.0,0.04,0.0,-1.0,-0.09,0.19,-1.06,0.44,313.0,,,0.0,1.0,0.0,100.0
3980,1,walk,walk,12001,,12001.0,20.0,2.0,6.0,2.0,-0.5,-0.016,0.058,1.912,34.0,28.07,0.0,19.0,0.0,10.0,0.05,0.0,-1.0,-0.09,0.2,-1.03,0.4,313.0,,,0.0,1.0,0.0,100.0
3980,1,walk,walk,12002,,12002.0,20.0,2.0,6.0,2.0,-0.5,-0.016,0.079,1.892,34.0,28.07,0.0,19.0,0.0,10.0,0.05,0.0,-1.0,-0.09,0.21,-1.0,0.37,313.0,,,0.0,1.0,0.0,100.0
4000,1,walk,walk,12003,,12003.0,20.0,2.0,6.0,2.0,-0.5,-0.016,-0.068,1.908,34.0,28.07,0.0,19.0,0.0,10.0,0.06,0.0,-1.0,-0.09,0.23,-0.97,0.34,313.0,,,0.0,1.0,0.0,100.0
4020,1,walk,walk,12004,,12004.0,20.0,2.0,6.0,2.0,-0.5,-0.016,-0.052,1.88,34.0,28.07,0.0,19.0,0.0,10.0,0.07,0.0,-1.0,-0.09,0.23,-0.94,0.33,313.0,,,0.0,1.0,0.0,100.0
4040,1,walk,walk,12005,,12005.0,20.0,2.0,6.0,2.0,-0.5,-0.016,0.057,1.886,34.0,28.07,0.0,19.0,0.0,10.0,0.08,0.0,-1.0,-0.09,0.24,-0.91,0.32,313.0,,,0.0,1.0,0.0,100.0
4060,1,walk,walk,12006,,12006.0,20.0,2.0,6.0,2.0,-0.5,-0.016,0.014,1.912,34.0,28.07,0.0,19.0,0.0,10.0,0.09,0.0,-1.0,-0.09,0.24,-0.89,0.31,313.0,,,0.0,1.0,0.0,100.0
4080,1,walk,walk,12007,,12007.0,20.0,2.0,6.0,2.0,-0.5,-0.016,-0.023,1.906,34.0,28.07,0.0,19.0,0.0,10.0,0.09,0.0,-1.0,-0.09,0.24,-0.86,0.32,313.0,,,0.0,1.0,0.0,100.0
4140,1,walk,walk,12008,,12008.0,20.0,2.0,6.0,2.0,-0.5,-0.016,-0.001,1.908,34.0,28.07,0.0,19.0,0.0,10.0,0.1,0.0,-1.0,-0.09,0.24,-0.84,0.32,313.0,,,0.0,1.0,0.0,100.0
4140,1,walk,walk,12009,,12009.0,20.0,2.0,6.0,2.0,-0.5,-0.016,0.036,1.87,34.0,28.07,0.0,19.0,0.0,10.0,0.11,0.0,-1.0,-0.09,0.24,-0.83,0.33,313.0,,,0.0,1.0,0.0,100.0
4140,1,walk,walk,12010,,12010.0,20.0,2.0,6.0,2.0,-0.49,-0.016,-0.022,1.896,34.0,28.07,0.0,19.0,0.0,10.0,0.12,0.0,-1.0,-0.09,0.24,-0.83,0.35,313.0,,,0.0,1.0,0.0,100.0
4160,1,walk,walk,12011,,12011.0,20.0,2.0,6.0,2.0,-0.49,-0.016,0.088,1.904,34.0,28.07,0.0,19.0,0.0,10.0,0.12,0.0,-1.0,-0.09,0.23,-0.84,0.37,313.0,,,0.0,1.0,0.0,100.0
4200,1,walk,walk,12012,,12012.0,20.0,2.0,6.0,2.0,-0.49,-0.016,-0.041,1.908,34.0,28.07,0.0,19.0,0.0,10.0,0.13,0.0,-1.0,-0.09,0.22,-0.85,0.4,313.0,,,0.0,1.0,0.0,100.0
4200,1,walk,walk,12013,,12013.0,20.0,2.0,6.0,2.0,-0.48,-0.016,-0.034,1.908,34.0,28.07,0.0,19.0,0.0,10.0,0.14,0.0,-1.0,-0.09,0.21,-0.87,0.45,313.0,,,0.0,1.0,0.0,100.0
4220,1,walk,walk,12014,,12014.0,20.0,2.0,6.0,2.0,-0.48,-0.016,0.042,1.934,34.0,28.07,0.0,19.0,0.0,10.0,0.15,0.0,-1.0,-0.09,0.18,-0.9,0.5,313.0,,,0.0,1.0,0.0,100.0
4240,1,walk,walk,12015,,12015.0,20.0,2.0,6.0,2.0,-0.48,-0.016,0.041,1.921,34.0,28.07,0.0,19.0,0.0,10.0,0.16,0.0,-1.0,-0.09,0.15,-0.93,0.56,313.0,,,0.0,1.0,0.0,100.0
4280,1,walk,walk,12016,,12016.0,20.0,2.0,6.0,2.0,-0.47,-0.016,-0.049,1.921,34.0,28.07,0.0,19.0,0.0,10.0,0.16,0.0,-1.0,-0.09,0.12,-0.96,0.62,313.0,,,0.0,1.0,0.0,100.0
4300,1,walk,walk,12017,,12017.0,20.0,2.0,6.0,2.0,-0.47,-0.016,-0.018,1.933,34.0,28.07,0.0,19.0,0.0,10.0,0.16,0.0,-1.0,-0.09,0.1,-0.99,0.67,313.0,,,0.0,1.0,0.0,100.0
4300,1,walk,walk,12018,,12018.0,20.0,2.0,6.0,2.0,-0.47,-0.016,-0.057,1.92,34.0,28.07,0.0,19.0,0.0,10.0,0.16,0.0,-1.0,-0.09,0.08,-1.03,0.72,313.0,,,0.0,1.0,0.0,100.0
4320,1,walk,walk,12019,,12019.0,20.0,2.0,6.0,2.0,-0.46,-0.016,0.05,1.898,34.0,28.07,0.0,19.0,0.0,10.0,0.15,0.0,-1.0,-0.09,0.07,-1.05,0.75,313.0,,,0.0,1.0,0.0,100.0
4340,1,walk,walk,12020,,12020.0,20.0,2.0,6.0,2.0,-0.46,-0.016,0.045,1.905,34.0,28.07,0.0,19.0,0.0,10.0,0.14,0.0,-1.0,-0.09,0.06,-1.07,0.76,313.0,,,0.0,1.0,0.0,100.0
4360,1,walk,walk,12021,,12021.0,20.0,2.0,6.0,2.0,-0.46,-0.016,0.029,1.9,34.0,28.07,0.0,19.0,0.0,10.0,0.13,0.0,-1.0,-0.09,0.06,-1.07,0.77,313.0,,,0.0,1.0,0.0,100.0
4380,1,walk,walk,12022,,12022.0,20.0,2.0,6.0,2.0,-0.46,-0.016,-0.003,1.919,34.0,28.07,0.0,19.0,0.0,10.0,0.12,0.0,-1.0,-0.09,0.08,-1.07,0.76,313.0,,,0.0,1.0,0.0,100.0
4400,1,walk,walk,12023,,12023.0,20.0,2.0,6.0,2.0,-0.46,-0.016,-0.06,1.868,34.0,28.07,0.0,19.0,0.0,10.0,0.1,0.0,-1.0,-0.09,0.1,-1.06,0.73,313.0,,,0.0,1.0,0.0,100.0
4460,1,walk,walk,12024,,12024.0,20.0,2.0,6.0,2.0,-0.45,-0.016,-0.072,1.887,34.0,28.07,0.0,19.0,0.0,10.0,0.09,0.0,-1.0,-0.09,0.14,-1.05,0.69,313.0,,,0.0,1.0,0.0,100.0
4460,1,walk,walk,12025,,12025.0,20.0,2.0,6.0,2.0,-0.45,-0.016,-0.054,1.881,34.0,28.07,0.0,19.0,0.0,10.0,0.08,0.0,-1.0,-0.09,0.18,-1.03,0.64,313.0,,,0.0,1.0,0.0,100.0
4480,1,walk,walk,12026,,12026.0,20.0,2.0,6.0,2.0,-0.45,-0.016,-0.054,1.88,34.0,28.07,0.0,19.0,0.0,10.0,0.07,0.0,-1.0,-0.09,0.23,-1.02,0.6,313.0,,,0.0,1.0,0.0,100.0
4480,1,walk,walk,12027,,12027.0,20.0,2.0,6.0,2.0,-0.45,-0.016,0.081,1.888,34.0,28.07,0.0,19.0,0.0,10.0,0.07,0.0,-1.0,-0.09,0.29,-1.01,0.55,313.0,,,0.0,1.0,0.0,100.0
4500,1,walk,walk,12028,,12028.0,20.0,2.0,6.0,2.0,-0.45,-0.016,0.028,1.896,34.0,28.07,0.0,19.0,0.0,10.0,0.07,0.0,-1.0,-0.09,0.34,-1.01,0.51,313.0,,,0.0,1.0,0.0,100.0
4520,1,walk,walk,12029,,12029.0,20.0,2.0,6.0,2.0,-0.45,-0.016,0.037,1.887,34.0,28.07,0.0,19.0,0.0,10.0,0.08,0.0,-1.0,-0.09,0.38,-1.01,0.48,313.0,,,0.0,1.0,0.0,100.0
4540,1,walk,walk,12030,,12030.0,20.0,2.0,6.0,2.0,-0.46,-0.016,-0.032,1.914,34.0,28.07,0.0,19.0,0.0,10.0,0.08,0.0,-1.0,-0.09,0.42,-1.01,0.45,313.0,,,0.0,1.0,0.0,100.0
4560,1,walk,walk,12031,,12031.0,20.0,2.0,6.0,2.0,-0.46,-0.016,0.06,1.905,34.0,28.07,0.0,19.0,0.0,10.0,0.09,0.0,-1.0,-0.09,0.44,-1.01,0.44,313.0,,,0.0,1.0,0.0,100.0
4620,1,walk,walk,12032,,12032.0,20.0,2.0,6.0,2.0,-0.46,-0.016,0.001,1.927,34.0,28.07,0.0,19.0,0.0,10.0,0.1,0.0,-1.0,-0.09,0.45,-1.02,0.43,313.0,,,0.0,1.0,0.0,100.0
4620,1,walk,walk,12033,,12033.0,20.0,2.0,6.0,2.0,-0.46,-0.016,0.029,1.896,34.0,28.07,0.0,19.0,0.0,10.0,0.1,0.0,-1.0,-0.09,0.46,-1.03,0.43,313.0,,,0.0,1.0,0.0,100.0
4620,1,walk,walk,12034,,12034.0,20.0,2.0,6.0,2.0,-0.46,-0.016,0.015,1.899,34.0,28.07,0.0,19.0,0.0,10.0,0.11,0.0,-1.0,-0.09,0.45,-1.04,0.43,313.0,,,0.0,1.0,0.0,100.0
4640,1,walk,walk,12035,,12035.0,20.0,2.0,6.0,2.0,-0.46,-0.016,0.005,1.891,34.0,28.07,0.0,19.0,0.0,10.0,0.11,0.0,-1.0,-0.09,0.45,-1.05,0.42,313.0,,,0.0,1.0,0.0,100.0
4680,1,walk,walk,12036,,12036.0,20.0,2.0,6.0,2.0,-0.46,-0.016,-0.018,1.889,34.0,28.07,0.0,19.0,0.0,10.0,0.11,0.0,-1.0,-0.09,0.44,-1.06,0.4,313.0,,,0.0,1.0,0.0,100.0
4680,1,walk,walk,12037,,12037.0,20.0,2.0,6.0,2.0,-0.46,-0.016,0.045,1.9,34.0,28.07,0.0,19.0,0.0,10.0,0.1,0.0,-1.0,-0.09,0.42,-1.07,0.38,313.0,,,0.0,1.0,0.0,100.0
4720,1,walk,walk,12038,,12038.0,20.0,2.0,6.0,2.0,-0.46,-0.016,-0.015,1.876,34.0,28.07,0.0,19.0,0.0,10.0,0.1,0.0,-1.0,-0.09,0.4,-1.07,0.34,313.0,,,0.0,1.0,0.0,100.0
4740,1,walk,walk,12039,,12039.0,20.0,2.0,6.0,2.0,-0.46,-0.016,0.065,1.875,34.0,28.07,0.0,19.0,0.0,10.0,0.1,0.0,-1.0,-0.09,0.38,-1.06,0.31,313.0,,,0.0,1.0,0.0,100.0
4780,1,walk,walk,12040,,12040.0,20.0,2.0,6.0,2.0,-0.45,-0.015,0.015,1.874,34.0,28.07,0.0,19.0,0.0,10.0,0.1,0.0,-1.0,-0.09,0.36,-1.05,0.28,313.0,,,0.0,1.0,0.0,100.0
4780,1,walk,walk,12041,,12041.0,20.0,2.0,6.0,2.0,-0.45,-0.016,-0.095,1.866,34.0,28.07,0.0,19.0,0.0,10.0,0.1,0.0,-1.0,-0.09,0.34,-1.05,0.25,313.0,,,0.0,1.0,0.0,100.0
4780,1,walk,walk,12042,,12042.0,20.0,2.0,6.0,2.0,-0.45,-0.015,0.087,1.878,34.0,28.07,0.0,19.0,0.0,10.0,0.1,0.0,-1.0,-0.09,0.32,-1.04,0.24,313.0,,,0.0,1.0,0.0,100.0
4800,1,walk,walk,12043,,12043.0,20.0,2.0,6.0,2.0,-0.45,-0.015,-0.029,1.838,34.0,28.07,0.0,19.0,0.0,10.0,0.11,0.0,-1.0,-0.09,0.29,-1.03,0.23,313.0,,,0.0,1.0,0.0,100.0
4820,1,walk,walk,12044,,12044.0,20.0,2.0,6.0,2.0,-0.45,-0.015,0.093,1.847,34.0,28.07,0.0,19.0,0.0,10.0,0.11,0.0,-1.0,-0.09,0.27,-1.02,0.23,313.0,,,0.0,1.0,0.0,100.0
4840,1,walk,walk,12045,,12045.0,20.0,2.0,6.0,2.0,-0.44,-0.015,-0.025,1.863,34.0,28.07,0.0,19.0,0.0,10.0,0.12,0.0,-1.0,-0.09,0.24,-1.0,0.24,313.0,,,0.0,1.0,0.0,100.0
4860,1,walk,walk,12046,,12046.0,20.0,2.0,6.0,2.0,-0.44,-0.015,-0.033,1.873,34.0,28.07,0.0,19.0,0.0,10.0,0.12,0.0,-1.0,-0.09,0.2,-0.98,0.25,313.0,,,0.0,1.0,0.0,100.0
4900,1,walk,walk,12047,,12047.0,20.0,2.0,6.0,2.0,-0.44,-0.015,0.01,1.808,34.0,28.07,0.0,19.0,0.0,10.0,0.13,0.0,-1.0,-0.09,0.16,-0.97,0.28,313.0,,,0.0,1.0,0.0,100.0
4940,1,walk,walk,12048,,12048.0,20.0,2.0,6.0,2.0,-0.43,-0.015,-0.001,1.853,34.0,28.07,0.0,19.0,0.0,10.0,0.14,0.0,-1.0,-0.09,0.12,-0.95,0.3,313.0,,,0.0,1.0,0.0,100.0
4940,1,walk,walk,12049,,12049.0,20.0,2.0,6.0,2.0,-0.43,-0.015,-0.009,1.809,34.0,28.07,0.0,19.0,0.0,10.0,0.15,0.0,-1.0,-0.09,0.09,-0.95,0.34,313.0,,,0.0,1.0,0.0,100.0
4960,1,walk,walk,12050,,12050.0,20.0,2.0,6.0,2.0,-0.42,-0.015,0.013,1.868,34.0,28.07,0.0,19.0,0.0,10.0,0.16,0.0,-1.0,-0.09,0.06,-0.96,0.4,313.0,,,0.0,1.0,0.0,100.0
4960,1,walk,walk,12051,,12051.0,20.0,2.0,6.0,2.0,-0.42,-0.015,-0.017,1.875,34.0,28.07,0.0,19.0,0.0,10.0,0.17,0.0,-1.0,-0.09,0.04,-0.98,0.46,313.0,,,0.0,1.0,0.0,100.0
4980,1,walk,walk,12052,,12052.0,20.0,2.0,6.0,2.0,-0.41,-0.016,0.054,1.845,34.0,28.07,0.0,19.0,0.0,10.0,0.18,0.0,-1.0,-0.09,0.02,-1.01,0.55,313.0,,,0.0,1.0,0.0,100.0
5000,1,walk,walk,12053,,12053.0,20.0,2.0,6.0,2.0,-0.41,-0.016,-0.048,1.877,34.0,28.07,0.0,19.0,0.0,10.0,0.19,0.0,-1.0,-0.09,0.02,-1.06,0.65,313.0,,,0.0,1.0,0.0,100.0
5040,1,walk,walk,12054,,12054.0,20.0,2.0,6.0,2.0,-0.41,-0.016,0.056,1.898,34.0,28.07,0.0,19.0,0.0,10.0,0.18,0.0,-1.0,-0.09,0.02,-1.11,0.76,313.0,,,0.0,1.0,0.0,100.0
5060,1,walk,walk,12055,,12055.0,20.0,2.0,6.0,2.0,-0.4,-0.016,-0.053,1.865,34.0,28.07,0.0,19.0,0.0,10.0,0.18,0.0,-1.0,-0.09,0.03,-1.16,0.86,313.0,,,0.0,1.0,0.0,100.0
5100,1,walk,walk,12056,,12056.0,20.0,2.0,6.0,2.0,-0.4,-0.016,-0.05,1.897,34.0,28.07,0.0,19.0,0.0,10.0,0.16,0.0,-1.0,-0.09,0.05,-1.2,0.94,313.0,,,0.0,1.0,0.0,100.0
5100,1,walk,walk,12057,,12057.0,20.0,2.0,6.0,2.0,-0.4,-0.016,-0.01,1.863,34.0,28.07,0.0,19.0,0.0,10.0,0.15,0.0,-1.0,-0.09,0.08,-1.22,1.0,313.0,,,0.0,1.0,0.0,100.0
5120,1,walk,walk,12058,,12058.0,20.0,2.0,6.0,2.0,-0.39,-0.016,-0.036,1.886,34.0,28.07,0.0,19.0,0.0,10.0,0.12,0.0,-1.0,-0.09,0.12,-1.23,1.03,313.0,,,0.0,1.0,0.0,100.0
5140,1,walk,walk,12059,,12059.0,20.0,2.0,6.0,2.0,-0.39,-0.016,0.042,1.849,34.0,28.07,0.0,19.0,0.0,10.0,0.1,0.0,-1.0,-0.09,0.16,-1.22,1.04,313.0,,,0.0,1.0,0.0,100.0
5140,1,walk,walk,12060,,12060.0,20.0,2.0,6.0,2.0,-0.39,-0.016,-0.005,1.866,34.0,28.07,0.0,19.0,0.0,10.0,0.08,0.0,-1.0,-0.09,0.2,-1.19,1.01,313.0,,,0.0,1.0,0.0,100.0
5160,1,walk,walk,12061,,12061.0,20.0,2.0,6.0,2.0,-0.39,-0.016,-0.045,1.873,34.0,28.07,0.0,19.0,0.0,10.0,0.07,0.0,-1.0,-0.09,0.25,-1.16,0.96,313.0,,,0.0,1.0,0.0,100.0
5200,1,walk,walk,12062,,12062.0,20.0,2.0,6.0,2.0,-0.39,-0.016,-0.019,1.867,34.0,28.07,0.0,19.0,0.0,10.0,0.06,0.0,-1.0,-0.09,0.29,-1.11,0.89,313.0,,,0.0,1.0,0.0,100.0
5240,1,walk,walk,12063,,12063.0,20.0,2.0,6.0,2.0,-0.4,-0.015,0.084,1.849,34.0,28.07,0.0,19.0,0.0,10.0,0.05,0.0,-1.0,-0.09,0.33,-1.06,0.82,313.0,,,0.0,1.0,0.0,100.0
5260,1,walk,walk,12064,,12064.0,20.0,2.0,6.0,2.0,-0.4,-0.015,0.093,1.88,34.0,28.07,0.0,19.0,0.0,10.0,0.05,0.0,-1.0,-0.09,0.37,-1.01,0.74,313.0,,,0.0,1.0,0.0,100.0
5260,1,walk,walk,12065,,12065.0,20.0,2.0,6.0,2.0,-0.4,-0.015,-0.062,1.83,34.0,28.07,0.0,19.0,0.0,10.0,0.05,0.0,-1.0,-0.09,0.4,-0.97,0.67,313.0,,,0.0,1.0,0.0,100.0
5260,1,walk,walk,12066,,12066.0,20.0,2.0,6.0,2.0,-0.41,-0.015,0.037,1.864,34.0,28.07,0.0,19.0,0.0,10.0,0.05,0.0,-1.0,-0.09,0.43,-0.94,0.61,313.0,,,0.0,1.0,0.0,100.0
5300,1,walk,walk,12067,,12067.0,20.0,2.0,6.0,2.0,-0.41,-0.016,-0.093,1.859,34.0,28.07,0.0,19.0,0.0,10.0,0.06,0.0,-1.0,-0.09,0.44,-0.91,0.57,313.0,,,0.0,1.0,0.0,100.0
5320,1,walk,walk,12068,,12068.0,20.0,2.0,6.0,2.0,-0.42,-0.016,-0.007,1.868,34.0,28.07,0.0,19.0,0.0,10.0,0.06,0.0,-1.0,-0.09,0.46,-0.9,0.54,313.0,,,0.0,1.0,0.0,100.0
5320,1,walk,walk,12069,,12069.0,20.0,2.0,6.0,2.0,-0.42,-0.016,0.109,1.857,34.0,28.07,0.0,19.0,0.0,10.0,0.07,0.0,-1.0,-0.09,0.47,-0.9,0.53,313.0,,,0.0,1.0,0.0,100.0
5340,1,walk,walk,12070,,12070.0,20.0,2.0,6.0,2.0,-0.43,-0.015,0.041,1.839,34.0,28.07,0.0,19.0,0.0,10.0,0.08,0.0,-1.0,-0.09,0.48,-0.92,0.53,313.0,,,0.0,1.0,0.0,100.0
5380,1,walk,walk,12071,,12071.0,20.0,2.0,6.0,2.0,-0.43,-0.015,0.052,1.892,34.0,28.07,0.0,19.0,0.0,10.0,0.09,0.0,-1.0,-0.09,0.48,-0.93,0.55,313.0,,,0.0,1.0,0.0,100.0
5400,1,walk,walk,12072,,12072.0,20.0,2.0,6.0,2.0,-0.44,-0.015,0.026,1.894,34.0,28.07,0.0,19.0,0.0,10.0,0.09,0.0,-1.0,-0.09,0.48,-0.95,0.56,313.0,,,0.0,1.0,0.0,100.0
5420,1,walk,walk,12073,,12073.0,20.0,2.0,6.0,2.0,-0.44,-0.016,-0.011,1.826,34.0,28.07,0.0,19.0,0.0,10.0,0.1,0.0,-1.0,-0.09,0.47,-0.97,0.57,313.0,,,0.0,1.0,0.0,100.0
5460,1,walk,walk,12074,,12074.0,20.0,2.0,6.0,2.0,-0.44,-0.015,-0.018,1.846,34.0,28.07,0.0,19.0,0.0,10.0,0.1,0.0,-1.0,-0.09,0.45,-0.97,0.56,313.0,,,0.0,1.0,0.0,100.0
5460,1,walk,walk,12075,,12075.0,20.0,2.0,6.0,2.0,-0.45,-0.015,0.052,1.872,34.0,28.07,0.0,19.0,0.0,10.0,0.1,0.0,-1.0,-0.09,0.44,-0.97,0.55,313.0,,,0.0,1.0,0.0,100.0
5460,1,walk,walk,12076,,12076.0,20.0,2.0,6.0,2.0,-0.45,-0.015,-0.002,1.848,34.0,28.07,0.0,19.0,0.0,10.0,0.09,0.0,-1.0,-0.09,0.43,-0.95,0.51,313.0,,,0.0,1.0,0.0,100.0
5500,1,walk,walk,12077,,12077.0,20.0,2.0,6.0,2.0,-0.45,-0.015,0.033,1.837,34.0,28.07,0.0,19.0,0.0,10.0,0.09,0.0,-1.0,-0.09,0.43,-0.93,0.46,313.0,,,0.0,1.0,0.0,100.0
5540,1,walk,walk,12078,,12078.0,20.0,2.0,6.0,2.0,-0.45,-0.015,-0.028,1.848,34.0,28.07,0.0,19.0,0.0,10.0,0.1,0.0,-1.0,-0.09,0.42,-0.9,0.4,313.0,,,0.0,1.0,0.0,100.0
5540,1,walk,walk,12079,,12079.0,20.0,2.0,6.0,2.0,-0.45,-0.015,0.011,1.796,34.0,28.07,0.0,19.0,0.0,10.0,0.1,0.0,-1.0,-0.09,0.42,-0.87,0.34,313.0,,,0.0,1.0,0.0,100.0
5560,1,walk,walk,12080,,12080.0,20.0,2.0,6.0,2.0,-0.45,-0.015,0.041,1.781,34.0,28.07,0.0,19.0,0.0,10.0,0.11,0.0,-1.0,-0.09,0.43,-0.84,0.29,313.0,,,0.0,1.0,0.0,100.0
5560,1,walk,walk,12081,,12081.0,20.0,2.0,6.0,2.0,-0.46,-0.015,-0.017,1.813,34.0,28.07,0.0,19.0,0.0,10.0,0.12,0.0,-1.0,-0.09,0.44,-0.82,0.24,313.0,,,0.0,1.0,0.0,100.0
5580,1,walk,walk,12082,,12082.0,20.0,2.0,6.0,2.0,-0.46,-0.015,0.003,1.785,34.0,28.07,0.0,19.0,0.0,10.0,0.13,0.0,-1.0,-0.09,0.45,-0.79,0.2,313.0,,,0.0,1.0,0.0,100.0
5620,1,walk,walk,12083,,12083.0,20.0,2.0,6.0,2.0,-0.45,-0.015,0.037,1.804,34.0,28.07,0.0,19.0,0.0,10.0,0.14,0.0,-1.0,-0.09,0.46,-0.77,0.17,313.0,,,0.0,1.0,0.0,100.0
5620,1,walk,walk,12084,,12084.0,20.0,2.0,6.0,2.0,-0.45,-0.015,0.077,1.794,34.0,28.07,0.0,19.0,0.0,10.0,0.16,0.0,-1.0,-0.09,0.47,-0.76,0.16,313.0,,,0.0,1.0,0.0,100.0
5640,1,walk,walk,12085,,12085.0,20.0,2.0,6.0,2.0,-0.45,-0.015,-0.04,1.795,34.0,28.07,0.0,19.0,0.0,10.0,0.18,0.0,-1.0,-0.09,0.47,-0.76,0.17,313.0,,,0.0,1.0,0.0,100.0
5660,1,walk,walk,12086,,12086.0,20.0,2.0,6.0,2.0,-0.45,-0.015,-0.044,1.782,34.0,28.07,0.0,19.0,0.0,10.0,0.2,0.0,-1.0,-0.09,0.48,-0.77,0.2,313.0,,,0.0,1.0,0.0,100.0
5680,1,walk,walk,12087,,12087.0,20.0,2.0,6.0,2.0,-0.45,-0.015,-0.037,1.845,34.0,28.07,0.0,19.0,0.0,10.0,0.23,0.0,-1.0,-0.09,0.48,-0.8,0.26,313.0,,,0.0,1.0,0.0,100.0
5720,1,walk,walk,12088,,12088.0,20.0,2.0,6.0,2.0,-0.44,-0.015,0.029,1.825,34.0,28.07,0.0,19.0,0.0,10.0,0.25,0.0,-1.0,-0.09,0.49,-0.84,0.34,313.0,,,0.0,1.0,0.0,100.0
5740,1,walk,walk,12089,,12089.0,20.0,2.0,6.0,2.0,-0.44,-0.015,-0.005,1.829,34.0,28.07,0.0,19.0,0.0,10.0,0.26,0.0,-1.0,-0.09,0.49,-0.89,0.43,313.0,,,0.0,1.0,0.0,100.0
5780,1,walk,walk,12090,,12090.0,20.0,2.0,6.0,2.0,-0.43,-0.015,0.033,1.822,34.0,28.07,0.0,19.0,0.0,10.0,0.27,0.0,-1.0,-0.09,0.49,-0.94,0.52,313.0,,,0.0,1.0,0.0,100.0
5780,1,walk,walk,12091,,12091.0,20.0,2.0,6.0,2.0,-0.43,-0.015,0.06,1.816,34.0,28.07,0.0,19.0,0.0,10.0,0.26,0.0,-1.0,-0.09,0.49,-0.98,0.6,313.0,,,0.0,1.0,0.0,100.0
5780,1,walk,walk,12092,,12092.0,20.0,2.0,6.0,2.0,-0.42,-0.015,0.033,1.823,34.0,28.07,0.0,19.0,0.0,10.0,0.25,0.0,-1.0,-0.09,0.49,-1.01,0.64,313.0,,,0.0,1.0,0.0,100.0
5800,1,walk,walk,12093,,12093.0,20.0,2.0,6.0,2.0,-0.42,-0.015,-0.011,1.804,34.0,28.07,0.0,19.0,0.0,10.0,0.24,0.0,-1.0,-0.09,0.49,-1.02,0.66,313.0,,,0.0,1.0,0.0,100.0
5820,1,walk,walk,12094,,12094.0,20.0,2.0,6.0,2.0,-0.41,-0.015,0.069,1.813,34.0,28.07,0.0,19.0,0.0,10.0,0.22,0.0,-1.0,-0.09,0.49,-1.02,0.64,313.0,,,0.0,1.0,0.0,100.0
5840,1,walk,walk,12095,,12095.0,20.0,2.0,6.0,2.0,-0.41,-0.015,-0.019,1.806,34.0,28.07,0.0,19.0,0.0,10.0,0.21,0.0,-1.0,-0.09,0.48,-1.0,0.6,313.0,,,0.0,1.0,0.0,100.0
5860,1,walk,walk,12096,,12096.0,20.0,2.0,6.0,2.0,-0.41,-0.015,0.019,1.803,34.0,28.07,0.0,19.0,0.0,10.0,0.19,0.0,-1.0,-0.09,0.46,-0.97,0.55,313.0,,,0.0,1.0,0.0,100.0
5880,1,walk,walk,12097,,12097.0,20.0,2.0,6.0,2.0,-0.4,-0.015,-0.033,1.791,34.0,28.07,0.0,19.0,0.0,10.0,0.19,0.0,-1.0,-0.09,0.44,-0.94,0.5,313.0,,,0.0,1.0,0.0,100.0
5920,1,walk,walk,12098,,12098.0,20.0,2.0,6.0,2.0,-0.4,-0.015,-0.022,1.825,34.0,28.07,0.0,19.0,0.0,10.0,0.19,0.0,-1.0,-0.09,0.42,-0.91,0.46,313.0,,,0.0,1.0,0.0,100.0
5920,1,walk,walk,12099,,12099.0,20.0,2.0,6.0,2.0,-0.39,-0.015,0.025,1.809,34.0,28.07,0.0,19.0,0.0,10.0,0.19,0.0,-1.0,-0.08,0.39,-0.88,0.44,313.0,,,0.0,1.0,0.0,100.0
5940,1,walk,walk,12100,,12100.0,20.0,2.0,6.0,2.0,-0.39,-0.015,-0.013,1.816,34.0,28.07,0.0,19.0,0.0,10.0,0.2,0.0,-1.0,-0.08,0.37,-0.85,0.43,313.0,,,0.0,1.0,0.0,100.0
5960,1,walk,walk,12101,,12101.0,20.0,2.0,6.0,2.0,-0.39,-0.015,0.003,1.83,34.0,28.07,0.0,19.0,0.0,10.0,0.21,0.0,-1.0,-0.08,0.36,-0.84,0.44,313.0,,,0.0,1.0,0.0,100.0
5980,1,walk,walk,12102,,12102.0,20.0,2.0,6.0,2.0,-0.39,-0.015,-0.034,1.786,34.0,28.07,0.0,19.0,0.0,10.0,0.22,0.0,-1.0,-0.08,0.35,-0.84,0.46,313.0,,,0.0,1.0,0.0,100.0
6000,1,walk,walk,12103,,12103.0,20.0,2.0,6.0,2.0,-0.38,-0.015,0.023,1.809,34.0,28.07,0.0,19.0,0.0,10.0,0.24,0.0,-1.0,-0.09,0.33,-0.85,0.5,313.0,,,0.0,1.0,0.0,100.0
6040,1,walk,walk,12104,,12104.0,20.0,2.0,6.0,2.0,-0.38,-0.015,0.116,1.854,34.0,28.07,0.0,19.0,0.0,10.0,0.25,0.0,-1.0,-0.09,0.32,-0.88,0.56,313.0,,,0.0,1.0,0.0,100.0
6060,1,walk,walk,12105,,12105.0,20.0,2.0,6.0,2.0,-0.38,-0.015,-0.037,1.827,34.0,28.07,0.0,19.0,0.0,10.0,0.26,0.0,-1.0,-0.09,0.31,-0.92,0.63,313.0,,,0.0,1.0,0.0,100.0
6060,1,walk,walk,12106,,12106.0,20.0,2.0,6.0,2.0,-0.38,-0.015,0.062,1.826,34.0,28.07,0.0,19.0,0.0,10.0,0.27,0.0,-1.0,-0.09,0.29,-0.97,0.71,313.0,,,0.0,1.0,0.0,100.0
6100,1,walk,walk,12107,,12107.0,20.0,2.0,6.0,2.0,-0.37,-0.015,0.053,1.843,34.0,28.07,0.0,19.0,0.0,10.0,0.27,0.0,-1.0,-0.09,0.27,-1.02,0.8,313.0,,,0.0,1.0,0.0,100.0
6100,1,walk,walk,12108,,12108.0,20.0,2.0,6.0,2.0,-0.37,-0.015,-0.072,1.809,34.0,28.07,0.0,19.0,0.0,10.0,0.26,0.0,-1.0,-0.09,0.25,-1.07,0.88,313.0,,,0.0,1.0,0.0,100.0
6120,1,walk,walk,12109,,12109.0,20.0,2.0,6.0,2.0,-0.37,-0.015,-0.025,1.809,34.0,28.07,0.0,19.0,0.0,10.0,0.25,0.0,-1.0,-0.09,0.23,-1.11,0.93,313.0,,,0.0,1.0,0.0,100.0
6140,1,walk,walk,12110,,12110.0,20.0,2.0,6.0,2.0,-0.37,-0.015,0.009,1.819,34.0,28.07,0.0,19.0,0.0,10.0,0.23,0.0,-1.0,-0.09,0.21,-1.13,0.96,313.0,,,0.0,1.0,0.0,100.0
6180,1,walk,walk,12111,,12111.0,20.0,2.0,6.0,2.0,-0.37,-0.015,0.089,1.824,34.0,28.07,0.0,19.0,0.0,10.0,0.2,0.0,-1.0,-0.09,0.19,-1.14,0.96,313.0,,,0.0,1.0,0.0,100.0
6220,1,walk,walk,12112,,12112.0,20.0,2.0,6.0,2.0,-0.37,-0.015,-0.066,1.823,34.0,28.07,0.0,19.0,0.0,10.0,0.18,0.0,-1.0,-0.09,0.17,-1.14,0.92,313.0,,,0.0,1.0,0.0,100.0
6240,1,walk,walk,12113,,12113.0,20.0,2.0,6.0,2.0,-0.37,-0.015,0.015,1.808,34.0,28.07,0.0,19.0,0.0,10.0,0.16,0.0,-1.0,-0.09,0.16,-1.13,0.84,313.0,,,0.0,1.0,0.0,100.0
6240,1,walk,walk,12114,,12114.0,20.0,2.0,6.0,2.0,-0.37,-0.015,0.085,1.792,34.0,28.07,0.0,19.0,0.0,10.0,0.15,0.0,-1.0,-0.09,0.16,-1.1,0.74,313.0,,,0.0,1.0,0.0,100.0
6260,1,walk,walk,12115,,12115.0,20.0,2.0,6.0,2.0,-0.37,-0.015,-0.065,1.8,34.0,28.07,0.0,19.0,0.0,10.0,0.14,0.0,-1.0,-0.09,0.17,-1.08,0.63,313.0,,,0.0,1.0,0.0,100.0
6260,1,walk,walk,12116,,12116.0,20.0,2.0,6.0,2.0,-0.37,-0.015,-0.021,1.816,34.0,28.07,0.0,19.0,0.0,10.0,0.14,0.0,-1.0,-0.09,0.18,-1.05,0.52,313.0,,,0.0,1.0,0.0,100.0
6280,1,walk,walk,12117,,12117.0,20.0,2.0,6.0,2.0,-0.38,-0.015,0.011,1.734,34.0,28.07,0.0,19.0,0.0,10.0,0.15,0.0,-1.0,-0.09,0.19,-1.03,0.42,313.0,,,0.0,1.0,0.0,100.0
6300,1,walk,walk,12118,,12118.0,20.0,2.0,6.0,2.0,-0.38,-0.015,-0.064,1.807,34.0,28.07,0.0,19.0,0.0,10.0,0.17,0.0,-1.0,-0.09,0.19,-1.02,0.35,313.0,,,0.0,1.0,0.0,100.0
6320,1,walk,walk,12119,,12119.0,20.0,2.0,6.0,2.0,-0.38,-0.015,-0.002,1.797,34.0,28.07,0.0,19.0,0.0,10.0,0.19,0.0,-1.0,-0.09,0.2,-1.03,0.32,313.0,,,0.0,1.0,0.0,100.0
6360,1,walk,walk,12120,,12120.0,20.0,2.0,6.0,2.0,-0.38,-0.015,0.089,1.787,34.0,28.07,0.0,19.0,0.0,10.0,0.22,0.0,-1.0,-0.09,0.19,-1.04,0.33,313.0,,,0.0,1.0,0.0,100.0
6360,1,walk,walk,12121,,12121.0,20.0,2.0,6.0,2.0,-0.38,-0.015,0.038,1.788,34.0,28.07,0.0,19.0,0.0,10.0,0.24,0.0,-1.0,-0.09,0.18,-1.07,0.38,313.0,,,0.0,1.0,0.0,100.0
6380,1,walk,walk,12122,,12122.0,20.0,2.0,6.0,2.0,-0.39,-0.015,-0.033,1.84,34.0,28.07,0.0,19.0,0.0,10.0,0.26,0.0,-1.0,-0.09,0.17,-1.11,0.45,313.0,,,0.0,1.0,0.0,100.0
6420,1,walk,walk,12123,,12123.0,20.0,2.0,6.0,2.0,-0.39,-0.015,0.045,1.82,34.0,28.07,0.0,19.0,0.0,10.0,0.28,0.0,-1.0,-0.09,0.15,-1.14,0.54,313.0,,,0.0,1.0,0.0,100.0
6440,1,walk,walk,12124,,12124.0,20.0,2.0,6.0,2.0,-0.39,-0.015,-0.049,1.844,34.0,28.07,0.0,19.0,0.0,10.0,0.28,0.0,-1.0,-0.09,0.11,-1.17,0.63,313.0,,,0.0,1.0,0.0,100.0
6440,1,walk,walk,12125,,12125.0,20.0,2.0,6.0,2.0,-0.39,-0.015,-0.069,1.832,34.0,28.07,0.0,19.0,0.0,10.0,0.27,0.0,-1.0,-0.09,0.07,-1.18,0.7,313.0,,,0.0,1.0,0.0,100.0
6460,1,walk,walk,12126,,12126.0,20.0,2.0,6.0,2.0,-0.39,-0.015,0.109,1.818,34.0,28.07,0.0,19.0,0.0,10.0,0.26,0.0,-1.0,-0.09,0.02,-1.18,0.75,313.0,,,0.0,1.0,0.0,100.0
6480,1,walk,walk,12127,,12127.0,20.0,2.0,6.0,2.0,-0.39,-0.015,-0.002,1.819,34.0,28.07,0.0,19.0,0.0,10.0,0.25,0.0,-1.0,-0.09,-0.02,-1.17,0.78,313.0,,,0.0,1.0,0.0,100.0
6520,1,walk,walk,12128,,12128.0,20.0,2.0,6.0,2.0,-0.39,-0.015,-0.041,1.815,34.0,28.07,0.0,19.0,0.0,10.0,0.24,0.0,-1.0,-0.09,-0.07,-1.16,0.79,313.0,,,0.0,1.0,0.0,100.0
6580,1,walk,walk,12129,,12129.0,20.0,2.0,6.0,2.0,-0.38,-0.015,-0.06,1.811,34.0,28.07,0.0,19.0,0.0,10.0,0.23,0.0,-1.0,-0.09,-0.1,-1.14,0.79,313.0,,,0.0,1.0,0.0,100.0
6620,1,walk,walk,12130,,12130.0,20.0,2.0,6.0,2.0,-0.38,-0.015,-0.034,1.802,34.0,28.07,0.0,19.0,0.0,10.0,0.23,0.0,-1.0,-0.09,-0.12,-1.13,0.77,313.0,,,0.0,1.0,0.0,100.0
6620,1,walk,walk,12131,,12131.0,20.0,2.0,6.0,2.0,-0.38,-0.015,-0.015,1.809,34.0,28.07,0.0,19.0,0.0,10.0,0.23,0.0,-1.0,-0.09,-0.13,-1.12,0.75,313.0,,,0.0,1.0,0.0,100.0
6620,1,walk,walk,12132,,12132.0,20.0,2.0,6.0,2.0,-0.38,-0.015,-0.029,1.82,34.0,28.07,0.0,19.0,0.0,10.0,0.23,0.0,-1.0,-0.09,-0.12,-1.1,0.73,313.0,,,0.0,1.0,0.0,100.0
6620,1,walk,walk,12133,,12133.0,20.0,2.0,6.0,2.0,-0.38,-0.015,-0.028,1.833,34.0,28.07,0.0,19.0,0.0,10.0,0.23,0.0,-1.0,-0.09,-0.11,-1.09,0.71,313.0,,,0.0,1.0,0.0,100.0
6660,1,walk,walk,12134,,12134.0,20.0,2.0,6.0,2.0,-0.38,-0.015,-0.003,1.803,34.0,28.07,0.0,19.0,0.0,10.0,0.22,0.0,-1.0,-0.09,-0.08,-1.08,0.71,313.0,,,0.0,1.0,0.0,100.0
6660,1,walk,walk,12135,,12135.0,20.0,2.0,6.0,2.0,-0.38,-0.015,0.026,1.821,34.0,28.07,0.0,19.0,0.0,10.0,0.22,0.0,-1.0,-0.09,-0.04,-1.08,0.7,313.0,,,0.0,1.0,0.0,100.0
6680,1,walk,walk,12136,,12136.0,20.0,2.0,6.0,2.0,-0.38,-0.015,0.104,1.819,34.0,28.07,0.0,19.0,0.0,10.0,0.22,0.0,-1.0,-0.09,0.0,-1.08,0.7,313.0,,,0.0,1.0,0.0,100.0
6700,1,walk,walk,12137,,12137.0,20.0,2.0,6.0,2.0,-0.38,-0.015,-0.025,1.803,34.0,28.07,0.0,19.0,0.0,10.0,0.22,0.0,-1.0,-0.09,0.06,-1.09,0.69,313.0,,,0.0,1.0,0.0,100.0
6720,1,walk,walk,12138,,12138.0,20.0,2.0,6.0,2.0,-0.39,-0.015,-0.062,1.78,34.0,28.07,0.0,19.0,0.0,10.0,0.21,0.0,-1.0,-0.09,0.11,-1.1,0.68,313.0,,,0.0,1.0,0.0,100.0
6720,1,walk,walk,12139,,12139.0,20.0,2.0,6.0,2.0,-0.39,-0.015,-0.01,1.836,34.0,28.07,0.0,19.0,0.0,10.0,0.21,0.0,-1.0,-0.09,0.16,-1.11,0.67,313.0,,,0.0,1.0,0.0,100.0
6740,1,walk,walk,12140,,12140.0,20.0,2.0,6.0,2.0,-0.39,-0.015,-0.029,1.812,34.0,28.07,0.0,19.0,0.0,10.0,0.2,0.0,-1.0,-0.09,0.19,-1.11,0.64,313.0,,,0.0,1.0,0.0,100.0
6780,1,walk,walk,12141,,12141.0,20.0,2.0,6.0,2.0,-0.39,-0.015,0.019,1.846,34.0,28.07,0.0,19.0,0.0,10.0,0.19,0.0,-1.0,-0.09,0.22,-1.11,0.6,313.0,,,0.0,1.0,0.0,100.0
6800,1,walk,walk,12142,,12142.0,20.0,2.0,6.0,2.0,-0.39,-0.015,0.123,1.779,34.0,28.07,0.0,19.0,0.0,10.0,0.19,0.0,-1.0,-0.09,0.24,-1.1,0.55,313.0,,,0.0,1.0,0.0,100.0
6820,1,walk,walk,12143,,12143.0,20.0,2.0,6.0,2.0,-0.39,-0.015,0.096,1.806,34.0,28.07,0.0,19.0,0.0,10.0,0.19,0.0,-1.0,-0.09,0.24,-1.09,0.5,313.0,,,0.0,1.0,0.0,100.0
6820,1,walk,walk,12144,,12144.0,20.0,2.0,6.0,2.0,-0.39,-0.015,-0.049,1.756,34.0,28.07,0.0,19.0,0.0,10.0,0.19,0.0,-1.0,-0.09,0.24,-1.08,0.46,313.0,,,0.0,1.0,0.0,100.0
6840,1,walk,walk,12145,,12145.0,20.0,2.0,6.0,2.0,-0.39,-0.015,-0.045,1.791,34.0,28.07,0.0,19.0,0.0,10.0,0.19,0.0,-1.0,-0.09,0.23,-1.07,0.42,313.0,,,0.0,1.0,0.0,100.0
6860,1,walk,walk,12146,,12146.0,20.0,2.0,6.0,2.0,-0.39,-0.015,0.011,1.776,34.0,28.07,0.0,19.0,0.0,10.0,0.2,0.0,-1.0,-0.09,0.21,-1.06,0.39,313.0,,,0.0,1.0,0.0,100.0
6880,1,walk,walk,12147,,12147.0,20.0,2.0,6.0,2.0,-0.39,-0.015,-0.03,1.784,34.0,28.07,0.0,19.0,0.0,10.0,0.21,0.0,-1.0,-0.09,0.2,-1.05,0.38,313.0,,,0.0,1.0,0.0,100.0
6900,1,walk,walk,12148,,12148.0,20.0,2.0,6.0,2.0,-0.39,-0.015,-0.014,1.76,34.0,28.07,0.0,19.0,0.0,10.0,0.22,0.0,-1.0,-0.09,0.2,-1.04,0.39,313.0,,,0.0,1.0,0.0,100.0
6960,1,walk,walk,12149,,12149.0,20.0,2.0,6.0,2.0,-0.39,-0.015,-0.005,1.799,34.0,28.07,0.0,19.0,0.0,10.0,0.23,0.0,-1.0,-0.09,0.19,-1.03,0.4,313.0,,,0.0,1.0,0.0,100.0
6960,1,walk,walk,12150,,12150.0,20.0,2.0,6.0,2.0,-0.39,-0.015,0.029,1.781,34.0,28.07,0.0,19.0,0.0,10.0,0.24,0.0,-1.0,-0.09,0.2,-1.02,0.42,313.0,,,0.0,1.0,0.0,100.0
6960,1,walk,walk,12151,,12151.0,20.0,2.0,6.0,2.0,-0.39,-0.015,-0.018,1.8,34.0,28.07,0.0,19.0,0.0,10.0,0.24,0.0,-1.0,-0.09,0.21,-1.01,0.44,313.0,,,0.0,1.0,0.0,100.0
6980,1,walk,walk,12152,,12152.0,20.0,2.0,6.0,2.0,-0.39,-0.015,0.001,1.795,34.0,28.07,0.0,19.0,0.0,10.0,0.25,0.0,-1.0,-0.09,0.24,-1.01,0.46,313.0,,,0.0,1.0,0.0,100.0
7000,1,walk,walk,12153,,12153.0,20.0,2.0,6.0,2.0,-0.39,-0.015,0.021,1.797,34.0,28.07,0.0,19.0,0.0,10.0,0.26,0.0,-1.0,-0.09,0.27,-1.01,0.48,313.0,,,0.0,1.0,0.0,100.0
7020,1,walk,walk,12154,,12154.0,20.0,2.0,6.0,2.0,-0.39,-0.015,-0.076,1.801,34.0,28.07,0.0,19.0,0.0,10.0,0.26,0.0,-1.0,-0.09,0.3,-1.01,0.5,313.0,,,0.0,1.0,0.0,100.0
7040,1,walk,walk,12155,,12155.0,20.0,2.0,6.0,2.0,-0.39,-0.015,0.003,1.79,34.0,28.07,0.0,19.0,0.0,10.0,0.27,0.0,-1.0,-0.09,0.34,-1.01,0.52,313.0,,,0.0,1.0,0.0,100.0
7080,1,walk,walk,12156,,12156.0,20.0,2.0,6.0,2.0,-0.38,-0.015,-0.032,1.8,34.0,28.07,0.0,19.0,0.0,10.0,0.28,0.0,-1.0,-0.09,0.37,-1.01,0.54,313.0,,,0.0,1.0,0.0,100.0
7100,1,walk,walk,12157,,12157.0,20.0,2.0,6.0,2.0,-0.38,-0.015,-0.021,1.777,34.0,28.07,0.0,19.0,0.0,10.0,0.28,0.0,-1.0,-0.09,0.4,-1.01,0.56,313.0,,,0.0,1.0,0.0,100.0
7140,1,walk,walk,12158,,12158.0,20.0,2.0,6.0,2.0,-0.38,-0.015,0.132,1.815,34.0,28.07,0.0,19.0,0.0,10.0,0.28,0.0,-1.0,-0.09,0.42,-1.01,0.57,313.0,,,0.0,1.0,0.0,100.0
7140,1,walk,walk,12159,,12159.0,20.0,2.0,6.0,2.0,-0.38,-0.015,0.081,1.812,34.0,28.07,0.0,19.0,0.0,10.0,0.28,0.0,-1.0,-0.09,0.44,-1.0,0.57,313.0,,,0.0,1.0,0.0,100.0
7160,1,walk,walk,12160,,12160.0,20.0,2.0,6.0,2.0,-0.37,-0.015,-0.006,1.807,34.0,28.07,0.0,19.0,0.0,10.0,0.28,0.0,-1.0,-0.09,0.45,-0.98,0.56,313.0,,,0.0,1.0,0.0,100.0
7180,1,walk,walk,12161,,12161.0,20.0,2.0,6.0,2.0,-0.37,-0.015,0.017,1.77,34.0,28.07,0.0,19.0,0.0,10.0,0.27,0.0,-1.0,-0.09,0.47,-0.96,0.55,313.0,,,0.0,1.0,0.0,100.0
7200,1,walk,walk,12162,,12162.0,20.0,2.0,6.0,2.0,-0.37,-0.015,0.044,1.793,34.0,28.07,0.0,19.0,0.0,10.0,0.27,0.0,-1.0,-0.09,0.48,-0.94,0.53,313.0,,,0.0,1.0,0.0,100.0
7200,1,walk,walk,12163,,12163.0,20.0,2.0,6.0,2.0,-0.36,-0.015,-0.038,1.804,34.0,28.07,0.0,19.0,0.0,10.0,0.27,0.0,-1.0,-0.09,0.49,-0.92,0.5,313.0,,,0.0,1.0,0.0,100.0
7220,1,walk,walk,12164,,12164.0,20.0,2.0,6.0,2.0,-0.36,-0.015,0.04,1.789,34.0,28.07,0.0,19.0,0.0,10.0,0.27,0.0,-1.0,-0.09,0.5,-0.91,0.48,313.0,,,0.0,1.0,0.0,100.0
7240,1,walk,walk,12165,,12165.0,20.0,2.0,6.0,2.0,-0.36,-0.015,-0.026,1.795,34.0,28.07,0.0,19.0,0.0,10.0,0.27,0.0,-1.0,-0.09,0.51,-0.9,0.45,313.0,,,0.0,1.0,0.0,100.0
7260,1,walk,walk,12166,,12166.0,20.0,2.0,6.0,2.0,-0.36,-0.015,-0.041,1.799,34.0,28.07,0.0,19.0,0.0,10.0,0.27,0.0,-1.0,-0.09,0.51,-0.9,0.43,313.0,,,0.0,1.0,0.0,100.0
7300,1,walk,walk,12167,,12167.0,20.0,2.0,6.0,2.0,-0.36,-0.015,-0.002,1.794,34.0,28.07,0.0,19.0,0.0,10.0,0.27,0.0,-1.0,-0.09,0.5,-0.91,0.41,313.0,,,0.0,1.0,0.0,100.0
7320,1,walk,walk,12168,,12168.0,20.0,2.0,6.0,2.0,-0.35,-0.015,-0.017,1.772,34.0,28.07,0.0,19.0,0.0,10.0,0.28,0.0,-1.0,-0.09,0.49,-0.91,0.39,313.0,,,0.0,1.0,0.0,100.0
7340,1,walk,walk,12169,,12169.0,20.0,2.0,6.0,2.0,-0.35,-0.015,-0.005,1.776,34.0,28.07,0.0,19.0,0.0,10.0,0.28,0.0,-1.0,-0.09,0.47,-0.91,0.38,313.0,,,0.0,1.0,0.0,100.0
7360,1,walk,walk,12170,,12170.0,20.0,2.0,6.0,2.0,-0.35,-0.015,0.033,1.791,34.0,28.07,0.0,19.0,0.0,10.0,0.28,0.0,-1.0,-0.09,0.45,-0.91,0.37,313.0,,,0.0,1.0,0.0,100.0
7360,1,walk,walk,12171,,12171.0,20.0,2.0,6.0,2.0,-0.35,-0.015,0.038,1.794,34.0,28.07,0.0,19.0,0.0,10.0,0.29,0.01,-1.0,-0.09,0.43,-0.91,0.37,313.0,,,0.0,1.0,0.0,100.0
7380,1,walk,walk,12172,,12172.0,20.0,2.0,6.0,2.0,-0.34,-0.015,-0.015,1.788,34.0,28.07,0.0,19.0,0.0,10.0,0.29,0.01,-1.0,-0.09,0.41,-0.92,0.38,313.0,,,0.0,1.0,0.0,100.0
7400,1,walk,walk,12173,,12173.0,20.0,2.0,6.0,2.0,-0.34,-0.015,0.021,1.758,34.0,28.07,0.0,19.0,0.0,10.0,0.3,0.01,-1.0,-0.09,0.39,-0.93,0.39,313.0,,,0.0,1.0,0.0,100.0
7440,1,walk,walk,12174,,12174.0,20.0,2.0,6.0,2.0,-0.34,-0.015,0.003,1.783,34.0,28.07,0.0,19.0,0.0,10.0,0.31,0.01,-1.0,-0.09,0.37,-0.93,0.42,313.0,,,0.0,1.0,0.0,100.0
7460,1,walk,walk,12175,,12175.0,20.0,2.0,6.0,2.0,-0.33,-0.015,0.018,1.802,34.0,28.07,0.0,19.0,0.0,10.0,0.31,0.01,-1.0,-0.09,0.35,-0.94,0.44,313.0,,,0.0,1.0,0.0,100.0
7480,1,walk,walk,12176,,12176.0,20.0,2.0,6.0,2.0,-0.33,-0.015,-0.009,1.777,34.0,28.11,0.0,19.0,0.0,10.0,0.31,0.01,-1.0,-0.09,0.33,-0.94,0.47,313.0,,,0.0,1.0,0.0,100.0
7500,1,walk,walk,12177,,12177.0,20.0,2.0,6.0,2.0,-0.33,-0.015,0.036,1.797,34.0,28.07,0.0,19.0,0.0,10.0,0.32,0.01,-1.0,-0.09,0.31,-0.95,0.5,313.0,,,0.0,1.0,0.0,100.0
7500,1,walk,walk,12178,,12178.0,20.0,2.0,6.0,2.0,-0.32,-0.015,-0.06,1.78,34.0,28.07,0.0,19.0,0.0,10.0,0.32,0.01,-1.0,-0.09,0.29,-0.96,0.53,313.0,,,0.0,1.0,0.0,100.0
7540,1,walk,walk,12179,,12179.0,20.0,2.0,6.0,2.0,-0.32,-0.015,-0.04,1.801,34.0,28.07,0.0,19.0,0.0,10.0,0.32,0.01,-1.0,-0.09,0.28,-0.98,0.56,313.0,,,0.0,1.0,0.0,100.0
7540,1,walk,walk,12180,,12180.0,20.0,2.0,6.0,2.0,-0.31,-0.015,0.017,1.805,34.0,28.07,0.0,19.0,0.0,10.0,0.33,0.01,-1.0,-0.09,0.26,-1.0,0.6,313.0,,,0.0,1.0,0.0,100.0
7560,1,walk,walk,12181,,12181.0,20.0,2.0,6.0,2.0,-0.31,-0.015,-0.073,1.777,34.0,28.07,0.0,19.0,0.0,10.0,0.33,0.01,-1.0,-0.09,0.25,-1.02,0.64,313.0,,,0.0,1.0,0.0,100.0
7620,1,walk,walk,12182,,12182.0,20.0,2.0,6.0,2.0,-0.31,-0.015,-0.044,1.788,34.0,28.11,0.0,19.0,0.0,10.0,0.33,0.01,-1.0,-0.09,0.24,-1.05,0.69,313.0,,,0.0,1.0,0.0,100.0
7620,1,walk,walk,12183,,12183.0,20.0,2.0,6.0,2.0,-0.31,-0.015,0.03,1.78,34.0,28.07,0.0,19.0,0.0,10.0,0.34,0.01,-1.0,-0.09,0.23,-1.08,0.73,313.0,,,0.0,1.0,0.0,100.0
7640,1,walk,walk,12184,,12184.0,20.0,2.0,6.0,2.0,-0.3,-0.015,-0.022,1.834,34.0,28.07,0.0,19.0,0.0,10.0,0.33,0.01,-1.0,-0.09,0.22,-1.11,0.78,313.0,,,0.0,1.0,0.0,100.0
7660,1,walk,walk,12185,,12185.0,20.0,2.0,6.0,2.0,-0.3,-0.015,0.06,1.817,34.0,28.07,0.0,19.0,0.0,10.0,0.33,0.01,-1.0,-0.09,0.21,-1.15,0.82,313.0,,,0.0,1.0,0.0,100.0
7660,1,walk,walk,12186,,12186.0,20.0,2.0,6.0,2.0,-0.3,-0.015,0.034,1.808,34.0,28.07,0.0,19.0,0.0,10.0,0.32,0.01,-1.0,-0.09,0.21,-1.18,0.85,313.0,,,0.0,1.0,0.0,100.0
7700,1,walk,walk,12187,,12187.0,20.0,2.0,6.0,2.0,-0.3,-0.015,-0.048,1.8,34.0,28.07,0.0,19.0,0.0,10.0,0.32,0.01,-1.0,-0.09,0.21,-1.21,0.87,313.0,,,0.0,1.0,0.0,100.0
7720,1,walk,walk,12188,,12188.0,20.0,2.0,6.0,2.0,-0.3,-0.015,0.096,1.818,34.0,28.07,0.0,19.0,0.0,10.0,0.31,0.01,-1.0,-0.09,0.22,-1.24,0.88,313.0,,,0.0,1.0,0.0,100.0
7740,1,walk,walk,12189,,12189.0,20.0,2.0,6.0,2.0,-0.29,-0.015,0.07,1.824,34.0,28.07,0.0,19.0,0.0,10.0,0.3,0.01,-1.0,-0.09,0.23,-1.25,0.88,313.0,,,0.0,1.0,0.0,100.0
7760,1,walk,walk,12190,,12190.0,20.0,2.0,6.0,2.0,-0.29,-0.015,-0.04,1.79,34.0,28.07,0.0,19.0,0.0,10.0,0.29,0.01,-1.0,-0.09,0.24,-1.26,0.88,313.0,,,0.0,1.0,0.0,100.0
7760,1,walk,walk,12191,,12191.0,20.0,2.0,6.0,2.0,-0.3,-0.015,0.014,1.824,34.0,28.07,0.0,19.0,0.0,10.0,0.28,0.0,-1.0,-0.09,0.25,-1.27,0.87,313.0,,,0.0,1.0,0.0,100.0
7780,1,walk,walk,12192,,12192.0,20.0,2.0,6.0,2.0,-0.3,-0.015,0.034,1.827,34.0,28.07,0.0,19.0,0.0,10.0,0.28,0.0,-1.0,-0.09,0.25,-1.28,0.87,313.0,,,0.0,1.0,0.0,100.0
7800,1,walk,walk,12193,,12193.0,20.0,2.0,6.0,2.0,-0.3,-0.015,-0.011,1.816,34.0,28.07,0.0,19.0,0.0,10.0,0.27,0.0,-1.0,-0.09,0.24,-1.28,0.86,313.0,,,0.0,1.0,0.0,100.0
7820,1,walk,walk,12194,,12194.0,20.0,2.0,6.0,2.0,-0.3,-0.015,0.033,1.823,34.0,28.07,0.0,19.0,0.0,10.0,0.27,0.0,-1.0,-0.09,0.23,-1.28,0.87,313.0,,,0.0,1.0,0.0,100.0
7840,1,walk,walk,12195,,12195.0,20.0,2.0,6.0,2.0,-0.3,-0.015,0.033,1.844,34.0,28.07,0.0,19.0,0.0,10.0,0.27,0.0,-1.0,-0.09,0.21,-1.27,0.87,313.0,,,0.0,1.0,0.0,100.0
7880,1,walk,walk,12196,,12196.0,20.0,2.0,6.0,2.0,-0.31,-0.015,0.054,1.811,34.0,28.07,0.0,19.0,0.0,10.0,0.26,0.0,-1.0,-0.09,0.19,-1.27,0.88,313.0,,,0.0,1.0,0.0,100.0
7900,1,walk,walk,12197,,12197.0,20.0,2.0,6.0,2.0,-0.31,-0.015,0.011,1.804,34.0,28.07,0.0,19.0,0.0,10.0,0.26,0.0,-1.0,-0.09,0.16,-1.27,0.88,313.0,,,0.0,1.0,0.0,100.0
7940,1,walk,walk,12198,,12198.0,20.0,2.0,6.0,2.0,-0.31,-0.015,-0.036,1.814,34.0,28.07,0.0,19.0,0.0,10.0,0.25,0.0,-1.0,-0.09,0.12,-1.26,0.88,313.0,,,0.0,1.0,0.0,100.0
7940,1,walk,walk,12199,,12199.0,20.0,2.0,6.0,2.0,-0.32,-0.015,0.021,1.815,34.0,28.07,0.0,19.0,0.0,10.0,0.24,0.0,-1.0,-0.09,0.09,-1.24,0.87,313.0,,,0.0,1.0,0.0,100.0
7960,1,walk,walk,12200,,12200.0,20.0,2.0,6.0,2.0,-0.32,-0.015,0.053,1.834,34.0,28.07,0.0,19.0,0.0,10.0,0.24,0.0,-1.0,-0.09,0.05,-1.22,0.85,313.0,,,0.0,1.0,0.0,100.0
7960,1,walk,walk,12201,,12201.0,20.0,2.0,6.0,2.0,-0.32,-0.015,0.03,1.818,34.0,28.07,0.0,19.0,0.0,10.0,0.23,0.0,-1.0,-0.09,0.02,-1.2,0.83,313.0,,,0.0,1.0,0.0,100.0
7980,1,walk,walk,12202,,12202.0,20.0,2.0,6.0,2.0,-0.33,-0.015,-0.01,1.822,34.0,28.07,0.0,19.0,0.0,10.0,0.22,0.0,-1.0,-0.09,0.0,-1.18,0.81,313.0,,,0.0,1.0,0.0,100.0
8020,1,walk,walk,12203,,12203.0,20.0,2.0,6.0,2.0,-0.33,-0.015,0.065,1.866,34.0,28.07,0.0,19.0,0.0,10.0,0.22,0.0,-1.0,-0.09,-0.01,-1.16,0.79,313.0,,,0.0,1.0,0.0,100.0
8020,1,walk,walk,12204,,12204.0,20.0,2.0,6.0,2.0,-0.34,-0.015,-0.057,1.825,34.0,28.07,0.0,19.0,0.0,10.0,0.22,0.0,-1.0,-0.09,-0.02,-1.13,0.77,313.0,,,0.0,1.0,0.0,100.0
8040,1,walk,walk,12205,,12205.0,20.0,2.0,6.0,2.0,-0.34,-0.015,-0.046,1.823,34.0,28.07,0.0,19.0,0.0,10.0,0.21,0.0,-1.0,-0.09,-0.02,-1.11,0.75,313.0,,,0.0,1.0,0.0,100.0
8080,1,walk,walk,12206,,12206.0,20.0,2.0,6.0,2.0,-0.35,-0.015,0.036,1.832,34.0,28.07,0.0,19.0,0.0,10.0,0.21,0.0,-1.0,-0.09,-0.02,-1.08,0.73,313.0,,,0.0,1.0,0.0,100.0
8080,1,walk,walk,12207,,12207.0,20.0,2.0,6.0,2.0,-0.35,-0.015,0.022,1.824,34.0,28.07,0.0,19.0,0.0,10.0,0.21,0.0,-1.0,-0.09,0.0,-1.07,0.71,313.0,,,0.0,1.0,0.0,100.0
8100,1,walk,walk,12208,,12208.0,20.0,2.0,6.0,2.0,-0.35,-0.015,0.115,1.829,34.0,28.07,0.0,19.0,0.0,10.0,0.2,0.0,-1.0,-0.09,0.02,-1.06,0.69,313.0,,,0.0,1.0,0.0,100.0
8120,1,walk,walk,12209,,12209.0,20.0,2.0,6.0,2.0,-0.36,-0.015,0.049,1.837,34.0,28.07,0.0,19.0,0.0,10.0,0.2,0.0,-1.0,-0.09,0.05,-1.05,0.67,313.0,,,0.0,1.0,0.0,100.0
8140,1,walk,walk,12210,,12210.0,20.0,2.0,6.0,2.0,-0.36,-0.015,-0.054,1.832,34.0,28.07,0.0,19.0,0.0,10.0,0.19,0.0,-1.0,-0.09,0.08,-1.04,0.65,313.0,,,0.0,1.0,0.0,100.0
8160,1,walk,walk,12211,,12211.0,20.0,2.0,6.0,2.0,-0.37,-0.015,0.029,1.808,34.0,28.07,0.0,19.0,0.0,10.0,0.19,0.0,-1.0,-0.09,0.12,-1.03,0.62,313.0,,,0.0,1.0,0.0,100.0
8200,1,walk,walk,12212,,12212.0,20.0,2.0,6.0,2.0,-0.37,-0.015,-0.025,1.809,34.0,28.07,0.0,19.0,0.0,10.0,0.19,0.0,-1.0,-0.09,0.16,-1.03,0.6,313.0,,,0.0,1.0,0.0,100.0
8220,1,walk,walk,12213,,12213.0,20.0,2.0,6.0,2.0,-0.37,-0.015,0.028,1.835,34.0,28.07,0.0,19.0,0.0,10.0,0.19,0.0,-1.0,-0.09,0.21,-1.03,0.57,313.0,,,0.0,1.0,0.0,100.0
8240,1,walk,walk,12214,,12214.0,20.0,2.0,6.0,2.0,-0.38,-0.015,0.002,1.851,34.0,28.07,0.0,19.0,0.0,10.0,0.19,0.0,-1.0,-0.09,0.25,-1.02,0.56,313.0,,,0.0,1.0,0.0,100.0
8240,1,walk,walk,12215,,12215.0,20.0,2.0,6.0,2.0,-0.38,-0.015,-0.061,1.811,34.0,28.07,0.0,19.0,0.0,10.0,0.19,0.0,-1.0,-0.09,0.29,-1.02,0.55,313.0,,,0.0,1.0,0.0,100.0
8280,1,walk,walk,12216,,12216.0,20.0,2.0,6.0,2.0,-0.38,-0.015,0.036,1.802,34.0,28.07,0.0,19.0,0.0,10.0,0.2,0.0,-1.0,-0.09,0.32,-1.03,0.55,313.0,,,0.0,1.0,0.0,100.0
8280,1,walk,walk,12217,,12217.0,20.0,2.0,6.0,2.0,-0.38,-0.015,0.005,1.829,34.0,28.07,0.0,19.0,0.0,10.0,0.2,0.0,-1.0,-0.09,0.36,-1.04,0.56,313.0,,,0.0,1.0,0.0,100.0
8300,1,walk,walk,12218,,12218.0,20.0,2.0,6.0,2.0,-0.38,-0.015,0.03,1.816,34.0,28.07,0.0,19.0,0.0,10.0,0.2,0.0,-1.0,-0.09,0.39,-1.05,0.56,313.0,,,0.0,1.0,0.0,100.0
8320,1,walk,walk,12219,,12219.0,20.0,2.0,6.0,2.0,-0.39,-0.015,0.053,1.849,34.0,28.07,0.0,19.0,0.0,10.0,0.2,0.0,-1.0,-0.09,0.42,-1.06,0.57,313.0,,,0.0,1.0,0.0,100.0
8340,1,walk,walk,12220,,12220.0,20.0,2.0,6.0,2.0,-0.39,-0.015,-0.087,1.84,34.0,28.07,0.0,19.0,0.0,10.0,0.2,0.0,-1.0,-0.09,0.44,-1.07,0.57,313.0,,,0.0,1.0,0.0,100.0
8400,1,walk,walk,12221,,12221.0,20.0,2.0,6.0,2.0,-0.39,-0.015,0.088,1.797,34.0,28.07,0.0,19.0,0.0,10.0,0.2,0.0,-1.0,-0.09,0.46,-1.08,0.57,313.0,,,0.0,1.0,0.0,100.0
8400,1,walk,walk,12222,,12222.0,20.0,2.0,6.0,2.0,-0.39,-0.015,0.032,1.829,34.0,28.07,0.0,19.0,0.0,10.0,0.2,0.0,-1.0,-0.09,0.48,-1.09,0.56,313.0,,,0.0,1.0,0.0,100.0
8400,1,walk,walk,12223,,12223.0,20.0,2.0,6.0,2.0,-0.39,-0.015,-0.014,1.817,34.0,28.07,0.0,19.0,0.0,10.0,0.19,0.0,-1.0,-0.09,0.49,-1.09,0.56,313.0,,,0.0,1.0,0.0,100.0
8420,1,walk,walk,12224,,12224.0,20.0,2.0,6.0,2.0,-0.39,-0.015,0.034,1.822,34.0,28.07,0.0,19.0,0.0,10.0,0.19,0.0,-1.0,-0.09,0.49,-1.08,0.55,313.0,,,0.0,1.0,0.0,100.0
8440,1,walk,walk,12225,,12225.0,20.0,2.0,6.0,2.0,-0.39,-0.015,0.013,1.848,34.0,28.07,0.0,19.0,0.0,10.0,0.18,0.0,-1.0,-0.09,0.5,-1.07,0.55,313.0,,,0.0,1.0,0.0,100.0
8460,1,walk,walk,12226,,12226.0,20.0,2.0,6.0,2.0,-0.39,-0.015,-0.006,1.832,34.0,28.07,0.0,19.0,0.0,10.0,0.18,0.0,-1.0,-0.09,0.5,-1.06,0.54,313.0,,,0.0,1.0,0.0,100.0
8500,1,walk,walk,12227,,12227.0,20.0,2.0,6.0,2.0,-0.39,-0.015,-0.018,1.815,34.0,28.07,0.0,19.0,0.0,10.0,0.18,0.0,-1.0,-0.09,0.49,-1.05,0.53,313.0,,,0.0,1.0,0.0,100.0
8520,1,walk,walk,12228,,12228.0,20.0,2.0,6.0,2.0,-0.39,-0.015,-0.01,1.809,34.0,28.07,0.0,19.0,0.0,10.0,0.18,0.0,-1.0,-0.09,0.48,-1.04,0.53,313.0,,,0.0,1.0,0.0,100.0
8520,1,walk,walk,12229,,12229.0,20.0,2.0,6.0,2.0,-0.39,-0.015,0.022,1.833,34.0,28.07,0.0,19.0,0.0,10.0,0.18,0.0,-1.0,-0.09,0.46,-1.04,0.53,313.0,,,0.0,1.0,0.0,100.0
8560,1,walk,walk,12230,,12230.0,20.0,2.0,6.0,2.0,-0.39,-0.015,-0.057,1.805,34.0,28.07,0.0,19.0,0.0,10.0,0.19,0.0,-1.0,-0.09,0.43,-1.04,0.54,313.0,,,0.0,1.0,0.0,100.0
8560,1,walk,walk,12231,,12231.0,20.0,2.0,6.0,2.0,-0.39,-0.015,0.068,1.864,34.0,28.07,0.0,19.0,0.0,10.0,0.2,0.0,-1.0,-0.09,0.4,-1.05,0.58,313.0,,,0.0,1.0,0.0,100.0
8600,1,walk,walk,12232,,12232.0,20.0,2.0,6.0,2.0,-0.39,-0.015,0.034,1.867,34.0,28.07,0.0,19.0,0.0,10.0,0.21,0.0,-1.0,-0.09,0.37,-1.07,0.63,313.0,,,0.0,1.0,0.0,100.0
8620,1,walk,walk,12233,,12233.0,20.0,2.0,6.0,2.0,-0.39,-0.016,0.001,1.877,34.0,28.07,0.0,19.0,0.0,10.0,0.22,0.0,-1.0,-0.09,0.34,-1.1,0.7,313.0,,,0.0,1.0,0.0,100.0
8620,1,walk,walk,12234,,12234.0,20.0,2.0,6.0,2.0,-0.39,-0.016,-0.044,1.897,34.0,28.07,0.0,19.0,0.0,10.0,0.22,0.0,-1.0,-0.09,0.31,-1.13,0.78,313.0,,,0.0,1.0,0.0,100.0
8660,1,walk,walk,12235,,12235.0,20.0,2.0,6.0,2.0,-0.39,-0.016,0.028,1.904,34.0,28.07,0.0,19.0,0.0,10.0,0.22,0.0,-1.0,-0.09,0.29,-1.16,0.86,313.0,,,0.0,1.0,0.0,100.0
8680,1,walk,walk,12236,,12236.0,20.0,2.0,6.0,2.0,-0.38,-0.016,0.014,1.905,34.0,28.07,0.0,19.0,0.0,10.0,0.21,0.0,-1.0,-0.09,0.27,-1.18,0.93,313.0,,,0.0,1.0,0.0,100.0
8700,1,walk,walk,12237,,12237.0,20.0,2.0,6.0,2.0,-0.38,-0.016,0.007,1.877,34.0,28.07,0.0,19.0,0.0,10.0,0.19,0.0,-1.0,-0.09,0.25,-1.2,0.99,313.0,,,0.0,1.0,0.0,100.0
8720,1,walk,walk,12238,,12238.0,20.0,2.0,6.0,2.0,-0.39,-0.016,0.015,1.892,34.0,28.07,0.0,19.0,0.0,10.0,0.17,0.0,-1.0,-0.09,0.25,-1.19,1.02,313.0,,,0.0,1.0,0.0,100.0
8740,1,walk,walk,12239,,12239.0,20.0,2.0,6.0,2.0,-0.39,-0.016,0.032,1.893,34.0,28.07,0.0,19.0,0.0,10.0,0.15,0.0,-1.0,-0.09,0.26,-1.18,1.02,313.0,,,0.0,1.0,0.0,100.0
8740,1,walk,walk,12240,,12240.0,20.0,2.0,6.0,2.0,-0.39,-0.016,-0.019,1.873,34.0,28.07,0.0,19.0,0.0,10.0,0.12,0.0,-1.0,-0.09,0.28,-1.14,0.99,313.0,,,0.0,1.0,0.0,100.0
8760,1,walk,walk,12241,,12241.0,20.0,2.0,6.0,2.0,-0.39,-0.016,0.007,1.883,34.0,28.07,0.0,19.0,0.0,10.0,0.1,0.0,-1.0,-0.09,0.29,-1.09,0.94,313.0,,,0.0,1.0,0.0,100.0
8780,1,walk,walk,12242,,12242.0,20.0,2.0,6.0,2.0,-0.39,-0.016,0.023,1.87,34.0,28.07,0.0,19.0,0.0,10.0,0.08,0.0,-1.0,-0.09,0.31,-1.02,0.86,313.0,,,0.0,1.0,0.0,100.0
8800,1,walk,walk,12243,,12243.0,20.0,2.0,6.0,2.0,-0.4,-0.016,0.011,1.86,34.0,28.07,0.0,19.0,0.0,10.0,0.07,0.0,-1.0,-0.09,0.32,-0.96,0.77,313.0,,,0.0,1.0,0.0,100.0
8820,1,walk,walk,12244,,12244.0,20.0,2.0,6.0,2.0,-0.4,-0.016,0.048,1.858,34.0,28.07,0.0,19.0,0.0,10.0,0.07,0.0,-1.0,-0.09,0.32,-0.9,0.69,313.0,,,0.0,1.0,0.0,100.0
8840,1,walk,walk,12245,,12245.0,20.0,2.0,6.0,2.0,-0.4,-0.016,-0.01,1.857,34.0,28.07,0.0,19.0,0.0,10.0,0.08,0.0,-1.0,-0.09,0.31,-0.85,0.61,313.0,,,0.0,1.0,0.0,100.0
8880,1,walk,walk,12246,,12246.0,20.0,2.0,6.0,2.0,-0.41,-0.015,-0.048,1.859,34.0,28.07,0.0,19.0,0.0,10.0,0.09,0.0,-1.0,-0.09,0.29,-0.82,0.56,313.0,,,0.0,1.0,0.0,100.0
8900,1,walk,walk,12247,,12247.0,20.0,2.0,6.0,2.0,-0.41,-0.016,-0.019,1.865,34.0,28.07,0.0,19.0,0.0,10.0,0.11,0.0,-1.0,-0.09,0.26,-0.81,0.52,313.0,,,0.0,1.0,0.0,100.0
8920,1,walk,walk,12248,,12248.0,20.0,2.0,6.0,2.0,-0.42,-0.016,0.009,1.858,34.0,28.07,0.0,19.0,0.0,10.0,0.13,0.0,-1.0,-0.09,0.21,-0.81,0.52,313.0,,,0.0,1.0,0.0,100.0
8920,1,walk,walk,12249,,12249.0,20.0,2.0,6.0,2.0,-0.42,-0.016,0.06,1.906,34.0,28.07,0.0,19.0,0.0,10.0,0.15,0.0,-1.0,-0.09,0.16,-0.83,0.54,313.0,,,0.0,1.0,0.0,100.0
8940,1,walk,walk,12250,,12250.0,20.0,2.0,6.0,2.0,-0.42,-0.016,0.037,1.908,34.0,28.07,0.0,19.0,0.0,10.0,0.16,0.0,-1.0,-0.09,0.11,-0.87,0.59,313.0,,,0.0,1.0,0.0,100.0
8960,1,walk,walk,12251,,12251.0,20.0,2.0,6.0,2.0,-0.43,-0.016,0.042,1.861,34.0,28.07,0.0,19.0,0.0,10.0,0.17,0.0,-1.0,-0.09,0.05,-0.91,0.64,313.0,,,0.0,1.0,0.0,100.0
8980,1,walk,walk,12252,,12252.0,20.0,2.0,6.0,2.0,-0.43,-0.016,0.069,1.904,34.0,28.07,0.0,19.0,0.0,10.0,0.18,0.0,-1.0,-0.09,-0.01,-0.94,0.69,313.0,,,0.0,1.0,0.0,100.0
9000,1,walk,walk,12253,,12253.0,20.0,2.0,6.0,2.0,-0.43,-0.016,0.081,1.884,34.0,28.07,0.0,19.0,0.0,10.0,0.17,0.0,-1.0,-0.09,-0.07,-0.96,0.72,313.0,,,0.0,1.0,0.0,100.0
9060,1,walk,walk,12254,,12254.0,20.0,2.0,6.0,2.0,-0.44,-0.015,0.108,1.859,34.0,28.07,0.0,19.0,0.0,10.0,0.16,0.0,-1.0,-0.09,-0.12,-0.98,0.73,313.0,,,0.0,1.0,0.0,100.0
9060,1,walk,walk,12255,,12255.0,20.0,2.0,6.0,2.0,-0.44,-0.016,-0.076,1.844,34.0,28.07,0.0,19.0,0.0,10.0,0.15,0.0,-1.0,-0.09,-0.16,-0.99,0.71,313.0,,,0.0,1.0,0.0,100.0
9060,1,walk,walk,12256,,12256.0,20.0,2.0,6.0,2.0,-0.44,-0.015,0.026,1.825,34.0,28.07,0.0,19.0,0.0,10.0,0.14,0.0,-1.0,-0.09,-0.18,-0.98,0.67,313.0,,,0.0,1.0,0.0,100.0
9120,1,walk,walk,12257,,12257.0,20.0,2.0,6.0,2.0,-0.44,-0.015,0.014,1.819,34.0,28.07,0.0,19.0,0.0,10.0,0.13,0.0,-1.0,-0.09,-0.18,-0.96,0.62,313.0,,,0.0,1.0,0.0,100.0
9140,1,walk,walk,12258,,12258.0,20.0,2.0,6.0,2.0,-0.45,-0.015,-0.017,1.856,34.0,28.07,0.0,19.0,0.0,10.0,0.13,0.0,-1.0,-0.09,-0.16,-0.94,0.57,313.0,,,0.0,1.0,0.0,100.0
9140,1,walk,walk,12259,,12259.0,20.0,2.0,6.0,2.0,-0.45,-0.015,-0.037,1.839,34.0,28.07,0.0,19.0,0.0,10.0,0.13,0.0,-1.0,-0.09,-0.13,-0.92,0.53,313.0,,,0.0,1.0,0.0,100.0
9160,1,walk,walk,12260,,12260.0,20.0,2.0,6.0,2.0,-0.45,-0.015,-0.002,1.835,34.0,28.07,0.0,19.0,0.0,10.0,0.14,0.0,-1.0,-0.09,-0.08,-0.9,0.51,313.0,,,0.0,1.0,0.0,100.0
9160,1,walk,walk,12261,,12261.0,20.0,2.0,6.0,2.0,-0.45,-0.015,-0.053,1.857,34.0,28.07,0.0,19.0,0.0,10.0,0.15,0.0,-1.0,-0.09,-0.02,-0.9,0.5,313.0,,,0.0,1.0,0.0,100.0
9220,1,walk,walk,12262,,12262.0,20.0,2.0,6.0,2.0,-0.45,-0.016,-0.058,1.843,34.0,28.07,0.0,19.0,0.0,10.0,0.16,0.0,-1.0,-0.09,0.04,-0.9,0.52,313.0,,,0.0,1.0,0.0,100.0
9220,1,walk,walk,12263,,12263.0,20.0,2.0,6.0,2.0,-0.45,-0.015,0.007,1.856,34.0,28.07,0.0,19.0,0.0,10.0,0.17,0.0,-1.0,-0.09,0.12,-0.91,0.55,313.0,,,0.0,1.0,0.0,100.0
9240,1,walk,walk,12264,,12264.0,20.0,2.0,6.0,2.0,-0.45,-0.015,0.041,1.845,34.0,28.07,0.0,19.0,0.0,10.0,0.18,0.0,-1.0,-0.09,0.19,-0.92,0.58,313.0,,,0.0,1.0,0.0,100.0
9240,1,walk,walk,12265,,12265.0,20.0,2.0,6.0,2.0,-0.45,-0.015,0.014,1.866,34.0,28.07,0.0,19.0,0.0,10.0,0.18,0.0,-1.0,-0.09,0.26,-0.94,0.61,313.0,,,0.0,1.0,0.0,100.0
9260,1,walk,walk,12266,,12266.0,20.0,2.0,6.0,2.0,-0.45,-0.016,0.032,1.863,34.0,28.07,0.0,19.0,0.0,10.0,0.18,0.0,-1.0,-0.09,0.32,-0.96,0.63,313.0,,,0.0,1.0,0.0,100.0
9300,1,walk,walk,12267,,12267.0,20.0,2.0,6.0,2.0,-0.45,-0.015,-0.011,1.86,34.0,28.07,0.0,19.0,0.0,10.0,0.17,0.0,-1.0,-0.09,0.38,-0.98,0.63,313.0,,,0.0,1.0,0.0,100.0
9320,1,walk,walk,12268,,12268.0,20.0,2.0,6.0,2.0,-0.45,-0.015,-0.029,1.831,34.0,28.07,0.0,19.0,0.0,10.0,0.16,0.0,-1.0,-0.09,0.42,-0.99,0.62,313.0,,,0.0,1.0,0.0,100.0
9340,1,walk,walk,12269,,12269.0,20.0,2.0,6.0,2.0,-0.45,-0.015,0.038,1.86,34.0,28.07,0.0,19.0,0.0,10.0,0.15,0.0,-1.0,-0.09,0.47,-1.0,0.59,313.0,,,0.0,1.0,0.0,100.0
9360,1,walk,walk,12270,,12270.0,20.0,2.0,6.0,2.0,-0.45,-0.015,0.05,1.842,34.0,28.07,0.0,19.0,0.0,10.0,0.14,0.0,-1.0,-0.09,0.5,-1.0,0.56,313.0,,,0.0,1.0,0.0,100.0
9380,1,walk,walk,12271,,12271.0,20.0,2.0,6.0,2.0,-0.45,-0.015,-0.003,1.857,34.0,28.07,0.0,19.0,0.0,10.0,0.14,0.0,-1.0,-0.09,0.53,-1.01,0.52,313.0,,,0.0,1.0,0.0,100.0
9380,1,walk,walk,12272,,12272.0,20.0,2.0,6.0,2.0,-0.45,-0.015,-0.046,1.869,34.0,28.07,0.0,19.0,0.0,10.0,0.13,0.0,-1.0,-0.09,0.56,-1.01,0.48,313.0,,,0.0,1.0,0.0,100.0
9400,1,walk,walk,12273,,12273.0,20.0,2.0,6.0,2.0,-0.45,-0.015,0.04,1.889,34.0,28.07,0.0,19.0,0.0,10.0,0.13,0.0,-1.0,-0.09,0.58,-1.01,0.44,313.0,,,0.0,1.0,0.0,100.0
9420,1,walk,walk,12274,,12274.0,20.0,2.0,6.0,2.0,-0.45,-0.015,0.013,1.86,34.0,28.07,0.0,19.0,0.0,10.0,0.13,0.0,-1.0,-0.09,0.6,-1.01,0.4,313.0,,,0.0,1.0,0.0,100.0
9460,1,walk,walk,12275,,12275.0,20.0,2.0,6.0,2.0,-0.45,-0.015,-0.076,1.858,34.0,28.07,0.0,19.0,0.0,10.0,0.13,0.0,-1.0,-0.09,0.61,-1.01,0.36,313.0,,,0.0,1.0,0.0,100.0
9460,1,walk,walk,12276,,12276.0,20.0,2.0,6.0,2.0,-0.45,-0.015,0.056,1.85,34.0,28.07,0.0,19.0,0.0,10.0,0.14,0.0,-1.0,-0.09,0.62,-1.01,0.32,313.0,,,0.0,1.0,0.0,100.0
9480,1,walk,walk,12277,,12277.0,20.0,2.0,6.0,2.0,-0.45,-0.015,-0.019,1.799,34.0,28.07,0.0,19.0,0.0,10.0,0.14,0.0,-1.0,-0.09,0.63,-1.02,0.27,313.0,,,0.0,1.0,0.0,100.0
9540,1,walk,walk,12278,,12278.0,20.0,2.0,6.0,2.0,-0.44,-0.015,0.01,1.809,34.0,28.07,0.0,19.0,0.0,10.0,0.15,0.0,-1.0,-0.09,0.65,-1.02,0.23,313.0,,,0.0,1.0,0.0,100.0
9540,1,walk,walk,12279,,12279.0,20.0,2.0,6.0,2.0,-0.44,-0.015,0.037,1.765,34.0,28.07,0.0,19.0,0.0,10.0,0.15,0.0,-1.0,-0.09,0.66,-1.02,0.18,313.0,,,0.0,1.0,0.0,100.0
9560,1,walk,walk,12280,,12280.0,20.0,2.0,6.0,2.0,-0.44,-0.015,0.013,1.773,34.0,28.07,0.0,19.0,0.0,10.0,0.16,0.0,-1.0,-0.09,0.67,-1.01,0.13,313.0,,,0.0,1.0,0.0,100.0
9580,1,walk,walk,12281,,12281.0,20.0,2.0,6.0,2.0,-0.44,-0.015,-0.073,1.754,34.0,28.07,0.0,19.0,0.0,10.0,0.17,0.0,-1.0,-0.09,0.67,-1.0,0.08,313.0,,,0.0,1.0,0.0,100.0
9580,1,walk,walk,12282,,12282.0,20.0,2.0,6.0,2.0,-0.43,-0.015,-0.056,1.74,34.0,28.07,0.0,19.0,0.0,10.0,0.18,0.0,-1.0,-0.09,0.68,-0.98,0.03,313.0,,,0.0,1.0,0.0,100.0
9600,1,walk,walk,12283,,12283.0,20.0,2.0,6.0,2.0,-0.43,-0.015,0.05,1.709,34.0,28.07,0.0,19.0,0.0,10.0,0.19,0.0,-1.0,-0.09,0.67,-0.97,-0.02,313.0,,,0.0,1.0,0.0,100.0
9640,1,walk,walk,12284,,12284.0,20.0,2.0,6.0,2.0,-0.43,-0.015,-0.046,1.751,34.0,28.07,0.0,19.0,0.0,10.0,0.21,0.0,-1.0,-0.09,0.67,-0.96,-0.05,313.0,,,0.0,1.0,0.0,100.0
9640,1,walk,walk,12285,,12285.0,20.0,2.0,6.0,2.0,-0.42,-0.015,0.009,1.756,34.0,28.07,0.0,19.0,0.0,10.0,0.22,0.0,-1.0,-0.09,0.68,-0.95,-0.08,313.0,,,0.0,1.0,0.0,100.0
9660,1,walk,walk,12286,,12286.0,20.0,2.0,6.0,2.0,-0.42,-0.015,0.019,1.752,34.0,28.07,0.0,19.0,0.0,10.0,0.24,0.0,-1.0,-0.09,0.69,-0.94,-0.08,313.0,,,0.0,1.0,0.0,100.0
9700,1,walk,walk,12287,,12287.0,20.0,2.0,6.0,2.0,-0.41,-0.015,0.03,1.73,34.0,28.07,0.0,19.0,0.0,10.0,0.25,0.0,-1.0,-0.09,0.7,-0.93,-0.08,313.0,,,0.0,1.0,0.0,100.0
9700,1,walk,walk,12288,,12288.0,20.0,2.0,6.0,2.0,-0.4,-0.015,0.069,1.751,34.0,28.07,0.0,19.0,0.0,10.0,0.27,0.0,-1.0,-0.09,0.72,-0.92,-0.07,313.0,,,0.0,1.0,0.0,100.0
9740,1,walk,walk,12289,,12289.0,20.0,2.0,6.0,2.0,-0.39,-0.015,0.006,1.729,34.0,28.07,0.0,19.0,0.0,10.0,0.28,0.0,-1.0,-0.09,0.74,-0.92,-0.05,313.0,,,0.0,1.0,0.0,100.0
9760,1,walk,walk,12290,,12290.0,20.0,2.0,6.0,2.0,-0.39,-0.015,0.044,1.73,34.0,28.07,0.0,19.0,0.0,10.0,0.29,0.01,-1.0,-0.09,0.75,-0.91,-0.03,313.0,,,0.0,1.0,0.0,100.0
9760,1,walk,walk,12291,,12291.0,20.0,2.0,6.0,2.0,-0.38,-0.015,-0.037,1.738,34.0,28.07,0.0,19.0,0.0,10.0,0.31,0.01,-1.0,-0.09,0.77,-0.9,0.0,313.0,,,0.0,1.0,0.0,100.0
9780,1,walk,walk,12292,,12292.0,20.0,2.0,6.0,2.0,-0.37,-0.015,0.04,1.743,34.0,28.07,0.0,19.0,0.0,10.0,0.32,0.01,-1.0,-0.09,0.78,-0.9,0.04,313.0,,,0.0,1.0,0.0,100.0
9800,1,walk,walk,12293,,12293.0,20.0,2.0,6.0,2.0,-0.36,-0.015,-0.06,1.708,34.0,28.07,0.0,19.0,0.0,10.0,0.34,0.01,-1.0,-0.09,0.79,-0.89,0.07,313.0,,,0.0,1.0,0.0,100.0
9840,1,walk,walk,12294,,12294.0,20.0,2.0,6.0,2.0,-0.35,-0.015,-0.068,1.737,34.0,28.11,0.0,19.0,0.0,10.0,0.35,0.01,-1.0,-0.09,0.79,-0.9,0.11,313.0,,,0.0,1.0,0.0,100.0
9860,1,walk,walk,12295,,12295.0,20.0,2.0,6.0,2.0,-0.34,-0.015,-0.068,1.709,34.0,28.07,0.0,19.0,0.0,10.0,0.36,0.01,-1.0,-0.09,0.78,-0.91,0.14,313.0,,,0.0,1.0,0.0,100.0
9880,1,walk,walk,12296,,12296.0,20.0,2.0,6.0,2.0,-0.33,-0.014,-0.023,1.725,34.0,28.07,0.0,19.0,0.0,10.0,0.37,0.01,-1.0,-0.09,0.76,-0.92,0.17,313.0,,,0.0,1.0,0.0,100.0
9880,1,walk,walk,12297,,12297.0,20.0,2.0,6.0,2.0,-0.32,-0.014,0.017,1.709,34.0,28.11,0.0,19.0,0.0,10.0,0.38,0.01,-1.0,-0.09,0.74,-0.92,0.19,313.0,,,0.0,1.0,0.0,100.0
9900,1,walk,walk,12298,,12298.0,20.0,2.0,6.0,2.0,-0.3,-0.014,0.014,1.721,34.0,28.07,0.0,19.0,0.0,10.0,0.39,0.01,-1.0,-0.09,0.71,-0.93,0.21,313.0,,,0.0,1.0,0.0,100.0
9940,1,walk,walk,12299,,12299.0,20.0,2.0,6.0,2.0,-0.29,-0.014,0.028,1.726,34.0,28.07,0.0,19.0,0.0,10.0,0.4,0.01,-1.0,-0.08,0.67,-0.94,0.23,313.0,,,0.0,1.0,0.0,100.0
9940,1,walk,walk,12300,,12300.0,20.0,2.0,6.0,2.0,-0.28,-0.014,-0.007,1.706,34.0,28.07,0.0,19.0,0.0,10.0,0.41,0.01,-1.0,-0.08,0.62,-0.96,0.25,313.0,,,0.0,1.0,0.0,100.0
9960,1,walk,walk,12301,,12301.0,20.0,2.0,6.0,2.0,-0.27,-0.014,-0.045,1.728,34.0,28.07,0.0,19.0,0.0,10.0,0.41,0.01,-1.0,-0.08,0.57,-0.99,0.28,313.0,,,0.0,1.0,0.0,100.0
10020,1,walk,walk,12302,,12302.0,20.0,2.0,6.0,2.0,-0.26,-0.014,0.007,1.696,34.0,28.07,0.0,19.0,0.0,10.0,0.43,0.01,-1.0,-0.08,0.51,-1.04,0.32,313.0,,,0.0,1.0,0.0,100.0
10020,1,walk,walk,12303,,12303.0,20.0,2.0,6.0,2.0,-0.25,-0.015,-0.04,1.7,34.0,28.07,0.0,19.0,0.0,10.0,0.44,0.01,-1.0,-0.08,0.44,-1.09,0.39,313.0,,,0.0,1.0,0.0,100.0
10020,1,walk,walk,12304,,12304.0,20.0,2.0,6.0,2.0,-0.24,-0.015,-0.099,1.717,34.0,28.07,0.0,19.0,0.0,10.0,0.45,0.01,-1.0,-0.08,0.37,-1.14,0.47,313.0,,,0.0,1.0,0.0,100.0
10040,1,walk,walk,12305,,12305.0,20.0,2.0,6.0,2.0,-0.24,-0.015,-0.014,1.738,34.0,28.07,0.0,19.0,0.0,10.0,0.45,0.01,-1.0,-0.08,0.31,-1.18,0.55,313.0,,,0.0,1.0,0.0,100.0
10060,1,walk,walk,12306,,12306.0,20.0,2.0,6.0,2.0,-0.23,-0.015,-0.017,1.742,34.0,28.11,0.0,19.0,0.0,10.0,0.45,0.01,-1.0,-0.08,0.25,-1.23,0.63,313.0,,,0.0,1.0,0.0,100.0
10080,1,walk,walk,12307,,12307.0,20.0,2.0,6.0,2.0,-0.22,-0.015,0.068,1.739,34.0,28.07,0.0,19.0,0.0,10.0,0.45,0.01,-1.0,-0.08,0.2,-1.26,0.7,313.0,,,0.0,1.0,0.0,100.0
10100,1,walk,walk,12308,,12308.0,20.0,2.0,6.0,2.0,-0.21,-0.015,0.03,1.725,34.0,28.07,0.0,19.0,0.0,10.0,0.44,0.01,-1.0,-0.08,0.16,-1.28,0.75,313.0,,,0.0,1.0,0.0,100.0
10120,1,walk,walk,12309,,12309.0,20.0,2.0,6.0,2.0,-0.2,-0.014,0.007,1.736,34.0,28.11,0.0,19.0,0.0,10.0,0.42,0.01,-1.0,-0.08,0.13,-1.28,0.79,313.0,,,0.0,1.0,0.0,100.0
10140,1,walk,walk,12310,,12310.0,20.0,2.0,6.0,2.0,-0.2,-0.015,0.084,1.712,34.0,28.07,0.0,19.0,0.0,10.0,0.41,0.01,-1.0,-0.08,0.11,-1.27,0.81,313.0,,,0.0,1.0,0.0,100.0
10180,1,walk,walk,12311,,12311.0,20.0,2.0,6.0,2.0,-0.19,-0.015,0.002,1.721,34.0,28.07,0.0,19.0,0.0,10.0,0.4,0.01,-1.0,-0.08,0.08,-1.25,0.82,313.0,,,0.0,1.0,0.0,100.0
10200,1,walk,walk,12312,,12312.0,20.0,2.0,6.0,2.0,-0.19,-0.015,0.009,1.758,34.0,28.07,0.0,19.0,0.0,10.0,0.4,0.01,-1.0,-0.08,0.05,-1.23,0.83,313.0,,,0.0,1.0,0.0,100.0
10200,1,walk,walk,12313,,12313.0,20.0,2.0,6.0,2.0,-0.19,-0.015,0.105,1.734,34.0,28.07,0.0,19.0,0.0,10.0,0.39,0.01,-1.0,-0.08,0.03,-1.21,0.83,313.0,,,0.0,1.0,0.0,100.0
10220,1,walk,walk,12314,,12314.0,20.0,2.0,6.0,2.0,-0.18,-0.015,0.011,1.738,34.0,28.07,0.0,19.0,0.0,10.0,0.39,0.01,-1.0,-0.08,0.0,-1.19,0.84,313.0,,,0.0,1.0,0.0,100.0
10240,1,walk,walk,12315,,12315.0,20.0,2.0,6.0,2.0,-0.18,-0.015,0.011,1.73,34.0,28.07,0.0,19.0,0.0,10.0,0.39,0.01,-1.0,-0.09,-0.03,-1.18,0.85,313.0,,,0.0,1.0,0.0,100.0
10260,1,walk,walk,12316,,12316.0,20.0,2.0,6.0,2.0,-0.18,-0.015,0.062,1.766,34.0,28.07,0.0,19.0,0.0,10.0,0.38,0.01,-1.0,-0.09,-0.05,-1.17,0.86,313.0,,,0.0,1.0,0.0,100.0
10280,1,walk,walk,12317,,12317.0,20.0,2.0,6.0,2.0,-0.18,-0.015,-0.072,1.76,34.0,28.07,0.0,19.0,0.0,10.0,0.38,0.01,-1.0,-0.09,-0.08,-1.17,0.87,313.0,,,0.0,1.0,0.0,100.0
10320,1,walk,walk,12318,,12318.0,20.0,2.0,6.0,2.0,-0.18,-0.015,0.009,1.76,34.0,28.07,0.0,19.0,0.0,10.0,0.37,0.01,-1.0,-0.09,-0.1,-1.17,0.89,313.0,,,0.0,1.0,0.0,100.0
10340,1,walk,walk,12319,,12319.0,20.0,2.0,6.0,2.0,-0.18,-0.015,-0.014,1.767,34.0,28.07,0.0,19.0,0.0,10.0,0.36,0.01,-1.0,-0.09,-0.11,-1.17,0.91,313.0,,,0.0,1.0,0.0,100.0
10340,1,walk,walk,12320,,12320.0,20.0,2.0,6.0,2.0,-0.19,-0.015,0.034,1.792,34.0,28.07,0.0,19.0,0.0,10.0,0.35,0.01,-1.0,-0.09,-0.12,-1.18,0.93,313.0,,,0.0,1.0,0.0,100.0
10360,1,walk,walk,12321,,12321.0,20.0,2.0,6.0,2.0,-0.19,-0.015,0.056,1.77,34.0,28.07,0.0,19.0,0.0,10.0,0.34,0.01,-1.0,-0.09,-0.13,-1.18,0.95,313.0,,,0.0,1.0,0.0,100.0
10380,1,walk,walk,12322,,12322.0,20.0,2.0,6.0,2.0,-0.19,-0.015,-0.032,1.775,34.0,28.07,0.0,19.0,0.0,10.0,0.33,0.01,-1.0,-0.09,-0.13,-1.19,0.96,313.0,,,0.0,1.0,0.0,100.0
10400,1,walk,walk,12323,,12323.0,20.0,2.0,6.0,2.0,-0.19,-0.015,-0.023,1.76,34.0,28.07,0.0,19.0,0.0,10.0,0.31,0.01,-1.0,-0.09,-0.13,-1.2,0.97,313.0,,,0.0,1.0,0.0,100.0
10420,1,walk,walk,12324,,12324.0,20.0,2.0,6.0,2.0,-0.2,-0.015,-0.01,1.769,34.0,28.07,0.0,19.0,0.0,10.0,0.3,0.01,-1.0,-0.09,-0.13,-1.2,0.97,313.0,,,0.0,1.0,0.0,100.0
10440,1,walk,walk,12325,,12325.0,20.0,2.0,6.0,2.0,-0.2,-0.015,0.009,1.774,34.0,28.07,0.0,19.0,0.0,10.0,0.29,0.01,-1.0,-0.09,-0.13,-1.2,0.97,313.0,,,0.0,1.0,0.0,100.0
10500,1,walk,walk,12326,,12326.0,20.0,2.0,6.0,2.0,-0.21,-0.015,-0.015,1.788,34.0,28.07,0.0,19.0,0.0,10.0,0.29,0.01,-1.0,-0.09,-0.13,-1.2,0.97,313.0,,,0.0,1.0,0.0,100.0
10500,1,walk,walk,12327,,12327.0,20.0,2.0,6.0,2.0,-0.21,-0.015,0.089,1.79,34.0,28.07,0.0,19.0,0.0,10.0,0.28,0.0,-1.0,-0.09,-0.13,-1.2,0.96,313.0,,,0.0,1.0,0.0,100.0
10520,1,walk,walk,12328,,12328.0,20.0,2.0,6.0,2.0,-0.22,-0.015,0.06,1.791,34.0,28.07,0.0,19.0,0.0,10.0,0.28,0.0,-1.0,-0.09,-0.13,-1.2,0.96,313.0,,,0.0,1.0,0.0,100.0
10540,1,walk,walk,12329,,12329.0,20.0,2.0,6.0,2.0,-0.22,-0.015,0.007,1.811,34.0,28.07,0.0,19.0,0.0,10.0,0.28,0.0,-1.0,-0.09,-0.12,-1.2,0.95,313.0,,,0.0,1.0,0.0,100.0
10540,1,walk,walk,12330,,12330.0,20.0,2.0,6.0,2.0,-0.23,-0.015,-0.048,1.775,34.0,28.07,0.0,19.0,0.0,10.0,0.28,0.0,-1.0,-0.09,-0.11,-1.19,0.94,313.0,,,0.0,1.0,0.0,100.0
10560,1,walk,walk,12331,,12331.0,20.0,2.0,6.0,2.0,-0.24,-0.015,-0.052,1.775,34.0,28.07,0.0,19.0,0.0,10.0,0.27,0.0,-1.0,-0.09,-0.1,-1.19,0.93,313.0,,,0.0,1.0,0.0,100.0
10600,1,walk,walk,12332,,12332.0,20.0,2.0,6.0,2.0,-0.24,-0.015,-0.037,1.799,34.0,28.11,0.0,19.0,0.0,10.0,0.27,0.0,-1.0,-0.09,-0.08,-1.2,0.93,313.0,,,0.0,1.0,0.0,100.0
10600,1,walk,walk,12333,,12333.0,20.0,2.0,6.0,2.0,-0.25,-0.015,0.052,1.785,34.0,28.11,0.0,19.0,0.0,10.0,0.27,0.0,-1.0,-0.09,-0.07,-1.2,0.93,313.0,,,0.0,1.0,0.0,100.0
10640,1,walk,walk,12334,,12334.0,20.0,2.0,6.0,2.0,-0.26,-0.015,-0.03,1.783,34.0,28.07,0.0,19.0,0.0,10.0,0.26,0.0,-1.0,-0.09,-0.05,-1.22,0.94,313.0,,,0.0,1.0,0.0,100.0
10660,1,walk,walk,12335,,12335.0,20.0,2.0,6.0,2.0,-0.26,-0.015,0.046,1.783,34.0,28.07,0.0,19.0,0.0,10.0,0.25,0.0,-1.0,-0.09,-0.03,-1.23,0.94,313.0,,,0.0,1.0,0.0,100.0
10660,1,walk,walk,12336,,12336.0,20.0,2.0,6.0,2.0,-0.27,-0.015,0.034,1.805,34.0,28.07,0.0,19.0,0.0,10.0,0.24,0.0,-1.0,-0.09,-0.01,-1.24,0.94,313.0,,,0.0,1.0,0.0,100.0
10680,1,walk,walk,12337,,12337.0,20.0,2.0,6.0,2.0,-0.28,-0.015,-0.049,1.788,34.0,28.07,0.0,19.0,0.0,10.0,0.23,0.0,-1.0,-0.09,0.01,-1.25,0.94,313.0,,,0.0,1.0,0.0,100.0
10700,1,walk,walk,12338,,12338.0,20.0,2.0,6.0,2.0,-0.28,-0.015,0.045,1.795,34.0,28.07,0.0,19.0,0.0,10.0,0.21,0.0,-1.0,-0.09,0.03,-1.25,0.93,313.0,,,0.0,1.0,0.0,100.0
10720,1,walk,walk,12339,,12339.0,20.0,2.0,6.0,2.0,-0.29,-0.015,-0.014,1.809,34.0,28.07,0.0,19.0,0.0,10.0,0.2,0.0,-1.0,-0.09,0.05,-1.25,0.92,313.0,,,0.0,1.0,0.0,100.0
10780,1,walk,walk,12340,,12340.0,20.0,2.0,6.0,2.0,-0.3,-0.015,-0.041,1.808,34.0,28.07,0.0,19.0,0.0,10.0,0.19,0.0,-1.0,-0.09,0.07,-1.25,0.9,313.0,,,0.0,1.0,0.0,100.0
10800,1,walk,walk,12341,,12341.0,20.0,2.0,6.0,2.0,-0.3,-0.015,-0.017,1.815,34.0,28.11,0.0,19.0,0.0,10.0,0.19,0.0,-1.0,-0.09,0.1,-1.24,0.87,313.0,,,0.0,1.0,0.0,100.0
10800,1,walk,walk,12342,,12342.0,20.0,2.0,6.0,2.0,-0.31,-0.015,-0.03,1.832,34.0,28.07,0.0,19.0,0.0,10.0,0.18,0.0,-1.0,-0.09,0.12,-1.22,0.85,313.0,,,0.0,1.0,0.0,100.0
10820,1,walk,walk,12343,,12343.0,20.0,2.0,6.0,2.0,-0.32,-0.015,-0.038,1.787,34.0,28.07,0.0,19.0,0.0,10.0,0.18,0.0,-1.0,-0.09,0.14,-1.21,0.82,313.0,,,0.0,1.0,0.0,100.0
10840,1,walk,walk,12344,,12344.0,20.0,2.0,6.0,2.0,-0.33,-0.015,0.058,1.784,34.0,28.07,0.0,19.0,0.0,10.0,0.17,0.0,-1.0,-0.09,0.16,-1.19,0.78,313.0,,,0.0,1.0,0.0,100.0
10840,1,walk,walk,12345,,12345.0,20.0,2.0,6.0,2.0,-0.33,-0.015,0.075,1.807,34.0,28.07,0.0,19.0,0.0,10.0,0.17,0.0,-1.0,-0.09,0.17,-1.17,0.75,313.0,,,0.0,1.0,0.0,100.0
10860,1,walk,walk,12346,,12346.0,20.0,2.0,6.0,2.0,-0.34,-0.015,-0.034,1.817,34.0,28.07,0.0,19.0,0.0,10.0,0.17,0.0,-1.0,-0.09,0.18,-1.16,0.71,313.0,,,0.0,1.0,0.0,100.0
10880,1,walk,walk,12347,,12347.0,20.0,2.0,6.0,2.0,-0.34,-0.015,-0.023,1.78,34.0,28.07,0.0,19.0,0.0,10.0,0.16,0.0,-1.0,-0.09,0.18,-1.14,0.68,313.0,,,0.0,1.0,0.0,100.0
10900,1,walk,walk,12348,,12348.0,20.0,2.0,6.0,2.0,-0.35,-0.015,0.07,1.775,34.0,28.07,0.0,19.0,0.0,10.0,0.16,0.0,-1.0,-0.09,0.19,-1.12,0.64,313.0,,,0.0,1.0,0.0,100.0
10920,1,walk,walk,12349,,12349.0,20.0,2.0,6.0,2.0,-0.36,-0.015,-0.013,1.802,34.0,28.07,0.0,19.0,0.0,10.0,0.17,0.0,-1.0,-0.09,0.19,-1.1,0.61,313.0,,,0.0,1.0,0.0,100.0
10980,1,walk,walk,12350,,12350.0,20.0,2.0,6.0,2.0,-0.36,-0.015,-0.057,1.767,34.0,28.07,0.0,19.0,0.0,10.0,0.17,0.0,-1.0,-0.09,0.18,-1.08,0.58,313.0,,,0.0,1.0,0.0,100.0
10980,1,walk,walk,12351,,12351.0,20.0,2.0,6.0,2.0,-0.37,-0.015,-0.069,1.789,34.0,28.07,0.0,19.0,0.0,10.0,0.17,0.0,-1.0,-0.09,0.18,-1.07,0.56,313.0,,,0.0,1.0,0.0,100.0
10980,1,walk,walk,12352,,12352.0,20.0,2.0,6.0,2.0,-0.37,-0.015,0.019,1.768,34.0,28.07,0.0,19.0,0.0,10.0,0.18,0.0,-1.0,-0.09,0.17,-1.06,0.55,313.0,,,0.0,1.0,0.0,100.0
11020,1,walk,walk,12353,,12353.0,20.0,2.0,6.0,2.0,-0.38,-0.015,0.002,1.781,34.0,28.07,0.0,19.0,0.0,10.0,0.18,0.0,-1.0,-0.09,0.17,-1.06,0.54,313.0,,,0.0,1.0,0.0,100.0
11040,1,walk,walk,12354,,12354.0,20.0,2.0,6.0,2.0,-0.38,-0.015,0.017,1.788,34.0,28.07,0.0,19.0,0.0,10.0,0.19,0.0,-1.0,-0.09,0.17,-1.06,0.53,313.0,,,0.0,1.0,0.0,100.0
11040,1,walk,walk,12355,,12355.0,20.0,2.0,6.0,2.0,-0.38,-0.015,-0.026,1.782,34.0,28.07,0.0,19.0,0.0,10.0,0.19,0.0,-1.0,-0.09,0.17,-1.06,0.53,313.0,,,0.0,1.0,0.0,100.0
11060,1,walk,walk,12356,,12356.0,20.0,2.0,6.0,2.0,-0.39,-0.015,0.073,1.805,34.0,28.07,0.0,19.0,0.0,10.0,0.2,0.0,-1.0,-0.09,0.19,-1.05,0.52,313.0,,,0.0,1.0,0.0,100.0
11080,1,walk,walk,12357,,12357.0,20.0,2.0,6.0,2.0,-0.39,-0.015,0.041,1.821,34.0,28.07,0.0,19.0,0.0,10.0,0.2,0.0,-1.0,-0.09,0.21,-1.05,0.51,313.0,,,0.0,1.0,0.0,100.0
11100,1,walk,walk,12358,,12358.0,20.0,2.0,6.0,2.0,-0.39,-0.015,-0.077,1.796,34.0,28.07,0.0,19.0,0.0,10.0,0.2,0.0,-1.0,-0.09,0.23,-1.06,0.51,313.0,,,0.0,1.0,0.0,100.0
11160,1,walk,walk,12359,,12359.0,20.0,2.0,6.0,2.0,-0.39,-0.015,0.013,1.794,34.0,28.07,0.0,19.0,0.0,10.0,0.2,0.0,-1.0,-0.09,0.26,-1.06,0.5,313.0,,,0.0,1.0,0.0,100.0
11180,1,walk,walk,12360,,12360.0,20.0,2.0,6.0,2.0,-0.39,-0.015,0.006,1.775,34.0,28.07,0.0,19.0,0.0,10.0,0.2,0.0,-1.0,-0.09,0.28,-1.06,0.49,313.0,,,0.0,1.0,0.0,100.0
11180,1,walk,walk,12361,,12361.0,20.0,2.0,6.0,2.0,-0.39,-0.015,0.04,1.789,34.0,28.07,0.0,19.0,0.0,10.0,0.2,0.0,-1.0,-0.09,0.3,-1.06,0.48,313.0,,,0.0,1.0,0.0,100.0
11200,1,walk,walk,12362,,12362.0,20.0,2.0,6.0,2.0,-0.39,-0.015,-0.023,1.768,34.0,28.11,0.0,19.0,0.0,10.0,0.2,0.0,-1.0,-0.09,0.32,-1.05,0.47,313.0,,,0.0,1.0,0.0,100.0
11200,1,walk,walk,12363,,12363.0,20.0,2.0,6.0,2.0,-0.39,-0.015,0.029,1.765,34.0,28.07,0.0,19.0,0.0,10.0,0.2,0.0,-1.0,-0.09,0.34,-1.05,0.46,313.0,,,0.0,1.0,0.0,100.0
11220,1,walk,walk,12364,,12364.0,20.0,2.0,6.0,2.0,-0.39,-0.015,0.002,1.794,34.0,28.07,0.0,19.0,0.0,10.0,0.2,0.0,-1.0,-0.09,0.35,-1.04,0.45,313.0,,,0.0,1.0,0.0,100.0
11240,1,walk,walk,12365,,12365.0,20.0,2.0,6.0,2.0,-0.39,-0.015,-0.057,1.806,34.0,28.11,0.0,19.0,0.0,10.0,0.2,0.0,-1.0,-0.09,0.35,-1.03,0.44,313.0,,,0.0,1.0,0.0,100.0
11280,1,walk,walk,12366,,12366.0,20.0,2.0,6.0,2.0,-0.39,-0.015,0.064,1.754,34.0,28.07,0.0,19.0,0.0,10.0,0.21,0.0,-1.0,-0.09,0.36,-1.03,0.43,313.0,,,0.0,1.0,0.0,100.0
11300,1,walk,walk,12367,,12367.0,20.0,2.0,6.0,2.0,-0.39,-0.015,0.038,1.762,34.0,28.07,0.0,19.0,0.0,10.0,0.21,0.0,-1.0,-0.09,0.36,-1.02,0.43,313.0,,,0.0,1.0,0.0,100.0
11320,1,walk,walk,12368,,12368.0,20.0,2.0,6.0,2.0,-0.39,-0.015,0.033,1.785,34.0,28.07,0.0,19.0,0.0,10.0,0.22,0.0,-1.0,-0.09,0.36,-1.01,0.43,313.0,,,0.0,1.0,0.0,100.0
11320,1,walk,walk,12369,,12369.0,20.0,2.0,6.0,2.0,-0.39,-0.015,0.049,1.802,34.0,28.07,0.0,19.0,0.0,10.0,0.23,0.0,-1.0,-0.09,0.36,-1.01,0.44,313.0,,,0.0,1.0,0.0,100.0
11340,1,walk,walk,12370,,12370.0,20.0,2.0,6.0,2.0,-0.38,-0.015,0.069,1.792,34.0,28.07,0.0,19.0,0.0,10.0,0.23,0.0,-1.0,-0.09,0.36,-1.0,0.45,313.0,,,0.0,1.0,0.0,100.0
11360,1,walk,walk,12371,,12371.0,20.0,2.0,6.0,2.0,-0.38,-0.015,-0.023,1.794,34.0,28.11,0.0,19.0,0.0,10.0,0.24,0.0,-1.0,-0.09,0.36,-1.0,0.46,313.0,,,0.0,1.0,0.0,100.0
11380,1,walk,walk,12372,,12372.0,20.0,2.0,6.0,2.0,-0.38,-0.015,-0.021,1.773,34.0,28.07,0.0,19.0,0.0,10.0,0.24,0.0,-1.0,-0.09,0.36,-0.99,0.47,313.0,,,0.0,1.0,0.0,100.0
11400,1,walk,walk,12373,,12373.0,20.0,2.0,6.0,2.0,-0.38,-0.015,-0.001,1.778,34.0,28.07,0.0,19.0,0.0,10.0,0.25,0.0,-1.0,-0.09,0.36,-0.99,0.49,313.0,,,0.0,1.0,0.0,100.0
11460,1,walk,walk,12374,,12374.0,20.0,2.0,6.0,2.0,-0.38,-0.015,0.006,1.786,34.0,28.07,0.0,19.0,0.0,10.0,0.25,0.0,-1.0,-0.09,0.37,-0.99,0.51,313.0,,,0.0,1.0,0.0,100.0
11460,1,walk,walk,12375,,12375.0,20.0,2.0,6.0,2.0,-0.37,-0.015,0.04,1.782,34.0,28.07,0.0,19.0,0.0,10.0,0.25,0.0,-1.0,-0.09,0.39,-1.0,0.53,313.0,,,0.0,1.0,0.0,100.0
11480,1,walk,walk,12376,,12376.0,20.0,2.0,6.0,2.0,-0.37,-0.015,0.05,1.789,34.0,28.07,0.0,19.0,0.0,10.0,0.25,0.0,-1.0,-0.09,0.41,-1.01,0.55,313.0,,,0.0,1.0,0.0,100.0
11500,1,walk,walk,12377,,12377.0,20.0,2.0,6.0,2.0,-0.37,-0.015,-0.065,1.784,34.0,28.07,0.0,19.0,0.0,10.0,0.25,0.0,-1.0,-0.09,0.43,-1.02,0.58,313.0,,,0.0,1.0,0.0,100.0
11500,1,walk,walk,12378,,12378.0,20.0,2.0,6.0,2.0,-0.37,-0.015,0.033,1.782,34.0,28.07,0.0,19.0,0.0,10.0,0.24,0.0,-1.0,-0.09,0.45,-1.02,0.59,313.0,,,0.0,1.0,0.0,100.0
11520,1,walk,walk,12379,,12379.0,20.0,2.0,6.0,2.0,-0.36,-0.015,0.029,1.79,34.0,28.07,0.0,19.0,0.0,10.0,0.24,0.0,-1.0,-0.09,0.47,-1.03,0.61,313.0,,,0.0,1.0,0.0,100.0
11540,1,walk,walk,12380,,12380.0,20.0,2.0,6.0,2.0,-0.36,-0.015,0.028,1.802,34.0,28.11,0.0,19.0,0.0,10.0,0.23,0.0,-1.0,-0.09,0.5,-1.03,0.62,313.0,,,0.0,1.0,0.0,100.0
11560,1,walk,walk,12381,,12381.0,20.0,2.0,6.0,2.0,-0.36,-0.015,0.056,1.8,34.0,28.07,0.0,19.0,0.0,10.0,0.22,0.0,-1.0,-0.09,0.52,-1.03,0.62,313.0,,,0.0,1.0,0.0,100.0
11580,1,walk,walk,12382,,12382.0,20.0,2.0,6.0,2.0,-0.36,-0.015,0.001,1.796,34.0,28.07,0.0,19.0,0.0,10.0,0.21,0.0,-1.0,-0.09,0.53,-1.03,0.61,313.0,,,0.0,1.0,0.0,100.0
11620,1,walk,walk,12383,,12383.0,20.0,2.0,6.0,2.0,-0.36,-0.015,0.096,1.793,34.0,28.07,0.0,19.0,0.0,10.0,0.2,0.0,-1.0,-0.09,0.54,-1.02,0.59,313.0,,,0.0,1.0,0.0,100.0
11620,1,walk,walk,12384,,12384.0,20.0,2.0,6.0,2.0,-0.35,-0.015,-0.001,1.79,34.0,28.07,0.0,19.0,0.0,10.0,0.19,0.0,-1.0,-0.09,0.55,-1.02,0.57,313.0,,,0.0,1.0,0.0,100.0
11640,1,walk,walk,12385,,12385.0,20.0,2.0,6.0,2.0,-0.35,-0.015,0.033,1.792,34.0,28.07,0.0,19.0,0.0,10.0,0.19,0.0,-1.0,-0.09,0.56,-1.01,0.55,313.0,,,0.0,1.0,0.0,100.0
11660,1,walk,walk,12386,,12386.0,20.0,2.0,6.0,2.0,-0.35,-0.015,0.026,1.783,34.0,28.07,0.0,19.0,0.0,10.0,0.19,0.0,-1.0,-0.09,0.57,-1.0,0.54,313.0,,,0.0,1.0,0.0,100.0
11680,1,walk,walk,12387,,12387.0,20.0,2.0,6.0,2.0,-0.35,-0.015,-0.002,1.782,34.0,28.07,0.0,19.0,0.0,10.0,0.19,0.0,-1.0,-0.09,0.58,-0.99,0.53,313.0,,,0.0,1.0,0.0,100.0
11700,1,walk,walk,12388,,12388.0,20.0,2.0,6.0,2.0,-0.35,-0.015,0.019,1.778,34.0,28.07,0.0,19.0,0.0,10.0,0.2,0.0,-1.0,-0.09,0.58,-0.98,0.52,313.0,,,0.0,1.0,0.0,100.0
11720,1,walk,walk,12389,,12389.0,20.0,2.0,6.0,2.0,-0.35,-0.015,-0.038,1.791,34.0,28.07,0.0,19.0,0.0,10.0,0.2,0.0,-1.0,-0.09,0.58,-0.98,0.52,313.0,,,0.0,1.0,0.0,100.0
11760,1,walk,walk,12390,,12390.0,20.0,2.0,6.0,2.0,-0.35,-0.015,0.003,1.77,34.0,28.07,0.0,19.0,0.0,10.0,0.21,0.0,-1.0,-0.09,0.58,-0.98,0.53,313.0,,,0.0,1.0,0.0,100.0
11780,1,walk,walk,12391,,12391.0,20.0,2.0,6.0,2.0,-0.35,-0.015,-0.017,1.777,34.0,28.07,0.0,19.0,0.0,10.0,0.21,0.0,-1.0,-0.09,0.57,-0.99,0.53,313.0,,,0.0,1.0,0.0,100.0
11800,1,walk,walk,12392,,12392.0,20.0,2.0,6.0,2.0,-0.35,-0.015,0.088,1.799,34.0,28.07,0.0,19.0,0.0,10.0,0.21,0.0,-1.0,-0.09,0.56,-0.99,0.52,313.0,,,0.0,1.0,0.0,100.0
11800,1,walk,walk,12393,,12393.0,20.0,2.0,6.0,2.0,-0.35,-0.015,-0.056,1.765,34.0,28.07,0.0,19.0,0.0,10.0,0.22,0.0,-1.0,-0.09,0.54,-1.0,0.5,313.0,,,0.0,1.0,0.0,100.0
11820,1,walk,walk,12394,,12394.0,20.0,2.0,6.0,2.0,-0.35,-0.015,0.038,1.76,34.0,28.07,0.0,19.0,0.0,10.0,0.22,0.0,-1.0,-0.09,0.53,-1.01,0.47,313.0,,,0.0,1.0,0.0,100.0
11840,1,walk,walk,12395,,12395.0,20.0,2.0,6.0,2.0,-0.35,-0.015,0.038,1.755,34.0,28.07,0.0,19.0,0.0,10.0,0.23,0.0,-1.0,-0.09,0.5,-1.01,0.44,313.0,,,0.0,1.0,0.0,100.0
11860,1,walk,walk,12396,,12396.0,20.0,2.0,6.0,2.0,-0.35,-0.015,0.036,1.771,34.0,28.07,0.0,19.0,0.0,10.0,0.24,0.0,-1.0,-0.09,0.48,-1.02,0.41,313.0,,,0.0,1.0,0.0,100.0
11880,1,walk,walk,12397,,12397.0,20.0,2.0,6.0,2.0,-0.35,-0.015,0.041,1.781,34.0,28.07,0.0,19.0,0.0,10.0,0.25,0.0,-1.0,-0.09,0.44,-1.02,0.39,313.0,,,0.0,1.0,0.0,100.0
11940,1,walk,walk,12398,,12398.0,20.0,2.0,6.0,2.0,-0.34,-0.015,0.046,1.741,34.0,28.07,0.0,19.0,0.0,10.0,0.26,0.0,-1.0,-0.09,0.41,-1.02,0.39,313.0,,,0.0,1.0,0.0,100.0
11940,1,walk,walk,12399,,12399.0,20.0,2.0,6.0,2.0,-0.34,-0.015,-0.04,1.775,34.0,28.07,0.0,19.0,0.0,10.0,0.27,0.0,-1.0,-0.09,0.37,-1.02,0.39,313.0,,,0.0,1.0,0.0,100.0
11940,1,walk,walk,12400,,12400.0,20.0,2.0,6.0,2.0,-0.34,-0.015,-0.019,1.792,34.0,28.07,0.0,19.0,0.0,10.0,0.28,0.0,-1.0,-0.09,0.34,-1.02,0.39,313.0,,,0.0,1.0,0.0,100.0
11980,1,walk,walk,12401,,12401.0,20.0,2.0,6.0,2.0,-0.34,-0.015,-0.003,1.722,34.0,28.07,0.0,19.0,0.0,10.0,0.28,0.0,-1.0,-0.09,0.31,-1.02,0.4,313.0,,,0.0,1.0,0.0,100.0
11980,1,walk,walk,12402,,12402.0,20.0,2.0,6.0,2.0,-0.34,-0.015,0.045,1.775,34.0,28.07,0.0,19.0,0.0,10.0,0.28,0.0,-1.0,-0.09,0.29,-1.01,0.41,313.0,,,0.0,1.0,0.0,100.0
12000,1,walk,walk,12403,,12403.0,20.0,2.0,6.0,2.0,-0.34,-0.015,-0.023,1.778,34.0,28.07,0.0,19.0,0.0,10.0,0.29,0.01,-1.0,-0.09,0.28,-1.01,0.42,313.0,,,0.0,1.0,0.0,100.0
12020,1,walk,walk,12404,,12404.0,20.0,2.0,6.0,2.0,-0.33,-0.015,-0.003,1.792,34.0,28.07,0.0,19.0,0.0,10.0,0.29,0.01,-1.0,-0.09,0.27,-1.0,0.44,313.0,,,0.0,1.0,0.0,100.0
12040,1,walk,walk,12405,,12405.0,20.0,2.0,6.0,2.0,-0.33,-0.015,-0.026,1.767,34.0,28.07,0.0,19.0,0.0,10.0,0.3,0.01,-1.0,-0.09,0.25,-1.0,0.46,313.0,,,0.0,1.0,0.0,100.0
12060,1,walk,walk,12406,,12406.0,20.0,2.0,6.0,2.0,-0.33,-0.015,0.062,1.777,34.0,28.11,0.0,19.0,0.0,10.0,0.3,0.01,-1.0,-0.09,0.23,-1.0,0.49,313.0,,,0.0,1.0,0.0,100.0
12100,1,walk,walk,12407,,12407.0,20.0,2.0,6.0,2.0,-0.33,-0.015,-0.062,1.786,34.0,28.07,0.0,19.0,0.0,10.0,0.31,0.01,-1.0,-0.09,0.21,-1.01,0.52,313.0,,,0.0,1.0,0.0,100.0
12120,1,walk,walk,12408,,12408.0,20.0,2.0,6.0,2.0,-0.32,-0.015,-0.054,1.79,34.0,28.07,0.0,19.0,0.0,10.0,0.31,0.01,-1.0,-0.09,0.18,-1.02,0.55,313.0,,,0.0,1.0,0.0,100.0
12120,1,walk,walk,12409,,12409.0,20.0,2.0,6.0,2.0,-0.32,-0.015,0.003,1.794,34.0,28.07,0.0,19.0,0.0,10.0,0.32,0.01,-1.0,-0.09,0.16,-1.03,0.59,313.0,,,0.0,1.0,0.0,100.0
12140,1,walk,walk,12410,,12410.0,20.0,2.0,6.0,2.0,-0.32,-0.015,0.065,1.791,34.0,28.07,0.0,19.0,0.0,10.0,0.32,0.01,-1.0,-0.09,0.13,-1.04,0.63,313.0,,,0.0,1.0,0.0,100.0
12160,1,walk,walk,12411,,12411.0,20.0,2.0,6.0,2.0,-0.32,-0.015,0.007,1.77,34.0,28.07,0.0,19.0,0.0,10.0,0.32,0.01,-1.0,-0.09,0.1,-1.06,0.67,313.0,,,0.0,1.0,0.0,100.0
12200,1,walk,walk,12412,,12412.0,20.0,2.0,6.0,2.0,-0.31,-0.015,-0.119,1.781,34.0,28.07,0.0,19.0,0.0,10.0,0.32,0.01,-1.0,-0.09,0.08,-1.07,0.7,313.0,,,0.0,1.0,0.0,100.0
12220,1,walk,walk,12413,,12413.0,20.0,2.0,6.0,2.0,-0.31,-0.015,-0.088,1.774,34.0,28.07,0.0,19.0,0.0,10.0,0.31,0.01,-1.0,-0.09,0.06,-1.09,0.73,313.0,,,0.0,1.0,0.0,100.0
12240,1,walk,walk,12414,,12414.0,20.0,2.0,6.0,2.0,-0.31,-0.015,-0.013,1.786,34.0,28.07,0.0,19.0,0.0,10.0,0.31,0.01,-1.0,-0.09,0.05,-1.1,0.74,313.0,,,0.0,1.0,0.0,100.0
12260,1,walk,walk,12415,,12415.0,20.0,2.0,6.0,2.0,-0.31,-0.015,0.018,1.8,34.0,28.07,0.0,19.0,0.0,10.0,0.3,0.01,-1.0,-0.09,0.04,-1.12,0.75,313.0,,,0.0,1.0,0.0,100.0
12260,1,walk,walk,12416,,12416.0,20.0,2.0,6.0,2.0,-0.3,-0.015,-0.041,1.784,34.0,28.07,0.0,19.0,0.0,10.0,0.29,0.01,-1.0,-0.09,0.03,-1.13,0.76,313.0,,,0.0,1.0,0.0,100.0
12280,1,walk,walk,12417,,12417.0,20.0,2.0,6.0,2.0,-0.3,-0.015,-0.018,1.767,34.0,28.07,0.0,19.0,0.0,10.0,0.29,0.01,-1.0,-0.09,0.02,-1.14,0.77,313.0,,,0.0,1.0,0.0,100.0
12300,1,walk,walk,12418,,12418.0,20.0,2.0,6.0,2.0,-0.3,-0.015,0.022,1.796,34.0,28.07,0.0,19.0,0.0,10.0,0.28,0.0,-1.0,-0.09,0.02,-1.15,0.77,313.0,,,0.0,1.0,0.0,100.0
12320,1,walk,walk,12419,,12419.0,20.0,2.0,6.0,2.0,-0.3,-0.015,0.061,1.79,34.0,28.07,0.0,19.0,0.0,10.0,0.27,0.0,-1.0,-0.09,0.0,-1.16,0.78,313.0,,,0.0,1.0,0.0,100.0
12340,1,walk,walk,12420,,12420.0,20.0,2.0,6.0,2.0,-0.3,-0.015,0.003,1.791,34.0,28.07,0.0,19.0,0.0,10.0,0.27,0.0,-1.0,-0.09,-0.01,-1.17,0.8,313.0,,,0.0,1.0,0.0,100.0
12360,1,walk,walk,12421,,12421.0,20.0,2.0,6.0,2.0,-0.3,-0.015,-0.084,1.794,34.0,28.07,0.0,19.0,0.0,10.0,0.26,0.0,-1.0,-0.09,-0.02,-1.18,0.82,313.0,,,0.0,1.0,0.0,100.0
12420,1,walk,walk,12422,,12422.0,20.0,2.0,6.0,2.0,-0.3,-0.015,-0.005,1.784,34.0,28.07,0.0,19.0,0.0,10.0,0.25,0.0,-1.0,-0.09,-0.02,-1.19,0.85,313.0,,,0.0,1.0,0.0,100.0
12420,1,walk,walk,12423,,12423.0,20.0,2.0,6.0,2.0,-0.31,-0.015,0.034,1.822,34.0,28.07,0.0,19.0,0.0,10.0,0.24,0.0,-1.0,-0.09,-0.03,-1.2,0.88,313.0,,,0.0,1.0,0.0,100.0
12440,1,walk,walk,12424,,12424.0,20.0,2.0,6.0,2.0,-0.31,-0.015,0.04,1.806,34.0,28.07,0.0,19.0,0.0,10.0,0.24,0.0,-1.0,-0.09,-0.02,-1.2,0.9,313.0,,,0.0,1.0,0.0,100.0
12460,1,walk,walk,12425,,12425.0,20.0,2.0,6.0,2.0,-0.31,-0.015,0.05,1.828,34.0,28.07,0.0,19.0,0.0,10.0,0.22,0.0,-1.0,-0.09,-0.01,-1.21,0.92,313.0,,,0.0,1.0,0.0,100.0
12460,1,walk,walk,12426,,12426.0,20.0,2.0,6.0,2.0,-0.31,-0.015,0.006,1.826,34.0,28.07,0.0,19.0,0.0,10.0,0.21,0.0,-1.0,-0.09,0.01,-1.21,0.94,313.0,,,0.0,1.0,0.0,100.0
12480,1,walk,walk,12427,,12427.0,20.0,2.0,6.0,2.0,-0.31,-0.015,-0.06,1.83,34.0,28.07,0.0,19.0,0.0,10.0,0.2,0.0,-1.0,-0.09,0.03,-1.2,0.95,313.0,,,0.0,1.0,0.0,100.0
12500,1,walk,walk,12428,,12428.0,20.0,2.0,6.0,2.0,-0.32,-0.015,0.065,1.874,34.0,28.07,0.0,19.0,0.0,10.0,0.18,0.0,-1.0,-0.09,0.06,-1.19,0.95,313.0,,,0.0,1.0,0.0,100.0
12520,1,walk,walk,12429,,12429.0,20.0,2.0,6.0,2.0,-0.32,-0.015,-0.045,1.833,34.0,28.07,0.0,19.0,0.0,10.0,0.16,0.0,-1.0,-0.09,0.08,-1.17,0.94,313.0,,,0.0,1.0,0.0,100.0
12540,1,walk,walk,12430,,12430.0,20.0,2.0,6.0,2.0,-0.33,-0.015,-0.019,1.838,34.0,28.07,0.0,19.0,0.0,10.0,0.15,0.0,-1.0,-0.09,0.1,-1.15,0.92,313.0,,,0.0,1.0,0.0,100.0
12580,1,walk,walk,12431,,12431.0,20.0,2.0,6.0,2.0,-0.33,-0.015,0.042,1.819,34.0,28.07,0.0,19.0,0.0,10.0,0.14,0.0,-1.0,-0.09,0.12,-1.13,0.91,313.0,,,0.0,1.0,0.0,100.0
12580,1,walk,walk,12432,,12432.0,20.0,2.0,6.0,2.0,-0.33,-0.015,0.04,1.831,34.0,28.07,0.0,19.0,0.0,10.0,0.13,0.0,-1.0,-0.09,0.13,-1.12,0.89,313.0,,,0.0,1.0,0.0,100.0
12600,1,walk,walk,12433,,12433.0,20.0,2.0,6.0,2.0,-0.34,-0.015,0.01,1.848,34.0,28.07,0.0,19.0,0.0,10.0,0.13,0.0,-1.0,-0.09,0.14,-1.11,0.87,313.0,,,0.0,1.0,0.0,100.0
12640,1,walk,walk,12434,,12434.0,20.0,2.0,6.0,2.0,-0.35,-0.015,0.053,1.843,34.0,28.07,0.0,19.0,0.0,10.0,0.12,0.0,-1.0,-0.09,0.14,-1.12,0.86,313.0,,,0.0,1.0,0.0,100.0
12640,1,walk,walk,12435,,12435.0,20.0,2.0,6.0,2.0,-0.35,-0.015,-0.046,1.861,34.0,28.07,0.0,19.0,0.0,10.0,0.12,0.0,-1.0,-0.09,0.13,-1.12,0.86,313.0,,,0.0,1.0,0.0,100.0
12660,1,walk,walk,12436,,12436.0,20.0,2.0,6.0,2.0,-0.36,-0.015,0.054,1.84,34.0,28.07,0.0,19.0,0.0,10.0,0.12,0.0,-1.0,-0.09,0.13,-1.13,0.85,313.0,,,0.0,1.0,0.0,100.0
12680,1,walk,walk,12437,,12437.0,20.0,2.0,6.0,2.0,-0.36,-0.015,-0.038,1.85,34.0,28.07,0.0,19.0,0.0,10.0,0.12,0.0,-1.0,-0.09,0.13,-1.15,0.86,313.0,,,0.0,1.0,0.0,100.0
12720,1,walk,walk,12438,,12438.0,20.0,2.0,6.0,2.0,-0.37,-0.016,-0.045,1.858,34.0,28.07,0.0,19.0,0.0,10.0,0.12,0.0,-1.0,-0.09,0.14,-1.16,0.87,313.0,,,0.0,1.0,0.0,100.0
12740,1,walk,walk,12439,,12439.0,20.0,2.0,6.0,2.0,-0.38,-0.016,0.001,1.909,34.0,28.07,0.0,19.0,0.0,10.0,0.12,0.0,-1.0,-0.09,0.14,-1.18,0.89,313.0,,,0.0,1.0,0.0,100.0
12740,1,walk,walk,12440,,12440.0,20.0,2.0,6.0,2.0,-0.38,-0.016,-0.087,1.896,34.0,28.07,0.0,19.0,0.0,10.0,0.12,0.0,-1.0,-0.09,0.15,-1.18,0.91,313.0,,,0.0,1.0,0.0,100.0
12760,1,walk,walk,12441,,12441.0,20.0,2.0,6.0,2.0,-0.39,-0.016,0.013,1.923,34.0,28.07,0.0,19.0,0.0,10.0,0.11,0.0,-1.0,-0.09,0.17,-1.18,0.94,313.0,,,0.0,1.0,0.0,100.0
12780,1,walk,walk,12442,,12442.0,20.0,2.0,6.0,2.0,-0.4,-0.016,-0.075,1.886,34.0,28.07,0.0,19.0,0.0,10.0,0.11,0.0,-1.0,-0.09,0.19,-1.17,0.96,313.0,,,0.0,1.0,0.0,100.0
12820,1,walk,walk,12443,,12443.0,20.0,2.0,6.0,2.0,-0.4,-0.016,-0.04,1.888,34.0,28.07,0.0,19.0,0.0,10.0,0.1,0.0,-1.0,-0.09,0.22,-1.15,0.99,313.0,,,0.0,1.0,0.0,100.0
12820,1,walk,walk,12444,,12444.0,20.0,2.0,6.0,2.0,-0.41,-0.016,0.056,1.936,34.0,28.07,0.0,19.0,0.0,10.0,0.09,0.0,-1.0,-0.09,0.25,-1.13,1.0,313.0,,,0.0,1.0,0.0,100.0
12860,1,walk,walk,12445,,12445.0,20.0,2.0,6.0,2.0,-0.41,-0.016,-0.068,1.924,34.0,28.07,0.0,19.0,0.0,10.0,0.08,0.0,-1.0,-0.09,0.29,-1.12,1.01,313.0,,,0.0,1.0,0.0,100.0
12880,1,walk,walk,12446,,12446.0,20.0,2.0,6.0,2.0,-0.42,-0.016,-0.028,1.881,34.0,28.07,0.0,19.0,0.0,10.0,0.07,0.0,-1.0,-0.09,0.32,-1.11,1.01,313.0,,,0.0,1.0,0.0,100.0
12900,1,walk,walk,12447,,12447.0,20.0,2.0,6.0,2.0,-0.43,-0.016,-0.01,1.958,34.0,28.07,0.0,19.0,0.0,10.0,0.07,0.0,-1.0,-0.09,0.35,-1.11,1.0,313.0,,,0.0,1.0,0.0,100.0
12900,1,walk,walk,12448,,12448.0,20.0,2.0,6.0,2.0,-0.44,-0.016,-0.019,1.909,34.0,28.07,0.0,19.0,0.0,10.0,0.06,0.0,-1.0,-0.09,0.36,-1.12,1.0,313.0,,,0.0,1.0,0.0,100.0
12920,1,walk,walk,12449,,12449.0,20.0,2.0,6.0,2.0,-0.44,-0.016,-0.041,1.94,34.0,28.07,0.0,19.0,0.0,10.0,0.06,0.0,-1.0,-0.09,0.37,-1.13,1.03,313.0,,,0.0,1.0,0.0,100.0
12940,1,walk,walk,12450,,12450.0,20.0,2.0,6.0,2.0,-0.45,-0.016,-0.08,1.938,34.0,28.07,0.0,19.0,0.0,10.0,0.06,0.0,-1.0,-0.09,0.35,-1.16,1.08,313.0,,,0.0,1.0,0.0,100.0
12960,1,walk,walk,12451,,12451.0,20.0,2.0,6.0,2.0,-0.46,-0.017,0.015,2.007,34.0,28.07,0.0,19.0,0.0,10.0,0.07,0.0,-1.0,-0.09,0.31,-1.21,1.17,313.0,,,0.0,1.0,0.0,100.0
12980,1,walk,walk,12452,,12452.0,20.0,2.0,6.0,2.0,-0.46,-0.017,0.044,2.051,34.0,28.07,0.0,19.0,0.0,10.0,0.08,0.0,-1.0,-0.09,0.25,-1.26,1.3,313.0,,,0.0,1.0,0.0,100.0
13000,1,walk,walk,12453,,12453.0,20.0,2.0,6.0,2.0,-0.47,-0.017,-0.015,2.136,34.0,28.07,0.0,19.0,0.0,10.0,0.1,0.0,-1.0,-0.09,0.16,-1.32,1.49,313.0,,,0.0,1.0,0.0,100.0
13020,1,walk,walk,12454,,12454.0,20.0,2.0,6.0,2.0,-0.48,-0.018,-0.036,2.231,34.0,28.07,0.0,19.0,0.0,10.0,0.13,0.0,-1.0,-0.09,0.03,-1.39,1.75,313.0,,,0.0,1.0,0.0,100.0
13060,1,walk,walk,12455,,12455.0,20.0,2.0,6.0,2.0,-0.49,-0.019,-0.144,2.37,34.0,28.04,0.0,19.0,0.0,10.0,0.17,0.0,-1.0,-0.09,-0.12,-1.47,2.12,313.0,,,0.0,1.0,0.0,100.0
13080,1,walk,walk,12456,,12456.0,20.0,2.0,6.0,2.0,-0.5,-0.021,-0.164,2.575,34.0,28.04,0.0,19.0,0.0,10.0,0.2,0.0,-1.0,-0.09,-0.28,-1.57,2.61,313.0,,,0.0,1.0,0.0,100.0
13080,1,walk,walk,12457,,12457.0,20.0,2.0,6.0,2.0,-0.51,-0.023,-0.197,2.831,34.0,28.0,0.0,19.0,0.0,10.0,0.22,0.0,-1.0,-0.09,-0.44,-1.7,3.24,313.0,,,0.0,1.0,0.0,100.0
13100,1,walk,walk,12458,,12458.0,20.0,2.0,6.0,2.0,-0.52,-0.024,-0.001,2.885,34.0,27.97,0.0,19.0,0.0,10.0,0.2,0.0,-1.0,-0.09,-0.58,-1.84,3.97,313.0,,,0.0,1.0,0.0,100.0
13120,1,walk,walk,12459,,12459.0,20.0,2.0,6.0,2.0,-0.54,-0.025,-0.002,3.01,34.0,27.97,0.0,19.0,0.0,10.0,0.15,0.0,-1.0,-0.09,-0.71,-2.0,4.73,313.0,,,0.0,1.0,0.0,100.0
13140,1,walk,walk,12460,,12460.0,20.0,2.0,6.0,2.0,-0.55,-0.025,-0.011,3.042,34.0,27.97,0.0,19.0,0.0,10.0,0.03,0.0,-1.0,-0.09,-0.81,-2.16,5.44,313.0,,,0.0,1.0,0.0,100.0
13160,1,walk,walk,12461,,12461.0,20.0,2.0,6.0,2.0,-0.57,-0.025,-0.056,3.07,34.0,27.97,0.0,19.0,0.0,10.0,-0.13,0.0,-1.0,-0.09,-0.89,-2.3,6.02,313.0,,,0.0,1.0,0.0,100.0
13220,1,walk,walk,12462,,12462.0,20.0,2.0,6.0,2.0,-0.6,-0.025,0.04,3.02,34.0,27.97,0.0,19.0,0.0,10.0,-0.33,-0.01,-1.0,-0.09,-0.93,-2.39,6.4,313.0,,,0.0,1.0,0.0,100.0
13220,1,walk,walk,12463,,12463.0,20.0,2.0,6.0,2.0,-0.63,-0.025,0.001,2.995,34.0,27.97,0.0,18.0,0.0,10.0,-0.55,-0.01,-1.0,-0.09,-0.92,-2.44,6.55,313.0,,,0.0,1.0,0.0,100.0
13240,1,walk,walk,12464,,12464.0,20.0,2.0,6.0,2.0,-0.67,-0.025,-0.018,3.046,34.0,27.97,0.0,18.0,0.0,10.0,-0.78,-0.01,-1.0,-0.09,-0.84,-2.44,6.47,313.0,,,0.0,1.0,0.0,100.0
13240,1,walk,walk,12465,,12465.0,20.0,2.0,6.0,2.0,-0.71,-0.025,-0.028,3.039,34.0,27.97,0.0,18.0,0.0,10.0,-1.0,-0.02,-1.0,-0.09,-0.69,-2.4,6.16,313.0,,,0.0,1.0,0.0,100.0
13260,1,walk,walk,12466,,12466.0,20.0,2.0,6.0,2.0,-0.76,-0.025,-0.076,2.947,34.0,27.97,0.0,18.0,0.0,10.0,-1.21,-0.02,-1.0,-0.09,-0.47,-2.32,5.68,313.0,,,0.0,1.0,0.0,100.0
13280,1,walk,walk,12467,,12467.0,20.0,2.0,6.0,2.0,-0.82,-0.025,0.015,2.997,34.0,27.97,0.0,18.0,0.0,10.0,-1.38,-0.02,-1.0,-0.09,-0.16,-2.21,5.06,313.0,,,0.0,1.0,0.0,100.0
13320,1,walk,walk,12468,,12468.0,20.0,2.0,6.0,2.0,-0.89,-0.024,0.049,2.921,34.0,27.97,0.0,18.0,0.0,10.0,-1.53,-0.03,-1.0,-0.1,0.23,-2.08,4.35,313.0,,,0.0,1.0,0.0,100.0
13340,1,walk,walk,12469,,12469.0,20.0,2.0,6.0,2.0,-0.95,-0.024,-0.037,2.914,34.0,27.97,0.0,18.0,0.0,10.0,-1.64,-0.03,-1.0,-0.1,0.7,-1.93,3.58,313.0,,,0.0,1.0,0.0,100.0
13360,1,walk,walk,12470,,12470.0,20.0,2.0,6.0,2.0,-1.03,-0.024,0.013,2.907,34.0,27.97,0.0,18.0,0.0,10.0,-1.71,-0.03,-1.0,-0.1,1.23,-1.79,2.81,313.0,,,0.0,1.0,0.0,100.0
13400,1,walk,walk,12471,,12471.0,20.0,2.0,6.0,2.0,-1.1,-0.024,-0.056,2.893,34.0,27.97,0.0,18.0,0.0,10.0,-1.74,-0.03,-1.0,-0.1,1.8,-1.66,2.07,313.0,,,0.0,1.0,0.0,100.0
13400,1,walk,walk,12472,,12472.0,20.0,2.0,6.0,2.0,-1.18,-0.024,-0.025,2.924,34.0,27.97,0.0,18.0,0.0,10.0,-1.75,-0.03,-1.0,-0.1,2.4,-1.54,1.41,313.0,,,0.0,1.0,0.0,100.0
13420,1,walk,walk,12473,,12473.0,20.0,2.0,6.0,2.0,-1.26,-0.024,0.022,2.877,34.0,27.97,0.0,18.0,0.0,10.0,-1.72,-0.03,-1.0,-0.1,3.0,-1.46,0.84,313.0,,,0.0,1.0,0.0,100.0
13420,1,walk,walk,12474,,12474.0,20.0,2.0,6.0,2.0,-1.34,-0.025,-0.042,2.941,34.0,27.97,0.0,18.0,0.0,10.0,-1.68,-0.03,-1.0,-0.09,3.6,-1.4,0.38,313.0,,,0.0,1.0,0.0,100.0
13440,1,walk,walk,12475,,12475.0,20.0,2.0,6.0,2.0,-1.41,-0.025,0.021,2.961,34.0,27.97,0.0,18.0,0.0,10.0,-1.64,-0.03,-1.0,-0.09,4.21,-1.37,0.0,313.0,,,0.0,1.0,0.0,100.0
13480,1,walk,walk,12476,,12476.0,20.0,2.0,6.0,2.0,-1.48,-0.025,0.034,2.952,34.0,27.97,0.0,18.0,0.0,10.0,-1.6,-0.03,-1.0,-0.09,4.83,-1.34,-0.31,313.0,,,0.0,1.0,0.0,100.0
13480,1,walk,walk,12477,,12477.0,20.0,2.0,6.0,2.0,-1.54,-0.025,0.03,2.919,34.0,27.97,0.0,18.0,0.0,10.0,-1.57,-0.03,-1.0,-0.09,5.47,-1.29,-0.61,313.0,,,0.0,1.0,0.0,100.0
13500,1,walk,walk,12478,,12478.0,20.0,2.0,6.0,2.0,-1.6,-0.025,-0.049,2.897,34.0,27.97,0.0,18.0,0.0,10.0,-1.55,-0.03,-1.01,-0.09,6.12,-1.23,-0.92,313.0,,,0.0,1.0,0.0,100.0
13560,1,walk,walk,12479,,12479.0,20.0,2.0,6.0,2.0,-1.65,-0.024,0.064,2.89,34.0,27.97,0.0,18.0,0.0,10.0,-1.54,-0.03,-1.01,-0.09,6.76,-1.13,-1.28,313.0,,,0.0,1.0,0.0,100.0
13560,1,walk,walk,12480,,12480.0,20.0,2.0,6.0,2.0,-1.69,-0.024,0.065,2.877,34.0,28.0,0.0,18.0,0.0,10.0,-1.53,-0.03,-1.01,-0.09,7.37,-0.98,-1.7,313.0,,,0.0,1.0,0.0,100.0
13560,1,walk,walk,12481,,12481.0,20.0,2.0,6.0,2.0,-1.73,-0.024,0.003,2.787,34.0,28.0,0.0,18.0,0.0,10.0,-1.52,-0.03,-1.01,-0.08,7.95,-0.78,-2.21,313.0,,,0.0,1.0,0.0,100.0
13580,1,walk,walk,12482,,12482.0,20.0,2.0,6.0,2.0,-1.76,-0.023,-0.007,2.702,34.0,28.0,0.0,18.0,0.0,10.0,-1.51,-0.03,-1.01,-0.08,8.48,-0.5,-2.82,313.0,,,0.0,1.0,0.0,100.0
13600,1,walk,walk,12483,,12483.0,20.0,1.0,6.0,2.0,-1.78,-0.022,0.124,2.544,34.0,28.0,0.0,17.0,0.0,10.0,-1.49,-0.03,-1.01,-0.08,8.9,-0.09,-3.57,313.0,,,0.0,1.0,0.0,100.0
13620,1,walk,walk,12484,,12484.0,20.0,1.0,6.0,2.0,-1.79,-0.02,0.296,2.317,34.0,28.04,0.0,17.0,0.0,10.0,-1.44,-0.03,-1.01,-0.08,9.06,0.67,-4.52,313.0,,,0.0,1.0,0.0,100.0
13640,1,walk,walk,12485,,12485.0,20.0,1.0,6.0,2.0,-1.79,-0.017,0.279,1.929,34.0,28.07,0.0,17.0,0.0,10.0,-1.33,-0.02,-1.01,-0.07,8.76,2.23,-5.66,313.0,,,0.0,1.0,0.0,100.0
13660,1,walk,walk,12486,,12486.0,20.0,1.0,6.0,2.0,-1.79,-0.015,0.142,1.713,34.0,28.07,0.0,17.0,0.0,10.0,-1.19,-0.02,-1.01,-0.07,7.82,5.13,-6.98,313.0,,,0.0,1.0,0.0,100.0
13700,1,walk,walk,12487,,12487.0,20.0,1.0,6.0,2.0,-1.77,-0.013,0.132,1.466,34.0,28.11,0.0,17.0,0.0,10.0,-1.02,-0.02,-1.01,-0.08,6.08,9.85,-8.37,313.0,,,0.0,1.0,0.0,100.0
13720,1,walk,walk,12488,,12488.0,20.0,1.0,6.0,2.0,-1.74,-0.012,0.084,1.391,34.0,28.11,0.0,17.0,0.0,10.0,-0.92,-0.02,-1.01,-0.08,3.52,16.63,-9.63,313.0,,,0.0,1.0,0.0,100.0
13720,1,walk,walk,12489,,12489.0,20.0,1.0,6.0,2.0,-1.71,-0.011,0.091,1.287,34.0,28.11,0.0,17.0,0.0,10.0,-0.98,-0.02,-1.01,-0.08,0.22,25.23,-10.45,313.0,,,0.0,1.0,0.0,100.0
13740,1,walk,walk,12490,,12490.0,20.0,1.0,6.0,2.0,-1.66,-0.01,-0.026,1.044,34.0,28.11,0.0,17.0,0.0,10.0,-1.35,-0.02,-1.02,-0.09,-3.47,34.72,-10.46,313.0,,,0.0,1.0,0.0,100.0
13760,1,walk,walk,12491,,12491.0,20.0,1.0,6.0,2.0,-1.59,-0.008,0.1,0.892,34.0,28.11,0.0,17.0,0.0,10.0,-2.13,-0.04,-1.02,-0.09,-7.12,43.74,-9.42,313.0,,,0.0,1.0,0.0,100.0
13780,1,walk,walk,12492,,12492.0,20.0,0.0,6.0,2.0,-1.52,-0.006,0.095,0.662,34.0,28.14,0.0,16.0,0.0,10.0,-3.34,-0.06,-1.03,-0.1,-10.33,50.9,-7.31,313.0,,,0.0,1.0,0.0,100.0
13800,1,walk,walk,12493,,12493.0,20.0,1.0,6.0,2.0,-1.43,-0.006,0.04,0.573,34.0,28.14,0.0,17.0,0.0,10.0,-4.86,-0.09,-1.03,-0.1,-12.85,55.12,-4.3,313.0,,,0.0,1.0,0.0,100.0
13820,1,walk,walk,12494,,12494.0,20.0,1.0,6.0,2.0,-1.34,-0.006,-0.057,0.617,34.0,28.14,0.0,17.0,0.0,10.0,-6.54,-0.12,-1.04,-0.1,-14.6,55.88,-0.67,313.0,,,0.0,1.0,0.0,100.0
13880,1,walk,walk,12495,,12495.0,20.0,1.0,6.0,2.0,-1.24,-0.006,0.033,0.644,34.0,28.14,0.0,17.0,0.0,10.0,-8.17,-0.15,-1.05,-0.1,-15.55,53.25,3.27,313.0,,,0.0,1.0,0.0,100.0
13880,1,walk,walk,12496,,12496.0,20.0,1.0,6.0,2.0,-1.15,-0.006,0.116,0.72,34.0,28.14,0.0,17.0,0.0,10.0,-9.57,-0.18,-1.05,-0.1,-15.74,47.79,7.28,313.0,,,0.0,1.0,0.0,100.0
13920,1,walk,walk,12497,,12497.0,20.0,1.0,1.0,5.0,-1.08,-0.006,0.021,0.741,34.0,28.14,0.0,17.0,0.0,11.0,-10.61,-0.2,-1.05,-0.1,-15.25,40.48,11.21,313.0,,,0.0,1.0,0.0,100.0
13920,1,walk,walk,12498,,12498.0,20.0,0.0,1.0,6.0,-1.02,-0.006,-0.048,0.768,34.0,28.04,0.0,19.0,0.0,11.0,-11.17,-0.21,-1.05,-0.1,-14.24,32.39,14.69,313.0,,,0.0,1.0,0.0,100.0
13920,1,walk,walk,12499,,12499.0,20.0,0.0,1.0,6.0,-0.99,0.028,3.278,1.922,34.0,27.97,0.0,19.0,0.0,11.0,-11.23,-0.21,-1.05,-0.1,-12.92,24.64,17.5,313.0,,,0.0,1.0,0.0,100.0
13960,1,walk,walk,12500,,12500.0,20.0,0.0,1.0,6.0,-0.99,0.073,2.851,2.477,34.0,27.93,0.0,19.0,0.0,11.0,-10.79,-0.2,-1.04,-0.1,-11.55,18.25,19.56,313.0,,,0.0,1.0,0.0,100.0
13960,1,walk,walk,12501,,12501.0,20.0,0.0,1.0,6.0,-1.04,0.112,2.361,2.892,34.0,27.86,0.0,19.0,0.0,11.0,-9.93,-0.18,-1.03,-0.1,-10.34,13.95,20.91,313.0,,,0.0,1.0,0.0,100.0
13980,1,walk,walk,12502,,12502.0,20.0,0.0,1.0,6.0,-1.12,0.143,1.78,3.542,34.0,27.83,0.0,19.0,0.0,11.0,-8.74,-0.16,-1.01,-0.1,-9.45,12.02,21.61,313.0,,,0.0,1.0,0.0,100.0
14040,1,walk,walk,12503,,12503.0,20.0,0.0,1.0,6.0,-1.26,0.167,1.36,4.111,34.0,27.76,0.0,19.0,0.0,11.0,-7.34,-0.13,-1.0,-0.1,-8.9,12.23,21.77,313.0,,,0.0,1.0,0.0,100.0
14040,1,walk,walk,12504,,12504.0,20.0,0.0,3.0,7.0,-1.43,0.186,0.997,4.494,34.0,27.72,0.0,19.0,0.0,11.0,-5.86,-0.1,-0.99,-0.1,-8.69,13.98,21.48,313.0,,,0.0,1.0,0.0,100.0
14040,1,walk,walk,12505,,12505.0,20.0,0.0,3.0,7.0,-1.64,0.201,0.923,4.525,34.0,27.69,0.0,19.0,0.0,11.0,-4.38,-0.07,-0.97,-0.1,-8.7,16.51,20.81,313.0,,,0.0,1.0,0.0,100.0
14060,1,walk,walk,12506,,12506.0,20.0,0.0,3.0,7.0,-1.9,0.213,0.769,5.011,34.0,27.65,0.0,19.0,0.0,11.0,-2.97,-0.05,-0.96,-0.11,-8.84,19.15,19.85,313.0,,,0.0,1.0,0.0,100.0
14080,1,walk,walk,12507,,12507.0,20.0,1.0,3.0,7.0,-2.18,0.221,0.565,5.281,34.0,27.65,0.0,20.0,0.0,11.0,-1.65,-0.03,-0.95,-0.11,-8.99,21.47,18.66,313.0,,,0.0,1.0,0.0,100.0
14120,1,walk,walk,12508,,12508.0,20.0,0.0,3.0,7.0,-2.48,0.226,0.3,5.439,34.0,27.65,0.0,19.0,0.0,11.0,-0.41,-0.01,-0.94,-0.12,-9.15,23.26,17.31,313.0,,,0.0,1.0,0.0,100.0
14140,1,walk,walk,12509,,12509.0,20.0,1.0,3.0,7.0,-2.81,0.228,-0.022,5.461,34.0,27.65,0.0,20.0,0.0,11.0,0.76,0.01,-0.94,-0.12,-9.3,24.52,15.86,313.0,,,0.0,1.0,0.0,100.0
14160,1,walk,walk,12510,,12510.0,20.0,0.0,3.0,7.0,-3.14,0.228,-0.015,5.237,34.0,27.72,0.0,19.0,0.0,11.0,1.88,0.03,-0.93,-0.13,-9.47,25.37,14.37,313.0,,,0.0,1.0,0.0,100.0
14180,1,walk,walk,12511,,12511.0,20.0,1.0,3.0,7.0,-3.47,0.228,-0.009,4.895,34.0,27.76,0.0,20.0,0.0,11.0,2.94,0.05,-0.93,-0.14,-9.69,26.02,12.83,313.0,,,0.0,1.0,0.0,100.0
14200,1,walk,walk,12512,,12512.0,20.0,0.0,3.0,7.0,-3.8,0.227,-0.158,4.551,34.0,27.83,0.0,19.0,0.0,11.0,3.87,0.06,-0.92,-0.14,-10.03,26.69,11.27,313.0,,,0.0,1.0,0.0,100.0
14200,1,walk,walk,12513,,12513.0,20.0,0.0,3.0,7.0,-4.12,0.223,-0.532,4.444,34.0,27.86,0.0,19.0,0.0,11.0,4.42,0.07,-0.93,-0.15,-10.33,27.33,9.74,313.0,,,0.0,1.0,0.0,100.0
14220,1,walk,walk,12514,,12514.0,20.0,0.0,3.0,7.0,-4.42,0.21,-1.1,4.53,34.0,27.86,0.0,19.0,0.0,11.0,4.39,0.07,-0.93,-0.16,-10.3,27.38,8.35,313.0,,,0.0,1.0,0.0,100.0
14240,1,walk,walk,12515,,12515.0,20.0,0.0,3.0,7.0,-4.7,0.186,-1.877,4.797,34.0,27.9,0.0,19.0,0.0,11.0,3.81,0.06,-0.95,-0.16,-9.83,26.42,7.18,313.0,,,0.0,1.0,0.0,100.0
14260,1,walk,walk,12516,,12516.0,20.0,0.0,3.0,7.0,-4.95,0.158,-2.163,4.363,34.0,27.97,0.0,19.0,0.0,11.0,2.83,0.05,-0.96,-0.16,-8.94,24.2,6.28,313.0,,,0.0,1.0,0.0,100.0
14280,1,walk,walk,12517,,12517.0,20.0,0.0,3.0,7.0,-5.18,0.122,-2.469,3.984,34.0,28.0,0.0,19.0,0.0,11.0,1.65,0.03,-0.98,-0.16,-7.78,20.81,5.7,313.0,,,0.0,1.0,0.0,100.0
14300,1,walk,walk,12518,,12518.0,20.0,0.0,3.0,7.0,-5.37,0.084,-2.736,3.621,34.0,28.07,0.0,19.0,0.0,11.0,0.45,0.01,-0.99,-0.16,-6.48,16.8,5.54,313.0,,,0.0,1.0,0.0,100.0
14340,1,walk,walk,12519,,12519.0,20.0,0.0,3.0,7.0,-5.54,0.043,-2.732,3.091,34.0,28.11,0.0,19.0,0.0,11.0,-0.67,-0.01,-1.0,-0.15,-5.17,12.88,5.83,313.0,,,0.0,1.0,0.0,100.0
14360,1,walk,walk,12520,,12520.0,20.0,1.0,3.0,7.0,-5.69,0.004,-2.53,2.745,34.0,28.11,0.0,20.0,0.0,11.0,-1.66,-0.03,-1.01,-0.14,-3.97,9.59,6.5,313.0,,,0.0,1.0,0.0,100.0
