t_ms,segment_id,packet_type,source_mode,frame_fid,note,walk_fid,walk_dt_ms,walk_exec_ms,walk_out,walk_state,walk_tilt_forward_deg,walk_pos_rad,walk_vel_rad_s,walk_tq_nm,walk_temp_c,walk_vbus_v,walk_err_code,walk_fb_age_ms,walk_typical_stride_ms,walk_effective_step_count,walk_tilt_accel_deg,walk_acc_x,walk_acc_y,walk_acc_z,walk_gyr_x,walk_gyr_y,walk_gyr_z,cfg_fid,cfg_robot_id,cfg_ble_target,cfg_gait_model,cfg_gait_mode,cfg_side_is_left,cfg_assist_pct
40,1,walk,walk,9618,,9618.0,20.0,1.0,6.0,2.0,22.35,-0.031,0.504,2.946,42.0,25.76,0.0,18.0,3235.0,19.0,20.78,-0.37,-0.98,0.12,6.7,-1.12,-10.88,222.0,,,0.0,1.0,1.0,100.0
40,1,walk,walk,9619,,9619.0,20.0,1.0,6.0,2.0,22.37,-0.027,0.216,2.803,42.0,25.79,0.0,18.0,3235.0,19.0,20.23,-0.36,-0.98,0.12,7.1,-1.59,-10.57,222.0,,,0.0,1.0,1.0,100.0
60,1,walk,walk,9620,,9620.0,20.0,1.0,6.0,2.0,22.35,-0.024,0.139,2.705,42.0,25.79,0.0,18.0,3235.0,19.0,19.73,-0.35,-0.99,0.12,7.44,-2.07,-9.59,222.0,,,0.0,1.0,1.0,100.0
80,1,walk,walk,9621,,9621.0,20.0,1.0,6.0,2.0,22.31,-0.023,0.083,2.596,42.0,25.79,0.0,18.0,3235.0,19.0,19.31,-0.35,-0.99,0.12,7.73,-2.53,-7.95,222.0,,,0.0,1.0,1.0,100.0
100,1,walk,walk,9622,,9622.0,20.0,1.0,6.0,2.0,22.25,-0.022,0.061,2.492,42.0,25.83,0.0,18.0,3235.0,19.0,18.98,-0.34,-1.0,0.12,7.93,-2.97,-5.75,222.0,,,0.0,1.0,1.0,100.0
120,1,walk,walk,9623,,9623.0,20.0,1.0,6.0,2.0,22.16,-0.02,0.154,2.314,42.0,25.83,0.0,18.0,3235.0,19.0,18.75,-0.34,-1.0,0.12,8.07,-3.4,-3.11,222.0,,,0.0,1.0,1.0,100.0
160,1,walk,walk,9624,,9624.0,20.0,1.0,6.0,2.0,22.06,-0.019,0.115,2.162,42.0,25.83,0.0,18.0,3235.0,19.0,18.61,-0.34,-1.0,0.12,8.13,-3.82,-0.19,222.0,,,0.0,1.0,1.0,100.0
180,1,walk,walk,9625,,9625.0,20.0,1.0,6.0,2.0,21.94,-0.017,0.026,2.008,42.0,25.86,0.0,18.0,3235.0,19.0,18.56,-0.33,-1.0,0.13,8.14,-4.23,2.88,222.0,,,0.0,1.0,1.0,100.0
180,1,walk,walk,9626,,9626.0,20.0,1.0,6.0,2.0,21.82,-0.016,0.12,1.831,42.0,25.86,0.0,18.0,3235.0,19.0,18.61,-0.33,-0.99,0.13,8.11,-4.64,5.98,222.0,,,0.0,1.0,1.0,100.0
200,1,walk,walk,9627,,9627.0,20.0,1.0,6.0,2.0,21.7,-0.015,0.036,1.707,42.0,25.9,0.0,18.0,3235.0,19.0,18.73,-0.34,-0.99,0.13,8.02,-5.05,9.02,222.0,,,0.0,1.0,1.0,100.0
220,1,walk,walk,9628,,9628.0,20.0,1.0,6.0,2.0,21.58,-0.014,0.083,1.519,42.0,25.9,0.0,18.0,3235.0,19.0,18.92,-0.34,-0.99,0.13,7.89,-5.47,11.93,222.0,,,0.0,1.0,1.0,100.0
240,1,walk,walk,9629,,9629.0,20.0,1.0,6.0,2.0,21.48,-0.012,0.187,1.334,42.0,25.9,0.0,18.0,3235.0,19.0,19.18,-0.34,-0.98,0.14,7.71,-5.9,14.64,222.0,,,0.0,1.0,1.0,100.0
260,1,walk,walk,9630,,9630.0,20.0,1.0,6.0,2.0,21.39,-0.01,0.097,1.161,42.0,25.93,0.0,18.0,3235.0,19.0,19.49,-0.35,-0.98,0.14,7.49,-6.35,17.11,222.0,,,0.0,1.0,1.0,100.0
280,1,walk,walk,9631,,9631.0,20.0,1.0,6.0,2.0,21.33,-0.009,0.032,1.04,42.0,25.93,0.0,18.0,3235.0,19.0,19.86,-0.35,-0.97,0.14,7.23,-6.79,19.33,222.0,,,0.0,1.0,1.0,100.0
300,1,walk,walk,9632,,9632.0,20.0,1.0,6.0,2.0,21.29,-0.008,0.041,0.889,42.0,25.93,0.0,18.0,3235.0,19.0,20.27,-0.36,-0.97,0.15,6.9,-7.23,21.28,222.0,,,0.0,1.0,1.0,100.0
320,1,walk,walk,9633,,9633.0,20.0,1.0,6.0,2.0,21.28,-0.007,0.147,0.756,42.0,25.93,0.0,18.0,3235.0,19.0,20.73,-0.36,-0.96,0.15,6.52,-7.65,22.96,222.0,,,0.0,1.0,1.0,100.0
340,1,walk,walk,9634,,9634.0,20.0,1.0,6.0,2.0,21.31,-0.006,0.084,0.617,42.0,25.93,0.0,18.0,3235.0,19.0,21.22,-0.37,-0.96,0.15,6.1,-8.03,24.36,222.0,,,0.0,1.0,1.0,100.0
380,1,walk,walk,9635,,9635.0,20.0,1.0,6.0,2.0,21.37,-0.005,0.112,0.412,42.0,25.93,0.0,18.0,3235.0,19.0,21.73,-0.38,-0.95,0.16,5.65,-8.36,25.5,222.0,,,0.0,1.0,1.0,100.0
380,1,walk,walk,9636,,9636.0,20.0,1.0,6.0,2.0,21.47,-0.004,0.069,0.252,42.0,25.93,0.0,18.0,3235.0,19.0,22.25,-0.39,-0.95,0.16,5.19,-8.61,26.39,222.0,,,0.0,1.0,1.0,100.0
400,1,walk,walk,9637,,9637.0,20.0,1.0,6.0,2.0,21.61,-0.003,-0.029,0.213,42.0,25.93,0.0,18.0,3235.0,19.0,22.75,-0.4,-0.94,0.17,4.74,-8.8,27.03,222.0,,,0.0,1.0,1.0,100.0
420,1,walk,walk,9638,,9638.0,20.0,1.0,6.0,2.0,21.78,-0.001,0.134,-0.016,42.0,25.93,0.0,18.0,3235.0,19.0,23.24,-0.4,-0.94,0.17,4.33,-8.91,27.46,222.0,,,0.0,1.0,1.0,100.0
440,1,walk,walk,9639,,9639.0,20.0,1.0,6.0,2.0,21.99,0.0,0.076,-0.157,42.0,25.93,0.0,18.0,3235.0,19.0,23.71,-0.41,-0.94,0.17,3.96,-8.97,27.71,222.0,,,0.0,1.0,1.0,100.0
460,1,walk,walk,9640,,9640.0,20.0,1.0,6.0,2.0,22.24,0.001,0.038,-0.38,42.0,25.93,0.0,18.0,3235.0,19.0,24.14,-0.42,-0.93,0.18,3.65,-8.95,27.85,222.0,,,0.0,1.0,1.0,100.0
480,1,walk,walk,9641,,9641.0,20.0,1.0,6.0,2.0,22.52,0.003,0.147,-0.62,42.0,25.93,0.0,18.0,3235.0,19.0,24.54,-0.42,-0.93,0.18,3.38,-8.87,27.92,222.0,,,0.0,1.0,1.0,100.0
520,1,walk,walk,9642,,9642.0,20.0,1.0,6.0,2.0,22.82,0.004,0.107,-0.767,42.0,25.93,0.0,18.0,3235.0,19.0,24.9,-0.43,-0.93,0.18,3.15,-8.73,27.94,222.0,,,0.0,1.0,1.0,100.0
520,1,walk,walk,9643,,9643.0,20.0,1.0,6.0,2.0,23.16,0.007,0.23,-1.036,42.0,25.93,0.0,18.0,3235.0,19.0,25.24,-0.44,-0.92,0.19,2.93,-8.55,27.87,222.0,,,0.0,1.0,1.0,100.0
540,1,walk,walk,9644,,9644.0,20.0,1.0,6.0,2.0,23.53,0.009,0.088,-1.166,42.0,25.93,0.0,18.0,3235.0,19.0,25.53,-0.44,-0.92,0.19,2.68,-8.43,27.62,222.0,,,0.0,1.0,1.0,100.0
600,1,walk,walk,9645,,9645.0,20.0,1.0,6.0,2.0,23.91,0.01,0.096,-1.25,42.0,25.93,0.0,18.0,3235.0,19.0,25.73,-0.44,-0.91,0.19,2.32,-8.45,26.97,222.0,,,0.0,1.0,1.0,100.0
600,1,walk,walk,9646,,9646.0,20.0,1.0,6.0,2.0,24.32,0.01,0.029,-1.238,42.0,25.93,0.0,18.0,3235.0,19.0,25.77,-0.44,-0.91,0.19,1.81,-8.64,25.66,222.0,,,0.0,1.0,1.0,100.0
620,1,walk,walk,9647,,9647.0,20.0,1.0,6.0,2.0,24.73,0.01,-0.05,-1.202,42.0,25.93,0.0,18.0,3235.0,19.0,25.6,-0.43,-0.9,0.19,1.12,-8.99,23.48,222.0,,,0.0,1.0,1.0,100.0
640,1,walk,walk,9648,,9648.0,20.0,1.0,6.0,2.0,25.16,0.009,-0.049,-1.189,42.0,25.93,0.0,18.0,3235.0,19.0,25.2,-0.42,-0.89,0.19,0.21,-9.38,20.32,222.0,,,0.0,1.0,1.0,100.0
640,1,walk,walk,9649,,9649.0,20.0,1.0,6.0,2.0,25.6,0.009,0.034,-1.195,42.0,25.93,0.0,18.0,3235.0,19.0,24.57,-0.4,-0.88,0.19,-0.89,-9.65,16.14,222.0,,,0.0,1.0,1.0,100.0
680,1,walk,walk,9650,,9650.0,20.0,1.0,6.0,2.0,26.04,0.009,0.002,-1.206,42.0,25.93,0.0,18.0,3235.0,19.0,23.71,-0.38,-0.88,0.19,-2.14,-9.61,10.99,222.0,,,0.0,1.0,1.0,100.0
700,1,walk,walk,9651,,9651.0,20.0,1.0,1.0,5.0,26.46,0.01,0.006,-1.219,42.0,25.93,0.0,18.0,3235.0,20.0,22.68,-0.36,-0.87,0.19,-3.49,-9.08,4.97,222.0,,,0.0,1.0,1.0,100.0
700,1,walk,walk,9652,,9652.0,20.0,0.0,1.0,6.0,26.88,0.01,0.069,-1.324,42.0,25.79,0.0,18.0,3235.0,20.0,21.56,-0.34,-0.87,0.19,-4.84,-7.9,-1.74,222.0,,,0.0,1.0,1.0,100.0
720,1,walk,walk,9653,,9653.0,20.0,0.0,1.0,6.0,27.26,-0.025,-3.136,-2.477,42.0,25.72,0.0,18.0,3235.0,20.0,20.42,-0.32,-0.86,0.2,-6.12,-5.98,-8.7,222.0,,,0.0,1.0,1.0,100.0
740,1,walk,walk,9654,,9654.0,20.0,0.0,1.0,6.0,27.61,-0.07,-2.714,-3.008,42.0,25.65,0.0,18.0,3235.0,20.0,19.32,-0.3,-0.86,0.2,-7.3,-3.36,-15.69,222.0,,,0.0,1.0,1.0,100.0
760,1,walk,walk,9655,,9655.0,20.0,0.0,1.0,6.0,27.92,-0.106,-2.214,-3.443,42.0,25.58,0.0,18.0,3235.0,20.0,18.29,-0.29,-0.87,0.19,-8.34,-0.29,-22.6,222.0,,,0.0,1.0,1.0,100.0
780,1,walk,walk,9656,,9656.0,20.0,0.0,1.0,6.0,28.17,-0.136,-1.843,-3.787,42.0,25.54,0.0,18.0,3235.0,20.0,17.33,-0.27,-0.87,0.19,-9.16,2.93,-29.45,222.0,,,0.0,1.0,1.0,100.0
820,1,walk,walk,9657,,9657.0,20.0,0.0,1.0,6.0,28.34,-0.162,-1.656,-4.073,42.0,25.54,0.0,18.0,3235.0,20.0,16.46,-0.26,-0.88,0.19,-9.71,6.03,-36.32,222.0,,,0.0,1.0,1.0,100.0
840,1,walk,walk,9658,,9658.0,20.0,0.0,1.0,6.0,28.45,-0.183,-1.357,-4.115,42.0,25.51,0.0,18.0,3235.0,20.0,15.67,-0.25,-0.89,0.19,-9.95,8.78,-43.3,222.0,,,0.0,1.0,1.0,100.0
840,1,walk,walk,9659,,9659.0,20.0,0.0,1.0,6.0,28.46,-0.199,-0.871,-4.7,42.0,25.47,0.0,18.0,3235.0,20.0,14.94,-0.24,-0.91,0.18,-9.83,11.13,-50.29,222.0,,,0.0,1.0,1.0,100.0
880,1,walk,walk,9660,,9660.0,20.0,0.0,1.0,6.0,28.38,-0.213,-0.789,-4.734,42.0,25.47,0.0,18.0,3235.0,20.0,14.27,-0.23,-0.92,0.18,-9.42,13.21,-57.13,222.0,,,0.0,1.0,1.0,100.0
880,1,walk,walk,9661,,9661.0,20.0,0.0,1.0,6.0,28.2,-0.223,-0.688,-4.795,42.0,25.44,0.0,18.0,3235.0,20.0,13.65,-0.23,-0.94,0.17,-8.81,15.32,-63.67,222.0,,,0.0,1.0,1.0,100.0
900,1,walk,walk,9662,,9662.0,20.0,0.0,1.0,6.0,27.92,-0.233,-0.643,-4.907,42.0,25.44,0.0,18.0,3235.0,20.0,13.1,-0.22,-0.96,0.17,-8.02,17.84,-69.69,222.0,,,0.0,1.0,1.0,100.0
920,1,walk,walk,9663,,9663.0,20.0,0.0,1.0,6.0,27.52,-0.239,-0.414,-5.276,42.0,25.37,0.0,18.0,3235.0,20.0,12.67,-0.22,-0.98,0.16,-7.08,21.11,-74.9,222.0,,,0.0,1.0,1.0,100.0
940,1,walk,walk,9664,,9664.0,20.0,0.0,1.0,6.0,27.01,-0.244,-0.253,-5.492,42.0,25.37,0.0,18.0,3235.0,20.0,12.4,-0.22,-1.0,0.15,-5.98,25.3,-79.01,222.0,,,0.0,1.0,1.0,100.0
960,1,walk,walk,9665,,9665.0,20.0,0.0,1.0,6.0,26.39,-0.248,-0.33,-5.524,42.0,25.37,0.0,18.0,3235.0,20.0,12.4,-0.22,-1.02,0.14,-4.74,30.37,-81.76,222.0,,,0.0,1.0,1.0,100.0
1000,1,walk,walk,9666,,9666.0,20.0,0.0,1.0,6.0,25.66,-0.25,-0.152,-5.6,42.0,25.37,0.0,18.0,3235.0,20.0,12.73,-0.24,-1.04,0.13,-3.42,35.99,-82.87,222.0,,,0.0,1.0,1.0,100.0
1020,1,walk,walk,9667,,9667.0,20.0,0.0,3.0,7.0,24.82,-0.253,-0.328,-5.485,42.0,25.37,0.0,18.0,3235.0,20.0,13.46,-0.25,-1.06,0.11,-2.18,41.59,-82.12,222.0,,,0.0,1.0,1.0,100.0
1060,1,walk,walk,9668,,9668.0,20.0,0.0,3.0,7.0,23.88,-0.257,-0.108,-5.481,42.0,25.37,0.0,19.0,3235.0,20.0,14.57,-0.28,-1.07,0.09,-1.23,46.49,-79.39,222.0,,,0.0,1.0,1.0,100.0
1060,1,walk,walk,9669,,9669.0,20.0,0.0,3.0,7.0,22.85,-0.259,-0.242,-5.415,42.0,25.4,0.0,19.0,3235.0,20.0,16.03,-0.31,-1.08,0.06,-0.79,50.02,-74.68,222.0,,,0.0,1.0,1.0,100.0
1060,1,walk,walk,9670,,9670.0,20.0,0.0,3.0,7.0,21.74,-0.262,-0.229,-5.202,42.0,25.44,0.0,19.0,3235.0,20.0,17.74,-0.34,-1.08,0.04,-1.02,51.63,-68.12,222.0,,,0.0,1.0,1.0,100.0
1080,1,walk,walk,9671,,9671.0,20.0,0.0,3.0,7.0,20.57,-0.264,-0.026,-5.121,42.0,25.47,0.0,19.0,3235.0,20.0,19.58,-0.38,-1.07,0.01,-2.02,51.01,-59.96,222.0,,,0.0,1.0,1.0,100.0
1100,1,walk,walk,9672,,9672.0,20.0,0.0,3.0,7.0,19.36,-0.264,0.029,-4.926,42.0,25.51,0.0,19.0,3235.0,20.0,21.42,-0.42,-1.06,-0.02,-3.8,48.1,-50.54,222.0,,,0.0,1.0,1.0,100.0
1120,1,walk,walk,9673,,9673.0,20.0,0.0,3.0,7.0,18.12,-0.263,0.018,-4.541,42.0,25.58,0.0,19.0,3235.0,20.0,23.15,-0.45,-1.05,-0.04,-6.32,43.06,-40.28,222.0,,,0.0,1.0,1.0,100.0
1140,1,walk,walk,9674,,9674.0,20.0,1.0,3.0,7.0,16.88,-0.26,0.237,-4.232,42.0,25.65,0.0,20.0,3235.0,20.0,24.69,-0.47,-1.03,-0.07,-9.45,36.21,-29.69,222.0,,,0.0,1.0,1.0,100.0
1160,1,walk,walk,9675,,9675.0,20.0,0.0,3.0,7.0,15.67,-0.253,0.424,-3.926,42.0,25.72,0.0,19.0,3235.0,20.0,25.73,-0.49,-1.01,-0.08,-13.01,27.97,-19.34,222.0,,,0.0,1.0,1.0,100.0
1180,1,walk,walk,9676,,9676.0,20.0,0.0,3.0,7.0,14.5,-0.235,1.809,-3.961,42.0,25.76,0.0,19.0,3235.0,20.0,25.89,-0.49,-1.0,-0.08,-16.38,19.04,-9.99,222.0,,,0.0,1.0,1.0,100.0
1220,1,walk,walk,9677,,9677.0,20.0,0.0,0.0,1.0,13.4,-0.197,3.107,-4.101,42.0,25.86,0.0,19.0,3235.0,20.0,24.87,-0.47,-1.0,-0.08,-19.03,9.77,-2.52,222.0,,,0.0,1.0,1.0,100.0
1220,1,walk,walk,9678,,9678.0,20.0,0.0,0.0,1.0,12.39,-0.129,5.961,-3.507,42.0,25.86,0.0,19.0,3235.0,20.0,22.8,-0.42,-1.01,-0.05,-20.77,-0.18,1.63,222.0,,,0.0,1.0,1.0,100.0
1240,1,walk,walk,9679,,9679.0,20.0,0.0,0.0,1.0,11.47,-0.129,5.961,-3.507,42.0,25.86,0.0,39.0,3235.0,20.0,20.1,-0.37,-1.02,-0.02,-21.72,-10.24,2.4,222.0,,,0.0,1.0,1.0,100.0
1260,1,walk,walk,9680,,9680.0,20.0,0.0,0.0,1.0,10.66,-0.129,5.961,-3.507,42.0,25.86,0.0,59.0,3235.0,20.0,17.12,-0.32,-1.04,0.02,-22.12,-19.38,0.98,222.0,,,0.0,1.0,1.0,100.0
1280,1,walk,walk,9681,,9681.0,20.0,0.0,0.0,1.0,9.96,-0.013,21.501,0.0,42.0,26.0,0.0,2.0,3235.0,20.0,14.19,-0.27,-1.06,0.06,-22.18,-26.79,-1.23,222.0,,,0.0,1.0,1.0,100.0
1300,1,walk,walk,9682,,9682.0,20.0,0.0,0.0,1.0,9.37,-0.014,0.046,0.0,42.0,25.97,0.0,2.0,3235.0,20.0,11.58,-0.22,-1.08,0.09,-22.04,-32.13,-3.43,222.0,,,0.0,1.0,1.0,100.0
1320,1,walk,walk,9683,,9683.0,20.0,0.0,0.0,1.0,8.88,-0.011,0.344,0.0,42.0,25.97,0.0,2.0,3235.0,20.0,9.39,-0.18,-1.09,0.12,-21.78,-35.43,-5.28,222.0,,,0.0,1.0,1.0,100.0
1360,1,walk,walk,9684,,9684.0,20.0,1.0,0.0,1.0,8.48,-0.011,-0.06,0.0,42.0,25.97,0.0,3.0,3235.0,20.0,7.65,-0.15,-1.1,0.13,-21.37,-36.92,-6.62,222.0,,,0.0,1.0,1.0,100.0
1360,1,walk,walk,9685,,9685.0,20.0,1.0,0.0,1.0,8.15,-0.015,-0.575,0.0,42.0,25.97,0.0,3.0,3235.0,20.0,6.3,-0.12,-1.11,0.14,-20.79,-36.88,-7.36,222.0,,,0.0,1.0,1.0,100.0
1380,1,walk,walk,9686,,9686.0,20.0,1.0,0.0,1.0,7.89,-0.026,-0.777,0.0,42.0,25.97,0.0,3.0,3235.0,20.0,5.29,-0.1,-1.11,0.14,-20.0,-35.64,-7.4,222.0,,,0.0,1.0,1.0,100.0
1420,1,walk,walk,9687,,9687.0,20.0,0.0,0.0,1.0,7.67,-0.035,-0.515,0.0,42.0,25.97,0.0,2.0,3235.0,20.0,4.56,-0.09,-1.11,0.14,-18.98,-33.51,-6.72,222.0,,,0.0,1.0,1.0,100.0
1420,1,walk,walk,9688,,9688.0,20.0,1.0,0.0,1.0,7.49,-0.044,-0.72,0.0,42.0,25.97,0.0,3.0,3235.0,20.0,4.06,-0.08,-1.11,0.13,-17.76,-30.8,-5.37,222.0,,,0.0,1.0,1.0,100.0
1440,1,walk,walk,9689,,9689.0,20.0,1.0,0.0,1.0,7.34,-0.057,-0.832,0.0,42.0,25.97,0.0,3.0,3235.0,20.0,3.74,-0.07,-1.1,0.12,-16.34,-27.77,-3.4,222.0,,,0.0,1.0,1.0,100.0
1460,1,walk,walk,9690,,9690.0,20.0,1.0,0.0,1.0,7.2,-0.069,-0.953,0.0,42.0,25.97,0.0,3.0,3235.0,20.0,3.57,-0.07,-1.1,0.11,-14.79,-24.64,-0.9,222.0,,,0.0,1.0,1.0,100.0
1480,1,walk,walk,9691,,9691.0,20.0,0.0,0.0,1.0,7.08,-0.083,-0.641,0.0,42.0,25.97,0.0,2.0,3235.0,20.0,3.54,-0.07,-1.09,0.1,-13.15,-21.56,2.0,222.0,,,0.0,1.0,1.0,100.0
1520,1,walk,walk,9692,,9692.0,20.0,0.0,0.0,1.0,6.97,-0.093,-0.771,0.0,42.0,25.97,0.0,2.0,3235.0,20.0,3.63,-0.07,-1.09,0.08,-11.52,-18.67,5.13,222.0,,,0.0,1.0,1.0,100.0
1520,1,walk,walk,9693,,9693.0,20.0,0.0,0.0,1.0,6.87,-0.103,-0.64,0.0,42.0,25.97,0.0,2.0,3235.0,20.0,3.83,-0.07,-1.08,0.07,-9.98,-16.01,8.28,222.0,,,0.0,1.0,1.0,100.0
1560,1,walk,walk,9694,,9694.0,20.0,0.0,0.0,1.0,6.78,-0.111,-0.416,0.0,42.0,25.97,0.0,2.0,3235.0,20.0,4.13,-0.08,-1.07,0.06,-8.6,-13.59,11.27,222.0,,,0.0,1.0,1.0,100.0
1560,1,walk,walk,9695,,9695.0,20.0,0.0,0.0,1.0,6.71,-0.117,-0.209,0.0,42.0,25.97,0.0,2.0,3235.0,20.0,4.53,-0.08,-1.06,0.06,-7.45,-11.4,13.92,222.0,,,0.0,1.0,1.0,100.0
1580,1,walk,walk,9696,,9696.0,20.0,0.0,0.0,1.0,6.65,-0.12,-0.358,0.0,42.0,25.97,0.0,2.0,3235.0,20.0,5.0,-0.09,-1.06,0.05,-6.57,-9.46,16.09,222.0,,,0.0,1.0,1.0,100.0
1600,1,walk,walk,9697,,9697.0,20.0,0.0,0.0,1.0,6.6,-0.125,-0.232,0.0,42.0,25.97,0.0,2.0,3235.0,20.0,5.52,-0.1,-1.05,0.04,-5.95,-7.73,17.71,222.0,,,0.0,1.0,1.0,100.0
1620,1,walk,walk,9698,,9698.0,20.0,0.0,0.0,1.0,6.59,-0.128,-0.139,0.0,42.0,25.97,0.0,2.0,3235.0,20.0,6.08,-0.11,-1.04,0.04,-5.6,-6.19,18.75,222.0,,,0.0,1.0,1.0,100.0
1640,1,walk,walk,9699,,9699.0,20.0,0.0,0.0,1.0,6.59,-0.128,-0.022,0.0,42.0,25.97,0.0,2.0,3235.0,20.0,6.66,-0.12,-1.03,0.03,-5.48,-4.85,19.17,222.0,,,0.0,1.0,1.0,100.0
1660,1,walk,walk,9700,,9700.0,20.0,0.0,0.0,1.0,6.63,-0.128,0.041,0.0,42.0,25.97,0.0,2.0,3235.0,20.0,7.24,-0.13,-1.03,0.03,-5.56,-3.68,18.99,222.0,,,0.0,1.0,1.0,100.0
1680,1,walk,walk,9701,,9701.0,20.0,0.0,0.0,1.0,6.7,-0.128,0.03,0.0,42.0,25.97,0.0,2.0,3235.0,20.0,7.8,-0.14,-1.02,0.03,-5.81,-2.65,18.24,222.0,,,0.0,1.0,1.0,100.0
1700,1,walk,walk,9702,,9702.0,20.0,0.0,0.0,1.0,6.79,-0.127,0.077,0.0,42.0,25.97,0.0,2.0,3235.0,20.0,8.33,-0.15,-1.02,0.02,-6.2,-1.74,17.0,222.0,,,0.0,1.0,1.0,100.0
1720,1,walk,walk,9703,,9703.0,20.0,0.0,0.0,1.0,6.92,-0.126,0.17,0.0,42.0,25.97,0.0,2.0,3235.0,20.0,8.82,-0.16,-1.01,0.02,-6.7,-0.93,15.36,222.0,,,0.0,1.0,1.0,100.0
1740,1,walk,walk,9704,,9704.0,20.0,0.0,0.0,1.0,7.07,-0.125,0.109,0.0,42.0,25.97,0.0,2.0,3235.0,20.0,9.24,-0.16,-1.01,0.02,-7.28,-0.2,13.43,222.0,,,0.0,1.0,1.0,100.0
1780,1,walk,walk,9705,,9705.0,20.0,0.0,0.0,1.0,7.24,-0.125,-0.026,0.0,42.0,25.97,0.0,2.0,3235.0,20.0,9.58,-0.17,-1.01,0.01,-7.85,0.43,11.37,222.0,,,0.0,1.0,1.0,100.0
1780,1,walk,walk,9706,,9706.0,20.0,0.0,0.0,1.0,7.43,-0.125,0.005,0.0,42.0,25.97,0.0,2.0,3235.0,20.0,9.84,-0.17,-1.01,0.01,-8.34,0.94,9.33,222.0,,,0.0,1.0,1.0,100.0
1800,1,walk,walk,9707,,9707.0,20.0,0.0,0.0,1.0,7.64,-0.126,-0.147,0.0,42.0,25.97,0.0,2.0,3235.0,20.0,9.99,-0.18,-1.01,0.0,-8.68,1.33,7.49,222.0,,,0.0,1.0,1.0,100.0
1840,1,walk,walk,9708,,9708.0,20.0,0.0,0.0,1.0,7.86,-0.131,-0.406,0.0,42.0,25.97,0.0,2.0,3235.0,20.0,10.05,-0.18,-1.01,-0.01,-8.79,1.58,6.01,222.0,,,0.0,1.0,1.0,100.0
1840,1,walk,walk,9709,,9709.0,20.0,0.0,0.0,1.0,8.08,-0.136,-0.425,0.0,42.0,25.97,0.0,2.0,3235.0,20.0,10.05,-0.18,-1.01,-0.01,-8.65,1.71,4.99,222.0,,,0.0,1.0,1.0,100.0
1860,1,walk,walk,9710,,9710.0,20.0,0.0,6.0,2.0,8.31,-0.141,-0.311,0.0,42.0,25.97,0.0,2.0,3235.0,20.0,10.01,-0.18,-1.01,-0.02,-8.24,1.74,4.44,222.0,,,0.0,1.0,1.0,100.0
1880,1,walk,walk,9711,,9711.0,20.0,0.0,6.0,2.0,8.53,-0.141,-0.269,0.082,42.0,25.9,0.0,18.0,3235.0,20.0,10.01,-0.18,-1.01,-0.03,-7.55,1.65,3.93,222.0,,,0.0,1.0,1.0,100.0
1900,1,walk,walk,9712,,9712.0,20.0,0.0,6.0,2.0,8.75,-0.102,2.723,3.635,42.0,25.54,0.0,18.0,3235.0,20.0,10.07,-0.18,-1.01,-0.03,-6.62,1.34,2.88,222.0,,,0.0,1.0,1.0,100.0
1920,1,walk,walk,9713,,9713.0,20.0,1.0,6.0,2.0,8.95,-0.071,1.431,4.623,42.0,25.44,0.0,19.0,3235.0,20.0,10.14,-0.18,-1.01,-0.04,-5.49,0.78,1.27,222.0,,,0.0,1.0,1.0,100.0
1960,1,walk,walk,9714,,9714.0,20.0,0.0,6.0,2.0,9.15,-0.059,0.258,5.92,42.0,25.26,0.0,18.0,3235.0,20.0,10.17,-0.18,-1.01,-0.04,-4.22,0.03,-0.57,222.0,,,0.0,1.0,1.0,100.0
1980,1,walk,walk,9715,,9715.0,20.0,0.0,6.0,2.0,9.33,-0.059,0.034,6.651,42.0,25.12,0.0,18.0,3235.0,20.0,10.15,-0.18,-1.01,-0.05,-2.83,-0.87,-2.3,222.0,,,0.0,1.0,1.0,100.0
2000,1,walk,walk,9716,,9716.0,20.0,1.0,6.0,2.0,9.49,-0.059,-0.009,7.016,42.0,25.05,0.0,19.0,3235.0,20.0,10.07,-0.18,-1.02,-0.05,-1.36,-1.86,-3.6,222.0,,,0.0,1.0,1.0,100.0
2000,1,walk,walk,9717,,9717.0,20.0,0.0,6.0,2.0,9.64,-0.062,-0.22,7.654,42.0,24.91,0.0,18.0,3235.0,20.0,9.91,-0.18,-1.02,-0.05,0.25,-2.88,-4.23,222.0,,,0.0,1.0,1.0,100.0
2020,1,walk,walk,9718,,9718.0,20.0,1.0,6.0,2.0,9.76,-0.066,-0.301,8.217,42.0,24.74,0.0,19.0,3235.0,20.0,9.71,-0.17,-1.02,-0.05,2.02,-3.84,-4.09,222.0,,,0.0,1.0,1.0,100.0
2040,1,walk,walk,9719,,9719.0,20.0,1.0,6.0,2.0,9.87,-0.068,-0.054,8.313,42.0,24.67,0.0,19.0,3235.0,20.0,9.52,-0.17,-1.02,-0.05,4.0,-4.66,-3.31,222.0,,,0.0,1.0,1.0,100.0
2080,1,walk,walk,9720,,9720.0,20.0,1.0,6.0,2.0,9.95,-0.068,0.109,8.278,42.0,24.67,0.0,19.0,3235.0,20.0,9.4,-0.17,-1.02,-0.05,6.13,-5.3,-2.13,222.0,,,0.0,1.0,1.0,100.0
2080,1,walk,walk,9721,,9721.0,20.0,1.0,6.0,2.0,10.02,-0.068,0.108,8.172,42.0,24.7,0.0,19.0,3235.0,20.0,9.36,-0.17,-1.02,-0.05,8.32,-5.7,-0.83,222.0,,,0.0,1.0,1.0,100.0
2100,1,walk,walk,9722,,9722.0,20.0,1.0,6.0,2.0,10.07,-0.067,0.139,7.919,42.0,24.77,0.0,19.0,3235.0,20.0,9.41,-0.17,-1.02,-0.05,10.43,-5.85,0.37,222.0,,,0.0,1.0,1.0,100.0
2140,1,walk,walk,9723,,9723.0,20.0,1.0,6.0,2.0,10.11,-0.064,0.221,7.47,42.0,24.88,0.0,19.0,3235.0,20.0,9.55,-0.17,-1.02,-0.04,12.33,-5.76,1.27,222.0,,,0.0,1.0,1.0,100.0
2160,1,walk,walk,9724,,9724.0,20.0,1.0,6.0,2.0,10.13,-0.06,0.124,7.239,42.0,24.98,0.0,19.0,3235.0,20.0,9.74,-0.18,-1.02,-0.04,13.94,-5.47,1.79,222.0,,,0.0,1.0,1.0,100.0
2160,1,walk,walk,9725,,9725.0,20.0,1.0,6.0,2.0,10.14,-0.058,0.148,6.963,42.0,25.05,0.0,19.0,3235.0,20.0,9.95,-0.18,-1.02,-0.03,15.2,-5.02,1.96,222.0,,,0.0,1.0,1.0,100.0
2200,1,walk,walk,9726,,9726.0,20.0,1.0,6.0,2.0,10.15,-0.057,0.088,6.856,42.0,25.09,0.0,19.0,3235.0,20.0,10.13,-0.18,-1.01,-0.02,16.11,-4.49,1.88,222.0,,,0.0,1.0,1.0,100.0
2220,1,walk,walk,9727,,9727.0,20.0,1.0,6.0,2.0,10.15,-0.057,-0.081,6.894,42.0,25.09,0.0,19.0,3235.0,20.0,10.25,-0.18,-1.01,-0.01,16.73,-3.93,1.7,222.0,,,0.0,1.0,1.0,100.0
2220,1,walk,walk,9728,,9728.0,20.0,1.0,6.0,2.0,10.16,-0.057,-0.061,6.874,42.0,25.09,0.0,19.0,3235.0,20.0,10.29,-0.18,-1.01,-0.01,17.15,-3.4,1.57,222.0,,,0.0,1.0,1.0,100.0
2240,1,walk,walk,9729,,9729.0,20.0,1.0,6.0,2.0,10.16,-0.057,-0.005,6.897,42.0,25.05,0.0,19.0,3235.0,20.0,10.25,-0.18,-1.01,0.0,17.46,-2.93,1.63,222.0,,,0.0,1.0,1.0,100.0
2260,1,walk,walk,9730,,9730.0,20.0,1.0,6.0,2.0,10.16,-0.057,-0.01,6.923,42.0,25.05,0.0,19.0,3235.0,20.0,10.14,-0.18,-1.01,0.01,17.73,-2.56,1.96,222.0,,,0.0,1.0,1.0,100.0
2280,1,walk,walk,9731,,9731.0,20.0,1.0,6.0,2.0,10.16,-0.057,0.018,6.955,42.0,25.05,0.0,19.0,3235.0,20.0,9.97,-0.18,-1.01,0.01,17.97,-2.29,2.63,222.0,,,0.0,1.0,1.0,100.0
2300,1,walk,walk,9732,,9732.0,20.0,1.0,6.0,2.0,10.17,-0.057,0.04,6.96,42.0,25.05,0.0,19.0,3235.0,20.0,9.75,-0.18,-1.02,0.02,18.21,-2.09,3.7,222.0,,,0.0,1.0,1.0,100.0
2320,1,walk,walk,9733,,9733.0,20.0,1.0,6.0,2.0,10.18,-0.057,-0.034,6.896,42.0,25.05,0.0,19.0,3235.0,20.0,9.48,-0.17,-1.02,0.02,18.47,-1.91,5.18,222.0,,,0.0,1.0,1.0,100.0
2360,1,walk,walk,9734,,9734.0,20.0,1.0,6.0,2.0,10.19,-0.056,0.117,6.636,42.0,25.12,0.0,19.0,3235.0,20.0,9.19,-0.17,-1.03,0.03,18.75,-1.7,7.07,222.0,,,0.0,1.0,1.0,100.0
2360,1,walk,walk,9735,,9735.0,20.0,1.0,6.0,2.0,10.21,-0.053,0.128,6.301,42.0,25.19,0.0,19.0,3235.0,20.0,8.91,-0.16,-1.04,0.03,19.08,-1.38,9.32,222.0,,,0.0,1.0,1.0,100.0
2380,1,walk,walk,9736,,9736.0,20.0,1.0,6.0,2.0,10.24,-0.051,0.319,5.997,42.0,25.26,0.0,19.0,3235.0,20.0,8.67,-0.16,-1.05,0.04,19.45,-0.91,11.85,222.0,,,0.0,1.0,1.0,100.0
2400,1,walk,walk,9737,,9737.0,20.0,1.0,6.0,2.0,10.28,-0.047,0.263,5.48,42.0,25.4,0.0,19.0,3235.0,20.0,8.5,-0.16,-1.05,0.05,19.88,-0.3,14.55,222.0,,,0.0,1.0,1.0,100.0
2420,1,walk,walk,9738,,9738.0,20.0,1.0,6.0,2.0,10.32,-0.043,0.275,4.857,42.0,25.47,0.0,19.0,3235.0,20.0,8.43,-0.16,-1.06,0.05,20.33,0.44,17.32,222.0,,,0.0,1.0,1.0,100.0
2440,1,walk,walk,9739,,9739.0,20.0,1.0,6.0,2.0,10.38,-0.037,0.32,4.186,42.0,25.58,0.0,19.0,3235.0,20.0,8.47,-0.16,-1.06,0.06,20.79,1.32,20.06,222.0,,,0.0,1.0,1.0,100.0
2460,1,walk,walk,9740,,9740.0,20.0,1.0,6.0,2.0,10.46,-0.033,0.237,3.729,42.0,25.65,0.0,19.0,3235.0,20.0,8.64,-0.16,-1.06,0.07,21.23,2.36,22.69,222.0,,,0.0,1.0,1.0,100.0
2500,1,walk,walk,9741,,9741.0,20.0,1.0,6.0,2.0,10.55,-0.03,0.211,3.428,42.0,25.69,0.0,19.0,3235.0,20.0,8.93,-0.17,-1.06,0.08,21.66,3.57,25.14,222.0,,,0.0,1.0,1.0,100.0
2500,1,walk,walk,9742,,9742.0,20.0,1.0,6.0,2.0,10.67,-0.027,0.166,3.048,42.0,25.72,0.0,19.0,3235.0,20.0,9.33,-0.17,-1.06,0.09,22.07,4.99,27.36,222.0,,,0.0,1.0,1.0,100.0
2520,1,walk,walk,9743,,9743.0,20.0,1.0,6.0,2.0,10.81,-0.025,0.147,2.839,42.0,25.76,0.0,19.0,3235.0,20.0,9.86,-0.18,-1.05,0.1,22.48,6.65,29.29,222.0,,,0.0,1.0,1.0,100.0
2540,1,walk,walk,9744,,9744.0,20.0,1.0,6.0,2.0,10.98,-0.023,0.117,2.702,42.0,25.79,0.0,19.0,3235.0,20.0,10.51,-0.19,-1.04,0.11,22.92,8.55,30.89,222.0,,,0.0,1.0,1.0,100.0
2560,1,walk,walk,9745,,9745.0,20.0,1.0,6.0,2.0,11.18,-0.022,0.113,2.584,42.0,25.79,0.0,19.0,3235.0,20.0,11.27,-0.21,-1.03,0.12,23.38,10.63,32.15,222.0,,,0.0,1.0,1.0,100.0
2580,1,walk,walk,9746,,9746.0,20.0,1.0,6.0,2.0,11.41,-0.021,-0.033,2.474,42.0,25.79,0.0,19.0,3235.0,20.0,12.14,-0.22,-1.02,0.12,23.87,12.83,33.06,222.0,,,0.0,1.0,1.0,100.0
2600,1,walk,walk,9747,,9747.0,20.0,1.0,6.0,2.0,11.68,-0.02,0.038,2.306,42.0,25.83,0.0,19.0,3235.0,20.0,13.11,-0.23,-1.01,0.13,24.38,15.05,33.6,222.0,,,0.0,1.0,1.0,100.0
2640,1,walk,walk,9748,,9748.0,20.0,1.0,6.0,2.0,11.97,-0.019,0.099,2.139,42.0,25.83,0.0,19.0,3235.0,20.0,14.14,-0.25,-0.99,0.14,24.9,17.18,33.79,222.0,,,0.0,1.0,1.0,100.0
2660,1,walk,walk,9749,,9749.0,20.0,1.0,6.0,2.0,12.3,-0.017,0.092,1.972,42.0,25.86,0.0,19.0,3235.0,20.0,15.22,-0.27,-0.98,0.14,25.39,19.13,33.68,222.0,,,0.0,1.0,1.0,100.0
2680,1,walk,walk,9750,,9750.0,20.0,1.0,6.0,2.0,12.67,-0.015,0.058,1.806,42.0,25.86,0.0,19.0,3235.0,20.0,16.33,-0.28,-0.97,0.15,25.82,20.82,33.3,222.0,,,0.0,1.0,1.0,100.0
2680,1,walk,walk,9751,,9751.0,20.0,1.0,6.0,2.0,13.06,-0.015,-0.005,1.693,42.0,25.86,0.0,19.0,3235.0,20.0,17.44,-0.3,-0.96,0.15,26.16,22.19,32.71,222.0,,,0.0,1.0,1.0,100.0
2700,1,walk,walk,9752,,9752.0,20.0,1.0,6.0,2.0,13.48,-0.014,0.038,1.6,42.0,25.86,0.0,19.0,3235.0,20.0,18.55,-0.32,-0.95,0.15,26.38,23.19,31.91,222.0,,,0.0,1.0,1.0,100.0
2720,1,walk,walk,9753,,9753.0,20.0,1.0,6.0,2.0,13.93,-0.013,0.029,1.551,42.0,25.9,0.0,19.0,3235.0,20.0,19.68,-0.34,-0.94,0.16,26.45,23.83,30.91,222.0,,,0.0,1.0,1.0,100.0
2740,1,walk,walk,9754,,9754.0,20.0,1.0,6.0,2.0,14.41,-0.013,-0.07,1.527,43.0,25.9,0.0,19.0,3235.0,20.0,20.83,-0.35,-0.93,0.16,26.3,24.13,29.68,222.0,,,0.0,1.0,1.0,100.0
2760,1,walk,walk,9755,,9755.0,20.0,1.0,6.0,2.0,14.91,-0.013,0.068,1.558,43.0,25.9,0.0,19.0,3235.0,20.0,22.04,-0.37,-0.91,0.16,25.86,24.11,28.17,222.0,,,0.0,1.0,1.0,100.0
2780,1,walk,walk,9756,,9756.0,20.0,1.0,6.0,2.0,15.42,-0.013,-0.014,1.554,43.0,25.9,0.0,19.0,3235.0,20.0,23.29,-0.39,-0.9,0.17,25.09,23.81,26.32,222.0,,,0.0,1.0,1.0,100.0
2820,1,walk,walk,9757,,9757.0,20.0,1.0,6.0,2.0,15.95,-0.014,-0.037,1.616,43.0,25.9,0.0,19.0,3235.0,20.0,24.56,-0.4,-0.88,0.17,23.94,23.29,24.1,222.0,,,0.0,1.0,1.0,100.0
2840,1,walk,walk,9758,,9758.0,20.0,1.0,6.0,2.0,16.5,-0.014,-0.136,1.692,43.0,25.9,0.0,19.0,3235.0,20.0,25.79,-0.42,-0.87,0.18,22.42,22.58,21.5,222.0,,,0.0,1.0,1.0,100.0
2860,1,walk,walk,9759,,9759.0,20.0,1.0,6.0,2.0,17.05,-0.015,-0.049,1.781,43.0,25.86,0.0,19.0,3235.0,20.0,26.92,-0.43,-0.85,0.18,20.56,21.75,18.58,222.0,,,0.0,1.0,1.0,100.0
2860,1,walk,walk,9760,,9760.0,20.0,1.0,6.0,2.0,17.6,-0.015,-0.007,1.841,43.0,25.86,0.0,19.0,3235.0,20.0,27.86,-0.44,-0.84,0.19,18.42,20.83,15.44,222.0,,,0.0,1.0,1.0,100.0
2880,1,walk,walk,9761,,9761.0,20.0,1.0,1.0,5.0,18.16,-0.016,-0.017,1.879,43.0,25.86,0.0,19.0,3235.0,21.0,28.57,-0.45,-0.83,0.19,16.08,19.84,12.2,222.0,,,0.0,1.0,1.0,100.0
2920,1,walk,walk,9762,,9762.0,20.0,0.0,1.0,5.0,18.71,-0.016,0.006,1.943,43.0,25.93,0.0,19.0,3235.0,21.0,29.06,-0.46,-0.83,0.2,13.61,18.76,9.46,222.0,,,0.0,1.0,1.0,100.0
2940,1,walk,walk,9763,,9763.0,20.0,0.0,1.0,5.0,19.25,-0.061,-3.512,0.134,43.0,25.93,0.0,19.0,3235.0,21.0,29.34,-0.47,-0.83,0.2,11.11,17.7,7.77,222.0,,,0.0,1.0,1.0,100.0
2940,1,walk,walk,9764,,9764.0,20.0,0.0,1.0,5.0,19.77,-0.11,-3.237,-0.585,43.0,25.9,0.0,19.0,3235.0,21.0,29.43,-0.47,-0.83,0.19,8.64,16.72,7.27,222.0,,,0.0,1.0,1.0,100.0
2980,1,walk,walk,9765,,9765.0,20.0,0.0,1.0,5.0,20.28,-0.15,-2.306,-1.629,43.0,25.83,0.0,19.0,3235.0,21.0,29.37,-0.47,-0.84,0.19,6.25,15.86,7.85,222.0,,,0.0,1.0,1.0,100.0
3000,1,walk,walk,9766,,9766.0,20.0,0.0,1.0,5.0,20.77,-0.181,-1.893,-2.266,43.0,25.76,0.0,19.0,3235.0,21.0,29.18,-0.47,-0.85,0.19,4.04,15.1,9.27,222.0,,,0.0,1.0,1.0,100.0
3000,1,walk,walk,9767,,9767.0,20.0,0.0,1.0,5.0,21.24,-0.205,-1.584,-3.032,43.0,25.72,0.0,19.0,3235.0,21.0,28.9,-0.47,-0.86,0.18,2.07,14.37,11.34,222.0,,,0.0,1.0,1.0,100.0
3020,1,walk,walk,9768,,9768.0,20.0,0.0,1.0,5.0,21.68,-0.224,-1.031,-3.44,43.0,25.62,0.0,19.0,3235.0,21.0,28.55,-0.47,-0.87,0.17,0.39,13.54,13.7,222.0,,,0.0,1.0,1.0,100.0
3040,1,walk,walk,9769,,9769.0,20.0,0.0,1.0,5.0,22.11,-0.238,-0.828,-3.916,43.0,25.58,0.0,19.0,3235.0,21.0,28.18,-0.47,-0.88,0.17,-0.87,12.55,16.18,222.0,,,0.0,1.0,1.0,100.0
3060,1,walk,walk,9770,,9770.0,20.0,0.0,1.0,5.0,22.52,-0.249,-0.7,-4.345,43.0,25.54,0.0,19.0,3235.0,21.0,27.8,-0.47,-0.9,0.16,-1.76,11.37,18.68,222.0,,,0.0,1.0,1.0,100.0
3080,1,walk,walk,9771,,9771.0,20.0,0.0,1.0,5.0,22.92,-0.257,-0.381,-4.599,43.0,25.51,0.0,19.0,3235.0,21.0,27.44,-0.47,-0.91,0.15,-2.29,10.06,21.04,222.0,,,0.0,1.0,1.0,100.0
3100,1,walk,walk,9772,,9772.0,20.0,0.0,1.0,5.0,23.31,-0.262,-0.344,-4.76,43.0,25.47,0.0,19.0,3235.0,21.0,27.11,-0.47,-0.92,0.14,-2.42,8.71,23.26,222.0,,,0.0,1.0,1.0,100.0
3140,1,walk,walk,9773,,9773.0,20.0,0.0,1.0,5.0,23.69,-0.266,-0.113,-4.938,43.0,25.44,0.0,19.0,3235.0,21.0,26.82,-0.47,-0.94,0.14,-2.12,7.44,25.35,222.0,,,0.0,1.0,1.0,100.0
3160,1,walk,walk,9774,,9774.0,20.0,0.0,1.0,5.0,24.07,-0.27,-0.134,-4.918,43.0,25.44,0.0,19.0,3235.0,21.0,26.57,-0.48,-0.95,0.14,-1.43,6.35,27.33,222.0,,,0.0,1.0,1.0,100.0
3160,1,walk,walk,9775,,9775.0,20.0,0.0,1.0,5.0,24.45,-0.272,-0.089,-5.285,43.0,25.4,0.0,19.0,3235.0,21.0,26.37,-0.48,-0.96,0.14,-0.41,5.51,29.14,222.0,,,0.0,1.0,1.0,100.0
3200,1,walk,walk,9776,,9776.0,20.0,0.0,1.0,5.0,24.83,-0.273,-0.052,-5.388,43.0,25.4,0.0,19.0,3235.0,21.0,26.19,-0.48,-0.97,0.14,0.85,5.01,30.66,222.0,,,0.0,1.0,1.0,100.0
3200,1,walk,walk,9777,,9777.0,20.0,0.0,1.0,5.0,25.23,-0.273,-0.042,-5.393,43.0,25.4,0.0,19.0,3235.0,21.0,25.97,-0.48,-0.98,0.15,2.24,4.97,31.72,222.0,,,0.0,1.0,1.0,100.0
3220,1,walk,walk,9778,,9778.0,20.0,0.0,1.0,5.0,25.63,-0.275,-0.181,-5.217,43.0,25.4,0.0,19.0,3235.0,21.0,25.65,-0.47,-0.98,0.15,3.65,5.46,32.15,222.0,,,0.0,1.0,1.0,100.0
3240,1,walk,walk,9779,,9779.0,20.0,0.0,1.0,5.0,26.05,-0.278,-0.205,-5.08,43.0,25.44,0.0,19.0,3235.0,21.0,25.23,-0.46,-0.98,0.16,4.99,6.37,31.75,222.0,,,0.0,1.0,1.0,100.0
3260,1,walk,walk,9780,,9780.0,20.0,0.0,1.0,5.0,26.47,-0.279,-0.097,-5.11,43.0,25.44,0.0,19.0,3235.0,21.0,24.72,-0.45,-0.98,0.16,6.21,7.53,30.38,222.0,,,0.0,1.0,1.0,100.0
3280,1,walk,walk,9781,,9781.0,20.0,0.0,1.0,5.0,26.91,-0.281,-0.201,-5.04,43.0,25.47,0.0,19.0,3235.0,21.0,24.14,-0.44,-0.98,0.16,7.24,8.69,27.94,222.0,,,0.0,1.0,1.0,100.0
3300,1,walk,walk,9782,,9782.0,20.0,0.0,1.0,5.0,27.36,-0.285,-0.206,-4.785,43.0,25.47,0.0,19.0,3235.0,21.0,23.53,-0.43,-0.98,0.16,8.08,9.67,24.47,222.0,,,0.0,1.0,1.0,100.0
3340,1,walk,walk,9783,,9783.0,20.0,0.0,1.0,5.0,27.81,-0.288,-0.207,-4.68,43.0,25.54,0.0,19.0,3235.0,21.0,22.94,-0.42,-0.98,0.16,8.71,10.37,20.04,222.0,,,0.0,1.0,1.0,100.0
3340,1,walk,walk,9784,,9784.0,20.0,0.0,1.0,5.0,28.25,-0.294,-0.41,-4.339,43.0,25.58,0.0,19.0,3235.0,21.0,22.4,-0.4,-0.98,0.16,9.12,10.75,14.79,222.0,,,0.0,1.0,1.0,100.0
3360,1,walk,walk,9785,,9785.0,20.0,0.0,1.0,5.0,28.69,-0.299,-0.34,-4.132,43.0,25.58,0.0,19.0,3235.0,21.0,21.92,-0.39,-0.98,0.16,9.35,10.83,8.85,222.0,,,0.0,1.0,1.0,100.0
3380,1,walk,walk,9786,,9786.0,20.0,0.0,0.0,0.0,29.12,-0.304,-0.414,-3.863,43.0,25.65,0.0,19.0,3235.0,21.0,21.51,-0.39,-0.98,0.16,9.39,10.7,2.33,222.0,,,0.0,1.0,1.0,100.0
3400,1,walk,walk,9787,,9787.0,20.0,2.0,0.0,0.0,29.52,-0.304,-0.414,-3.863,43.0,25.65,0.0,41.0,3235.0,21.0,21.1,-0.38,-0.98,0.16,9.29,10.44,-4.65,222.0,,,0.0,1.0,1.0,100.0
3420,1,walk,walk,9788,,9788.0,20.0,2.0,0.0,0.0,29.88,-0.304,-0.414,-3.863,43.0,25.65,0.0,61.0,3235.0,21.0,20.59,-0.37,-0.98,0.16,9.08,9.93,-13.01,222.0,,,0.0,1.0,1.0,100.0
3440,1,walk,walk,9789,,9789.0,20.0,2.0,0.0,0.0,30.2,-0.304,-0.414,-3.863,43.0,25.65,0.0,81.0,3235.0,21.0,19.96,-0.35,-0.97,0.15,8.81,9.36,-23.25,222.0,,,0.0,1.0,1.0,100.0
3460,1,walk,walk,9790,,9790.0,20.0,2.0,0.0,0.0,30.46,0.085,-32.768,0.0,43.0,25.93,0.0,5.0,3235.0,21.0,19.33,-0.34,-0.97,0.15,8.52,9.4,-34.92,222.0,,,0.0,1.0,1.0,100.0
3480,1,walk,walk,9791,,9791.0,20.0,2.0,0.0,0.0,30.65,0.102,0.167,0.0,43.0,25.97,0.0,5.0,3235.0,21.0,18.81,-0.33,-0.96,0.15,8.23,10.96,-46.92,222.0,,,0.0,1.0,1.0,100.0
3500,1,walk,walk,9792,,9792.0,20.0,2.0,0.0,0.0,30.75,0.099,-0.37,0.0,43.0,25.93,0.0,5.0,3235.0,21.0,18.54,-0.32,-0.95,0.15,7.95,14.89,-58.22,222.0,,,0.0,1.0,1.0,100.0
3520,1,walk,walk,9793,,9793.0,20.0,2.0,0.0,0.0,30.76,0.094,-0.183,0.0,43.0,25.97,0.0,5.0,3235.0,21.0,18.59,-0.32,-0.94,0.15,7.73,21.75,-68.23,222.0,,,0.0,1.0,1.0,100.0
3540,1,walk,walk,9794,,9794.0,20.0,2.0,0.0,0.0,30.67,0.093,0.07,0.0,43.0,25.97,0.0,5.0,3235.0,21.0,19.04,-0.32,-0.92,0.14,7.66,31.43,-76.63,222.0,,,0.0,1.0,1.0,100.0
3560,1,walk,walk,9795,,9795.0,20.0,2.0,0.0,0.0,30.45,0.094,0.028,0.0,43.0,25.93,0.0,5.0,3235.0,21.0,19.93,-0.33,-0.91,0.13,7.77,43.11,-83.23,222.0,,,0.0,1.0,1.0,100.0
3580,1,walk,walk,9796,,9796.0,20.0,2.0,0.0,0.0,30.11,0.096,0.434,0.0,43.0,25.97,0.0,5.0,3235.0,21.0,21.28,-0.35,-0.89,0.11,8.08,55.48,-87.93,222.0,,,0.0,1.0,1.0,100.0
3600,1,walk,walk,9797,,9797.0,20.0,2.0,0.0,0.0,29.64,0.102,0.25,0.0,43.0,25.97,0.0,5.0,3235.0,21.0,23.02,-0.37,-0.87,0.09,8.54,67.12,-90.85,222.0,,,0.0,1.0,1.0,100.0
3620,1,walk,walk,9798,,9798.0,20.0,2.0,0.0,0.0,29.04,0.095,-1.867,0.0,43.0,25.97,0.0,5.0,3235.0,21.0,25.13,-0.4,-0.85,0.06,9.0,76.9,-92.25,222.0,,,0.0,1.0,1.0,100.0
3640,1,walk,walk,9799,,9799.0,20.0,2.0,0.0,0.0,28.31,0.042,-4.001,0.0,43.0,25.97,0.0,5.0,3235.0,21.0,27.53,-0.44,-0.84,0.02,9.27,83.85,-92.35,222.0,,,0.0,1.0,1.0,100.0
3680,1,walk,walk,9800,,9800.0,20.0,1.0,0.0,0.0,27.46,-0.004,-2.095,0.0,43.0,25.97,0.0,4.0,3235.0,21.0,30.05,-0.48,-0.84,-0.01,9.16,87.15,-91.13,222.0,,,0.0,1.0,1.0,100.0
3680,1,walk,walk,9801,,9801.0,20.0,0.0,0.0,0.0,26.51,-0.005,2.117,0.0,43.0,25.97,0.0,3.0,3235.0,21.0,31.96,-0.52,-0.84,-0.03,8.26,85.57,-88.6,222.0,,,0.0,1.0,1.0,100.0
3700,1,walk,walk,9802,,9802.0,20.0,1.0,0.0,0.0,25.46,0.061,2.708,0.0,43.0,25.97,0.0,4.0,3235.0,21.0,32.84,-0.55,-0.85,-0.05,6.89,79.78,-85.62,222.0,,,0.0,1.0,1.0,100.0
3720,1,walk,walk,9803,,9803.0,20.0,1.0,0.0,0.0,24.34,0.044,-1.993,0.0,43.0,25.93,0.0,4.0,3235.0,21.0,32.52,-0.56,-0.87,-0.05,5.07,71.17,-82.32,222.0,,,0.0,1.0,1.0,100.0
3740,1,walk,walk,9804,,9804.0,20.0,1.0,0.0,0.0,23.15,0.033,-0.28,0.0,43.0,25.97,0.0,4.0,3235.0,21.0,31.17,-0.55,-0.9,-0.04,2.81,61.34,-78.25,222.0,,,0.0,1.0,1.0,100.0
3760,1,walk,walk,9805,,9805.0,20.0,1.0,0.0,0.0,21.92,0.03,0.025,0.0,43.0,25.97,0.0,4.0,3235.0,21.0,29.09,-0.52,-0.93,-0.02,0.23,51.54,-73.27,222.0,,,0.0,1.0,1.0,100.0
3780,1,walk,walk,9806,,9806.0,20.0,1.0,0.0,1.0,20.66,0.03,0.089,0.0,43.0,25.97,0.0,4.0,3235.0,21.0,26.57,-0.48,-0.96,0.0,-2.52,42.5,-67.47,222.0,,,0.0,1.0,1.0,100.0
3820,1,walk,walk,9807,,9807.0,20.0,0.0,0.0,1.0,19.39,0.025,-0.514,0.0,43.0,25.97,0.0,3.0,3235.0,21.0,23.89,-0.44,-0.99,0.02,-5.21,34.52,-61.07,222.0,,,0.0,1.0,1.0,100.0
3820,1,walk,walk,9808,,9808.0,20.0,0.0,0.0,1.0,18.12,0.019,-0.323,0.0,43.0,25.97,0.0,3.0,3235.0,21.0,21.22,-0.39,-1.02,0.04,-7.6,27.67,-54.28,222.0,,,0.0,1.0,1.0,100.0
3840,1,walk,walk,9809,,9809.0,20.0,0.0,0.0,1.0,16.86,0.014,-0.265,0.0,43.0,25.97,0.0,3.0,3235.0,21.0,18.71,-0.35,-1.04,0.05,-9.51,21.91,-47.35,222.0,,,0.0,1.0,1.0,100.0
3880,1,walk,walk,9810,,9810.0,20.0,1.0,0.0,1.0,15.62,0.006,-0.781,0.0,43.0,25.97,0.0,4.0,3235.0,21.0,16.4,-0.31,-1.05,0.06,-10.88,17.15,-40.46,222.0,,,0.0,1.0,1.0,100.0
3880,1,walk,walk,9811,,9811.0,20.0,1.0,0.0,1.0,14.43,-0.006,-0.512,0.0,43.0,25.97,0.0,4.0,3235.0,21.0,14.33,-0.27,-1.06,0.06,-11.77,13.29,-33.7,222.0,,,0.0,1.0,1.0,100.0
3900,1,walk,walk,9812,,9812.0,20.0,1.0,0.0,1.0,13.27,-0.013,-0.485,0.0,43.0,25.97,0.0,4.0,3235.0,21.0,12.53,-0.24,-1.06,0.07,-12.28,10.25,-27.18,222.0,,,0.0,1.0,1.0,100.0
3920,1,walk,walk,9813,,9813.0,20.0,1.0,0.0,1.0,12.17,-0.023,-0.871,0.0,43.0,25.97,0.0,4.0,3235.0,21.0,10.98,-0.21,-1.07,0.07,-12.52,7.9,-21.01,222.0,,,0.0,1.0,1.0,100.0
3940,1,walk,walk,9814,,9814.0,20.0,1.0,0.0,1.0,11.13,-0.033,-0.562,0.0,43.0,25.97,0.0,4.0,3235.0,21.0,9.68,-0.18,-1.07,0.07,-12.54,6.13,-15.22,222.0,,,0.0,1.0,1.0,100.0
3960,1,walk,walk,9815,,9815.0,20.0,1.0,0.0,1.0,10.16,-0.042,-0.746,0.0,43.0,25.97,0.0,4.0,3235.0,21.0,8.61,-0.16,-1.07,0.07,-12.4,4.8,-9.88,222.0,,,0.0,1.0,1.0,100.0
3980,1,walk,walk,9816,,9816.0,20.0,1.0,0.0,1.0,9.26,-0.055,-0.684,0.0,43.0,25.97,0.0,4.0,3235.0,21.0,7.76,-0.14,-1.06,0.06,-12.11,3.81,-4.99,222.0,,,0.0,1.0,1.0,100.0
4000,1,walk,walk,9817,,9817.0,20.0,1.0,0.0,1.0,8.43,-0.065,-0.7,0.0,43.0,25.97,0.0,4.0,3235.0,21.0,7.1,-0.13,-1.06,0.06,-11.69,3.11,-0.56,222.0,,,0.0,1.0,1.0,100.0
4020,1,walk,walk,9818,,9818.0,20.0,0.0,0.0,1.0,7.69,-0.078,-0.9,0.0,43.0,25.97,0.0,3.0,3235.0,21.0,6.61,-0.12,-1.06,0.06,-11.16,2.62,3.42,222.0,,,0.0,1.0,1.0,100.0
4060,1,walk,walk,9819,,9819.0,20.0,0.0,0.0,1.0,7.02,-0.089,-0.702,0.0,43.0,25.97,0.0,3.0,3235.0,21.0,6.27,-0.12,-1.05,0.05,-10.57,2.32,7.0,222.0,,,0.0,1.0,1.0,100.0
4080,1,walk,walk,9820,,9820.0,20.0,0.0,0.0,1.0,6.44,-0.102,-0.986,0.0,43.0,25.97,0.0,3.0,3235.0,21.0,6.05,-0.11,-1.05,0.05,-9.95,2.16,10.2,222.0,,,0.0,1.0,1.0,100.0
4080,1,walk,walk,9821,,9821.0,20.0,0.0,0.0,1.0,5.94,-0.113,-0.613,0.0,43.0,25.97,0.0,3.0,3235.0,21.0,5.94,-0.11,-1.04,0.05,-9.37,2.09,13.07,222.0,,,0.0,1.0,1.0,100.0
4100,1,walk,walk,9822,,9822.0,20.0,0.0,0.0,1.0,5.52,-0.124,-0.796,0.0,43.0,25.97,0.0,3.0,3235.0,21.0,5.94,-0.11,-1.04,0.05,-8.87,2.06,15.63,222.0,,,0.0,1.0,1.0,100.0
4120,1,walk,walk,9823,,9823.0,20.0,0.0,0.0,1.0,5.17,-0.135,-0.679,0.0,43.0,25.97,0.0,3.0,3235.0,21.0,6.02,-0.11,-1.04,0.04,-8.49,2.04,17.91,222.0,,,0.0,1.0,1.0,100.0
4160,1,walk,walk,9824,,9824.0,20.0,0.0,0.0,1.0,4.91,-0.142,-0.408,0.0,43.0,25.97,0.0,3.0,3235.0,21.0,6.18,-0.11,-1.03,0.04,-8.24,2.03,19.9,222.0,,,0.0,1.0,1.0,100.0
4180,1,walk,walk,9825,,9825.0,20.0,0.0,0.0,1.0,4.72,-0.15,-0.707,0.0,43.0,25.97,0.0,3.0,3235.0,21.0,6.42,-0.12,-1.03,0.04,-8.11,2.03,21.56,222.0,,,0.0,1.0,1.0,100.0
4180,1,walk,walk,9826,,9826.0,20.0,0.0,0.0,1.0,4.6,-0.158,-0.343,0.0,43.0,25.97,0.0,3.0,3235.0,21.0,6.72,-0.12,-1.03,0.04,-8.08,2.04,22.9,222.0,,,0.0,1.0,1.0,100.0
4200,1,walk,walk,9827,,9827.0,20.0,0.0,0.0,1.0,4.55,-0.162,-0.202,0.0,43.0,25.97,0.0,3.0,3235.0,21.0,7.09,-0.13,-1.02,0.03,-8.14,2.07,23.9,222.0,,,0.0,1.0,1.0,100.0
4220,1,walk,walk,9828,,9828.0,20.0,0.0,0.0,1.0,4.56,-0.163,0.003,0.0,43.0,25.97,0.0,3.0,3235.0,21.0,7.52,-0.13,-1.02,0.03,-8.31,2.1,24.47,222.0,,,0.0,1.0,1.0,100.0
4240,1,walk,walk,9829,,9829.0,20.0,0.0,0.0,1.0,4.63,-0.164,-0.017,0.0,43.0,25.97,0.0,3.0,3235.0,21.0,7.99,-0.14,-1.02,0.03,-8.58,2.14,24.57,222.0,,,0.0,1.0,1.0,100.0
4260,1,walk,walk,9830,,9830.0,20.0,0.0,0.0,1.0,4.76,-0.166,-0.131,0.0,43.0,25.97,0.0,3.0,3235.0,21.0,8.49,-0.15,-1.01,0.03,-8.94,2.18,24.22,222.0,,,0.0,1.0,1.0,100.0
4300,1,walk,walk,9831,,9831.0,20.0,0.0,0.0,1.0,4.93,-0.168,-0.119,0.0,43.0,25.97,0.0,3.0,3235.0,21.0,8.99,-0.16,-1.01,0.02,-9.38,2.22,23.47,222.0,,,0.0,1.0,1.0,100.0
4300,1,walk,walk,9832,,9832.0,20.0,0.0,0.0,1.0,5.16,-0.17,-0.261,0.0,43.0,25.93,0.0,3.0,3235.0,21.0,9.48,-0.17,-1.01,0.02,-9.85,2.25,22.42,222.0,,,0.0,1.0,1.0,100.0
4320,1,walk,walk,9833,,9833.0,20.0,0.0,0.0,1.0,5.42,-0.176,-0.534,0.0,43.0,25.97,0.0,3.0,3235.0,21.0,9.95,-0.18,-1.01,0.02,-10.31,2.29,21.2,222.0,,,0.0,1.0,1.0,100.0
4340,1,walk,walk,9834,,9834.0,20.0,0.0,0.0,1.0,5.71,-0.183,-0.421,0.0,43.0,25.97,0.0,3.0,3235.0,21.0,10.38,-0.18,-1.01,0.01,-10.67,2.34,19.97,222.0,,,0.0,1.0,1.0,100.0
4360,1,walk,walk,9835,,9835.0,20.0,0.0,0.0,1.0,6.03,-0.187,-0.383,0.0,43.0,25.97,0.0,3.0,3235.0,21.0,10.76,-0.19,-1.01,0.01,-10.88,2.4,18.84,222.0,,,0.0,1.0,1.0,100.0
4380,1,walk,walk,9836,,9836.0,20.0,0.0,0.0,1.0,6.38,-0.193,-0.515,0.0,43.0,25.97,0.0,3.0,3235.0,21.0,11.09,-0.2,-1.01,0.0,-10.87,2.44,17.88,222.0,,,0.0,1.0,1.0,100.0
4440,1,walk,walk,9837,,9837.0,20.0,0.0,6.0,2.0,6.74,-0.204,-0.919,0.0,43.0,25.97,0.0,3.0,3235.0,21.0,11.38,-0.2,-1.01,-0.01,-10.6,2.47,17.2,222.0,,,0.0,1.0,1.0,100.0
4460,1,walk,walk,9838,,9838.0,20.0,0.0,6.0,2.0,7.12,-0.207,-1.138,0.181,43.0,25.9,0.0,18.0,3235.0,21.0,11.71,-0.21,-1.01,-0.02,-10.08,1.7,16.53,222.0,,,0.0,1.0,1.0,100.0
4460,1,walk,walk,9839,,9839.0,20.0,0.0,6.0,2.0,7.5,-0.15,4.214,4.985,43.0,25.12,0.0,18.0,3235.0,21.0,12.07,-0.21,-1.01,-0.02,-9.35,-0.34,15.03,222.0,,,0.0,1.0,1.0,100.0
4480,1,walk,walk,9840,,9840.0,20.0,0.0,6.0,2.0,7.89,-0.104,2.113,6.851,43.0,24.88,0.0,18.0,3235.0,21.0,12.39,-0.22,-1.0,-0.03,-8.44,-3.42,12.56,222.0,,,0.0,1.0,1.0,100.0
4480,1,walk,walk,9841,,9841.0,20.0,0.0,6.0,2.0,8.28,-0.09,0.264,9.203,43.0,24.35,0.0,18.0,3235.0,21.0,12.6,-0.22,-1.01,-0.03,-7.36,-6.96,9.6,222.0,,,0.0,1.0,1.0,100.0
4500,1,walk,walk,9842,,9842.0,20.0,1.0,6.0,2.0,8.66,-0.086,0.41,9.466,43.0,24.21,0.0,19.0,3235.0,21.0,12.72,-0.23,-1.01,-0.04,-6.11,-10.4,6.58,222.0,,,0.0,1.0,1.0,100.0
4520,1,walk,walk,9843,,9843.0,20.0,0.0,6.0,2.0,9.03,-0.081,0.312,9.24,43.0,24.32,0.0,18.0,3235.0,21.0,12.77,-0.23,-1.01,-0.04,-4.7,-13.31,3.81,222.0,,,0.0,1.0,1.0,100.0
4540,1,walk,walk,9844,,9844.0,20.0,1.0,6.0,2.0,9.39,-0.075,0.258,8.826,43.0,24.42,0.0,19.0,3235.0,21.0,12.8,-0.23,-1.01,-0.04,-3.18,-15.46,1.46,222.0,,,0.0,1.0,1.0,100.0
4560,1,walk,walk,9845,,9845.0,20.0,1.0,6.0,2.0,9.74,-0.073,0.285,8.496,43.0,24.53,0.0,19.0,3235.0,21.0,12.82,-0.23,-1.01,-0.04,-1.6,-16.77,-0.48,222.0,,,0.0,1.0,1.0,100.0
4580,1,walk,walk,9846,,9846.0,20.0,1.0,6.0,2.0,10.06,-0.068,0.268,8.068,43.0,24.7,0.0,19.0,3235.0,21.0,12.84,-0.23,-1.01,-0.04,-0.03,-17.26,-2.03,222.0,,,0.0,1.0,1.0,100.0
4600,1,walk,walk,9847,,9847.0,20.0,1.0,6.0,2.0,10.36,-0.065,0.242,7.727,43.0,24.81,0.0,19.0,3235.0,21.0,12.88,-0.23,-1.01,-0.04,1.47,-17.04,-3.28,222.0,,,0.0,1.0,1.0,100.0
4620,1,walk,walk,9848,,9848.0,20.0,1.0,6.0,2.0,10.63,-0.062,0.285,7.382,43.0,24.91,0.0,19.0,3235.0,21.0,12.91,-0.23,-1.01,-0.04,2.85,-16.25,-4.29,222.0,,,0.0,1.0,1.0,100.0
4640,1,walk,walk,9849,,9849.0,20.0,1.0,6.0,2.0,10.87,-0.06,0.006,7.253,43.0,24.95,0.0,19.0,3235.0,21.0,12.95,-0.23,-1.01,-0.03,4.09,-15.03,-5.1,222.0,,,0.0,1.0,1.0,100.0
4660,1,walk,walk,9850,,9850.0,20.0,1.0,6.0,2.0,11.08,-0.059,0.025,7.132,43.0,24.98,0.0,19.0,3235.0,21.0,12.96,-0.23,-1.0,-0.03,5.17,-13.54,-5.72,222.0,,,0.0,1.0,1.0,100.0
4680,1,walk,walk,9851,,9851.0,20.0,1.0,6.0,2.0,11.26,-0.059,0.073,7.06,43.0,25.02,0.0,19.0,3235.0,21.0,12.93,-0.23,-1.0,-0.03,6.11,-11.93,-6.15,222.0,,,0.0,1.0,1.0,100.0
4700,1,walk,walk,9852,,9852.0,20.0,1.0,6.0,2.0,11.41,-0.058,0.003,7.031,43.0,25.02,0.0,19.0,3235.0,21.0,12.85,-0.23,-1.0,-0.03,6.93,-10.31,-6.36,222.0,,,0.0,1.0,1.0,100.0
4720,1,walk,walk,9853,,9853.0,20.0,1.0,6.0,2.0,11.53,-0.058,0.014,7.048,43.0,25.02,0.0,19.0,3235.0,21.0,12.71,-0.23,-1.0,-0.02,7.65,-8.74,-6.31,222.0,,,0.0,1.0,1.0,100.0
4740,1,walk,walk,9854,,9854.0,20.0,1.0,6.0,2.0,11.62,-0.058,0.006,7.064,43.0,25.02,0.0,19.0,3235.0,21.0,12.52,-0.22,-1.0,-0.02,8.3,-7.28,-5.99,222.0,,,0.0,1.0,1.0,100.0
4780,1,walk,walk,9855,,9855.0,20.0,1.0,6.0,2.0,11.69,-0.058,-0.013,7.041,43.0,25.02,0.0,19.0,3235.0,21.0,12.28,-0.22,-1.0,-0.02,8.9,-5.96,-5.37,222.0,,,0.0,1.0,1.0,100.0
4780,1,walk,walk,9856,,9856.0,20.0,1.0,6.0,2.0,11.73,-0.058,-0.033,7.035,43.0,25.02,0.0,19.0,3235.0,21.0,12.0,-0.21,-1.01,-0.02,9.47,-4.8,-4.47,222.0,,,0.0,1.0,1.0,100.0
4800,1,walk,walk,9857,,9857.0,20.0,1.0,6.0,2.0,11.76,-0.057,0.062,6.883,43.0,25.05,0.0,19.0,3235.0,21.0,11.7,-0.21,-1.01,-0.01,10.02,-3.82,-3.3,222.0,,,0.0,1.0,1.0,100.0
4840,1,walk,walk,9858,,9858.0,20.0,1.0,6.0,2.0,11.76,-0.056,0.148,6.672,43.0,25.09,0.0,19.0,3235.0,21.0,11.39,-0.2,-1.01,-0.01,10.58,-3.0,-1.89,222.0,,,0.0,1.0,1.0,100.0
4840,1,walk,walk,9859,,9859.0,20.0,1.0,6.0,2.0,11.76,-0.054,0.178,6.437,43.0,25.16,0.0,19.0,3235.0,21.0,11.09,-0.2,-1.02,-0.01,11.14,-2.28,-0.26,222.0,,,0.0,1.0,1.0,100.0
4860,1,walk,walk,9860,,9860.0,20.0,1.0,6.0,2.0,11.74,-0.052,0.1,6.336,43.0,25.19,0.0,19.0,3235.0,21.0,10.84,-0.2,-1.02,-0.01,11.72,-1.63,1.54,222.0,,,0.0,1.0,1.0,100.0
4880,1,walk,walk,9861,,9861.0,20.0,1.0,6.0,2.0,11.71,-0.051,0.054,6.182,43.0,25.23,0.0,19.0,3235.0,21.0,10.66,-0.19,-1.03,0.0,12.31,-1.0,3.42,222.0,,,0.0,1.0,1.0,100.0
4900,1,walk,walk,9862,,9862.0,20.0,1.0,6.0,2.0,11.68,-0.05,0.122,5.937,43.0,25.26,0.0,19.0,3235.0,21.0,10.6,-0.19,-1.03,0.0,12.87,-0.39,5.26,222.0,,,0.0,1.0,1.0,100.0
4940,1,walk,walk,9863,,9863.0,20.0,1.0,6.0,2.0,11.65,-0.049,0.056,5.844,43.0,25.33,0.0,19.0,3235.0,21.0,10.69,-0.19,-1.03,0.01,13.36,0.19,6.91,222.0,,,0.0,1.0,1.0,100.0
4940,1,walk,walk,9864,,9864.0,20.0,1.0,6.0,2.0,11.62,-0.047,0.054,5.779,43.0,25.33,0.0,19.0,3235.0,21.0,10.91,-0.2,-1.02,0.01,13.73,0.73,8.26,222.0,,,0.0,1.0,1.0,100.0
4960,1,walk,walk,9865,,9865.0,20.0,1.0,6.0,2.0,11.6,-0.047,-0.022,5.766,43.0,25.33,0.0,19.0,3235.0,21.0,11.27,-0.2,-1.02,0.02,13.94,1.2,9.24,222.0,,,0.0,1.0,1.0,100.0
4980,1,walk,walk,9866,,9866.0,20.0,1.0,6.0,2.0,11.59,-0.047,0.032,5.78,43.0,25.33,0.0,19.0,3235.0,21.0,11.73,-0.21,-1.01,0.02,13.94,1.58,9.81,222.0,,,0.0,1.0,1.0,100.0
5000,1,walk,walk,9867,,9867.0,20.0,1.0,6.0,2.0,11.59,-0.047,0.041,5.736,43.0,25.33,0.0,19.0,3235.0,21.0,12.24,-0.22,-1.0,0.03,13.74,1.84,9.95,222.0,,,0.0,1.0,1.0,100.0
5020,1,walk,walk,9868,,9868.0,20.0,1.0,6.0,2.0,11.61,-0.047,-0.029,5.714,43.0,25.33,0.0,19.0,3235.0,21.0,12.76,-0.23,-0.99,0.03,13.34,2.0,9.72,222.0,,,0.0,1.0,1.0,100.0
5040,1,walk,walk,9869,,9869.0,20.0,1.0,6.0,2.0,11.64,-0.047,0.014,5.736,43.0,25.33,0.0,19.0,3235.0,21.0,13.24,-0.23,-0.99,0.04,12.77,2.06,9.18,222.0,,,0.0,1.0,1.0,100.0
5060,1,walk,walk,9870,,9870.0,20.0,1.0,6.0,2.0,11.69,-0.047,0.021,5.74,43.0,25.33,0.0,19.0,3235.0,21.0,13.65,-0.24,-0.98,0.05,12.07,2.05,8.42,222.0,,,0.0,1.0,1.0,100.0
5080,1,walk,walk,9871,,9871.0,20.0,1.0,6.0,2.0,11.75,-0.047,0.038,5.748,43.0,25.33,0.0,19.0,3235.0,21.0,13.97,-0.24,-0.98,0.05,11.29,2.0,7.54,222.0,,,0.0,1.0,1.0,100.0
5120,1,walk,walk,9872,,9872.0,20.0,1.0,6.0,2.0,11.83,-0.047,0.032,5.736,43.0,25.37,0.0,19.0,3235.0,21.0,14.17,-0.25,-0.98,0.05,10.46,1.94,6.61,222.0,,,0.0,1.0,1.0,100.0
5120,1,walk,walk,9873,,9873.0,20.0,1.0,6.0,2.0,11.92,-0.047,-0.066,5.717,43.0,25.37,0.0,19.0,3235.0,21.0,14.27,-0.25,-0.98,0.06,9.62,1.89,5.73,222.0,,,0.0,1.0,1.0,100.0
5140,1,walk,walk,9874,,9874.0,20.0,1.0,6.0,2.0,12.03,-0.046,0.041,5.57,43.0,25.37,0.0,19.0,3235.0,21.0,14.29,-0.25,-0.98,0.06,8.79,1.88,4.93,222.0,,,0.0,1.0,1.0,100.0
5160,1,walk,walk,9875,,9875.0,20.0,1.0,6.0,2.0,12.14,-0.045,0.058,5.371,43.0,25.4,0.0,19.0,3235.0,21.0,14.25,-0.25,-0.98,0.06,7.99,1.9,4.24,222.0,,,0.0,1.0,1.0,100.0
5180,1,walk,walk,9876,,9876.0,20.0,1.0,6.0,2.0,12.26,-0.044,0.096,5.208,43.0,25.44,0.0,19.0,3235.0,21.0,14.18,-0.25,-0.98,0.07,7.23,1.94,3.68,222.0,,,0.0,1.0,1.0,100.0
5200,1,walk,walk,9877,,9877.0,20.0,1.0,6.0,2.0,12.39,-0.043,0.057,5.087,43.0,25.47,0.0,19.0,3235.0,21.0,14.1,-0.25,-0.99,0.07,6.52,2.0,3.23,222.0,,,0.0,1.0,1.0,100.0
5220,1,walk,walk,9878,,9878.0,20.0,1.0,6.0,2.0,12.51,-0.041,0.142,4.898,43.0,25.51,0.0,19.0,3235.0,21.0,14.02,-0.25,-0.99,0.07,5.88,2.06,2.91,222.0,,,0.0,1.0,1.0,100.0
5240,1,walk,walk,9879,,9879.0,20.0,1.0,6.0,2.0,12.64,-0.04,0.105,4.756,43.0,25.51,0.0,19.0,3235.0,21.0,13.95,-0.25,-0.99,0.07,5.31,2.1,2.7,222.0,,,0.0,1.0,1.0,100.0
5260,1,walk,walk,9880,,9880.0,20.0,1.0,6.0,2.0,12.76,-0.039,0.096,4.609,43.0,25.51,0.0,19.0,3235.0,21.0,13.89,-0.25,-0.99,0.07,4.83,2.13,2.59,222.0,,,0.0,1.0,1.0,100.0
5280,1,walk,walk,9881,,9881.0,20.0,1.0,6.0,2.0,12.88,-0.038,0.07,4.497,43.0,25.54,0.0,19.0,3235.0,21.0,13.86,-0.25,-1.0,0.07,4.44,2.15,2.56,222.0,,,0.0,1.0,1.0,100.0
5300,1,walk,walk,9882,,9882.0,20.0,1.0,6.0,2.0,13.0,-0.037,0.101,4.429,43.0,25.54,0.0,19.0,3235.0,21.0,13.85,-0.25,-1.0,0.07,4.14,2.17,2.59,222.0,,,0.0,1.0,1.0,100.0
5320,1,walk,walk,9883,,9883.0,20.0,1.0,6.0,2.0,13.11,-0.036,0.025,4.299,43.0,25.58,0.0,19.0,3235.0,21.0,13.85,-0.25,-1.0,0.07,3.92,2.18,2.66,222.0,,,0.0,1.0,1.0,100.0
5340,1,walk,walk,9884,,9884.0,20.0,1.0,6.0,2.0,13.22,-0.035,0.032,4.144,43.0,25.58,0.0,19.0,3235.0,21.0,13.87,-0.25,-1.0,0.07,3.76,2.2,2.74,222.0,,,0.0,1.0,1.0,100.0
5360,1,walk,walk,9885,,9885.0,20.0,1.0,6.0,2.0,13.32,-0.034,0.036,3.963,43.0,25.62,0.0,19.0,3235.0,21.0,13.91,-0.25,-1.0,0.07,3.63,2.22,2.8,222.0,,,0.0,1.0,1.0,100.0
5380,1,walk,walk,9886,,9886.0,20.0,1.0,6.0,2.0,13.41,-0.032,0.083,3.888,43.0,25.65,0.0,19.0,3235.0,21.0,13.97,-0.25,-1.0,0.07,3.52,2.25,2.84,222.0,,,0.0,1.0,1.0,100.0
5400,1,walk,walk,9887,,9887.0,20.0,1.0,6.0,2.0,13.5,-0.031,0.152,3.721,43.0,25.65,0.0,19.0,3235.0,21.0,14.03,-0.25,-1.0,0.07,3.41,2.27,2.86,222.0,,,0.0,1.0,1.0,100.0
5420,1,walk,walk,9888,,9888.0,20.0,1.0,6.0,2.0,13.58,-0.03,0.062,3.632,43.0,25.65,0.0,19.0,3235.0,21.0,14.09,-0.25,-1.0,0.07,3.29,2.28,2.86,222.0,,,0.0,1.0,1.0,100.0
5440,1,walk,walk,9889,,9889.0,20.0,1.0,6.0,2.0,13.66,-0.03,0.087,3.539,43.0,25.69,0.0,19.0,3235.0,21.0,14.15,-0.25,-1.0,0.07,3.17,2.29,2.87,222.0,,,0.0,1.0,1.0,100.0
5460,1,walk,walk,9890,,9890.0,20.0,1.0,6.0,2.0,13.73,-0.029,0.041,3.435,43.0,25.69,0.0,19.0,3235.0,21.0,14.2,-0.25,-1.0,0.07,3.08,2.29,2.89,222.0,,,0.0,1.0,1.0,100.0
5480,1,walk,walk,9891,,9891.0,20.0,1.0,6.0,2.0,13.81,-0.028,0.189,3.327,44.0,25.69,0.0,19.0,3235.0,21.0,14.24,-0.25,-1.0,0.07,3.04,2.3,2.95,222.0,,,0.0,1.0,1.0,100.0
5500,1,walk,walk,9892,,9892.0,20.0,1.0,6.0,2.0,13.87,-0.028,-0.018,3.208,44.0,25.72,0.0,19.0,3235.0,21.0,14.27,-0.25,-1.0,0.07,3.08,2.31,3.06,222.0,,,0.0,1.0,1.0,100.0
5520,1,walk,walk,9893,,9893.0,20.0,1.0,6.0,2.0,13.94,-0.027,0.023,3.221,44.0,25.72,0.0,19.0,3235.0,21.0,14.28,-0.25,-1.0,0.07,3.23,2.32,3.22,222.0,,,0.0,1.0,1.0,100.0
5540,1,walk,walk,9894,,9894.0,20.0,1.0,6.0,2.0,14.0,-0.026,0.065,3.131,44.0,25.72,0.0,19.0,3235.0,21.0,14.28,-0.25,-1.0,0.07,3.5,2.36,3.46,222.0,,,0.0,1.0,1.0,100.0
5560,1,walk,walk,9895,,9895.0,20.0,1.0,6.0,2.0,14.07,-0.026,0.07,3.084,44.0,25.76,0.0,19.0,3235.0,21.0,14.28,-0.25,-1.0,0.07,3.89,2.4,3.78,222.0,,,0.0,1.0,1.0,100.0
5580,1,walk,walk,9896,,9896.0,20.0,1.0,6.0,2.0,14.13,-0.025,0.001,2.991,44.0,25.76,0.0,19.0,3235.0,21.0,14.27,-0.25,-1.0,0.07,4.4,2.43,4.18,222.0,,,0.0,1.0,1.0,100.0
5600,1,walk,walk,9897,,9897.0,20.0,1.0,6.0,2.0,14.19,-0.025,0.04,3.007,44.0,25.76,0.0,19.0,3235.0,21.0,14.26,-0.25,-1.0,0.07,5.02,2.45,4.67,222.0,,,0.0,1.0,1.0,100.0
5620,1,walk,walk,9898,,9898.0,20.0,1.0,6.0,2.0,14.25,-0.025,0.001,2.942,44.0,25.76,0.0,19.0,3235.0,21.0,14.24,-0.25,-1.0,0.07,5.74,2.5,5.24,222.0,,,0.0,1.0,1.0,100.0
5640,1,walk,walk,9899,,9899.0,20.0,2.0,6.0,2.0,14.31,-0.024,0.009,2.838,44.0,25.76,0.0,20.0,3235.0,21.0,14.21,-0.25,-1.01,0.07,6.55,2.6,5.9,222.0,,,0.0,1.0,1.0,100.0
5660,1,walk,walk,9900,,9900.0,20.0,2.0,6.0,2.0,14.37,-0.023,0.048,2.698,44.0,25.79,0.0,20.0,3235.0,21.0,14.15,-0.25,-1.01,0.07,7.44,2.82,6.65,222.0,,,0.0,1.0,1.0,100.0
5680,1,walk,walk,9901,,9901.0,20.0,2.0,6.0,2.0,14.44,-0.022,0.1,2.544,44.0,25.79,0.0,20.0,3235.0,21.0,14.05,-0.25,-1.01,0.08,8.41,3.27,7.5,222.0,,,0.0,1.0,1.0,100.0
5700,1,walk,walk,9902,,9902.0,20.0,2.0,6.0,2.0,14.5,-0.02,0.101,2.298,44.0,25.83,0.0,20.0,3235.0,21.0,13.91,-0.25,-1.01,0.08,9.48,4.04,8.43,222.0,,,0.0,1.0,1.0,100.0
5720,1,walk,walk,9903,,9903.0,20.0,2.0,6.0,2.0,14.58,-0.018,0.203,1.995,44.0,25.83,0.0,20.0,3235.0,21.0,13.72,-0.25,-1.02,0.09,10.63,5.24,9.45,222.0,,,0.0,1.0,1.0,100.0
5760,1,walk,walk,9904,,9904.0,20.0,2.0,6.0,2.0,14.65,-0.015,0.111,1.695,44.0,25.86,0.0,20.0,3235.0,21.0,13.5,-0.25,-1.02,0.09,11.86,6.92,10.56,222.0,,,0.0,1.0,1.0,100.0
5760,1,walk,walk,9905,,9905.0,20.0,2.0,6.0,2.0,14.73,-0.013,0.089,1.432,44.0,25.9,0.0,20.0,3235.0,21.0,13.29,-0.24,-1.03,0.1,13.13,9.1,11.76,222.0,,,0.0,1.0,1.0,100.0
5800,1,walk,walk,9906,,9906.0,20.0,2.0,6.0,2.0,14.82,-0.01,0.092,1.186,44.0,25.9,0.0,19.0,3235.0,21.0,13.1,-0.24,-1.03,0.11,14.42,11.73,13.02,222.0,,,0.0,1.0,1.0,100.0
5840,1,walk,walk,9907,,9907.0,20.0,2.0,6.0,2.0,14.92,-0.009,0.12,0.963,44.0,25.9,0.0,19.0,3235.0,21.0,12.97,-0.24,-1.03,0.12,15.68,14.75,14.29,222.0,,,0.0,1.0,1.0,100.0
5840,1,walk,walk,9908,,9908.0,20.0,2.0,6.0,2.0,15.02,-0.007,0.069,0.835,44.0,25.93,0.0,19.0,3235.0,21.0,12.9,-0.24,-1.03,0.13,16.88,18.04,15.48,222.0,,,0.0,1.0,1.0,100.0
5840,1,walk,walk,9909,,9909.0,20.0,2.0,6.0,2.0,15.14,-0.006,0.079,0.626,44.0,25.93,0.0,19.0,3235.0,21.0,12.89,-0.24,-1.03,0.14,18.0,21.44,16.48,222.0,,,0.0,1.0,1.0,100.0
5860,1,walk,walk,9910,,9910.0,20.0,2.0,6.0,2.0,15.26,-0.005,0.026,0.552,44.0,25.93,0.0,19.0,3235.0,21.0,12.93,-0.24,-1.02,0.14,19.02,24.78,17.17,222.0,,,0.0,1.0,1.0,100.0
5880,1,walk,walk,9911,,9911.0,20.0,2.0,6.0,2.0,15.4,-0.004,0.017,0.397,44.0,25.93,0.0,19.0,3235.0,21.0,13.02,-0.24,-1.02,0.15,19.93,27.94,17.48,222.0,,,0.0,1.0,1.0,100.0
5900,1,walk,walk,9912,,9912.0,20.0,2.0,6.0,2.0,15.55,-0.003,-0.011,0.253,44.0,25.93,0.0,19.0,3235.0,21.0,13.17,-0.24,-1.01,0.15,20.76,30.83,17.34,222.0,,,0.0,1.0,1.0,100.0
5940,1,walk,walk,9913,,9913.0,20.0,2.0,6.0,2.0,15.7,-0.002,0.048,0.153,44.0,25.93,0.0,19.0,3235.0,21.0,13.38,-0.24,-1.0,0.15,21.54,33.44,16.7,222.0,,,0.0,1.0,1.0,100.0
5940,1,walk,walk,9914,,9914.0,20.0,1.0,6.0,2.0,15.87,-0.001,0.073,-0.025,44.0,25.93,0.0,17.0,3235.0,21.0,13.68,-0.24,-0.99,0.15,22.32,35.79,15.62,222.0,,,0.0,1.0,1.0,100.0
5960,1,walk,walk,9915,,9915.0,20.0,1.0,6.0,2.0,16.05,0.0,0.014,-0.062,44.0,25.93,0.0,17.0,3235.0,21.0,14.06,-0.25,-0.98,0.15,23.1,37.92,14.16,222.0,,,0.0,1.0,1.0,100.0
5980,1,walk,walk,9916,,9916.0,20.0,1.0,6.0,2.0,16.24,0.001,0.041,-0.227,44.0,25.93,0.0,17.0,3235.0,21.0,14.53,-0.25,-0.97,0.15,23.91,39.88,12.45,222.0,,,0.0,1.0,1.0,100.0
6000,1,walk,walk,9917,,9917.0,20.0,1.0,6.0,2.0,16.43,0.001,0.076,-0.322,44.0,25.93,0.0,17.0,3235.0,21.0,15.08,-0.26,-0.97,0.15,24.71,41.69,10.62,222.0,,,0.0,1.0,1.0,100.0
6020,1,walk,walk,9918,,9918.0,20.0,1.0,6.0,2.0,16.63,0.002,0.081,-0.397,44.0,25.93,0.0,17.0,3235.0,21.0,15.7,-0.27,-0.96,0.14,25.5,43.34,8.78,222.0,,,0.0,1.0,1.0,100.0
6040,1,walk,walk,9919,,9919.0,20.0,1.0,6.0,2.0,16.83,0.003,0.116,-0.465,44.0,25.93,0.0,17.0,3235.0,21.0,16.38,-0.28,-0.96,0.14,26.23,44.83,7.01,222.0,,,0.0,1.0,1.0,100.0
6080,1,walk,walk,9920,,9920.0,20.0,1.0,6.0,2.0,17.02,0.004,0.042,-0.531,44.0,25.93,0.0,17.0,3235.0,21.0,17.11,-0.29,-0.95,0.14,26.88,46.1,5.39,222.0,,,0.0,1.0,1.0,100.0
6080,1,walk,walk,9921,,9921.0,20.0,1.0,6.0,2.0,17.21,0.004,0.108,-0.601,44.0,25.93,0.0,17.0,3235.0,21.0,17.89,-0.31,-0.95,0.13,27.42,47.11,3.97,222.0,,,0.0,1.0,1.0,100.0
6100,1,walk,walk,9922,,9922.0,20.0,1.0,6.0,2.0,17.4,0.004,0.041,-0.678,44.0,25.93,0.0,17.0,3235.0,21.0,18.69,-0.32,-0.95,0.13,27.8,47.78,2.77,222.0,,,0.0,1.0,1.0,100.0
6120,1,walk,walk,9923,,9923.0,20.0,1.0,6.0,2.0,17.58,0.005,-0.023,-0.708,44.0,25.93,0.0,17.0,3235.0,21.0,19.51,-0.34,-0.95,0.13,27.98,48.05,1.81,222.0,,,0.0,1.0,1.0,100.0
6140,1,walk,walk,9924,,9924.0,20.0,1.0,6.0,2.0,17.75,0.006,0.12,-0.797,44.0,25.93,0.0,17.0,3235.0,21.0,20.3,-0.35,-0.95,0.12,27.92,47.85,1.06,222.0,,,0.0,1.0,1.0,100.0
6160,1,walk,walk,9925,,9925.0,20.0,1.0,6.0,2.0,17.91,0.007,0.05,-0.893,44.0,25.93,0.0,17.0,3235.0,21.0,21.05,-0.36,-0.94,0.12,27.61,47.14,0.48,222.0,,,0.0,1.0,1.0,100.0
6180,1,walk,walk,9926,,9926.0,20.0,1.0,6.0,2.0,18.05,0.007,0.026,-0.944,44.0,25.93,0.0,17.0,3235.0,21.0,21.73,-0.37,-0.94,0.12,27.03,45.93,0.04,222.0,,,0.0,1.0,1.0,100.0
6220,1,walk,walk,9927,,9927.0,20.0,1.0,6.0,2.0,18.19,0.008,-0.028,-1.033,44.0,25.93,0.0,17.0,3235.0,21.0,22.32,-0.39,-0.94,0.12,26.21,44.23,-0.33,222.0,,,0.0,1.0,1.0,100.0
6220,1,walk,walk,9928,,9928.0,20.0,1.0,6.0,2.0,18.31,0.008,0.061,-1.048,44.0,25.93,0.0,17.0,3235.0,21.0,22.81,-0.39,-0.94,0.11,25.17,42.08,-0.65,222.0,,,0.0,1.0,1.0,100.0
6240,1,walk,walk,9929,,9929.0,20.0,1.0,6.0,2.0,18.43,0.009,0.026,-1.121,44.0,25.93,0.0,17.0,3235.0,21.0,23.2,-0.4,-0.93,0.11,23.93,39.58,-0.97,222.0,,,0.0,1.0,1.0,100.0
6280,1,walk,walk,9930,,9930.0,20.0,1.0,6.0,2.0,18.54,0.009,-0.036,-1.207,44.0,25.9,0.0,17.0,3235.0,21.0,23.47,-0.4,-0.93,0.11,22.54,36.78,-1.29,222.0,,,0.0,1.0,1.0,100.0
6280,1,walk,walk,9931,,9931.0,20.0,1.0,6.0,2.0,18.64,0.009,0.062,-1.209,44.0,25.93,0.0,17.0,3235.0,21.0,23.66,-0.41,-0.93,0.11,21.04,33.75,-1.62,222.0,,,0.0,1.0,1.0,100.0
6300,1,walk,walk,9932,,9932.0,20.0,1.0,6.0,2.0,18.73,0.01,-0.007,-1.27,44.0,25.9,0.0,17.0,3235.0,21.0,23.78,-0.41,-0.93,0.11,19.45,30.57,-1.95,222.0,,,0.0,1.0,1.0,100.0
6320,1,walk,walk,9933,,9933.0,20.0,1.0,6.0,2.0,18.82,0.01,0.041,-1.306,44.0,25.9,0.0,17.0,3235.0,21.0,23.84,-0.41,-0.93,0.11,17.81,27.3,-2.3,222.0,,,0.0,1.0,1.0,100.0
6340,1,walk,walk,9934,,9934.0,20.0,1.0,1.0,5.0,18.9,0.01,0.053,-1.367,44.0,25.9,0.0,17.0,3235.0,22.0,23.87,-0.41,-0.93,0.11,16.1,23.98,-2.71,222.0,,,0.0,1.0,1.0,100.0
6360,1,walk,walk,9935,,9935.0,20.0,0.0,1.0,6.0,18.97,0.011,0.022,-1.418,44.0,25.83,0.0,18.0,3235.0,22.0,23.88,-0.41,-0.92,0.12,14.3,20.62,-2.93,222.0,,,0.0,1.0,1.0,100.0
6380,1,walk,walk,9936,,9936.0,20.0,0.0,3.0,7.0,19.05,-0.023,-3.12,-2.666,44.0,25.69,0.0,18.0,3235.0,22.0,23.87,-0.41,-0.92,0.12,12.34,17.34,-2.83,222.0,,,0.0,1.0,1.0,100.0
6400,1,walk,walk,9937,,9937.0,20.0,0.0,3.0,7.0,19.11,-0.064,-2.524,-3.326,44.0,25.69,0.0,19.0,3235.0,22.0,23.68,-0.4,-0.92,0.12,10.17,14.14,-3.43,222.0,,,0.0,1.0,1.0,100.0
6420,1,walk,walk,9938,,9938.0,20.0,0.0,3.0,7.0,19.17,-0.064,-2.524,-3.326,44.0,25.69,0.0,39.0,3235.0,22.0,23.38,-0.4,-0.91,0.12,7.8,11.05,-5.42,222.0,,,0.0,1.0,1.0,100.0
6440,1,walk,walk,9939,,9939.0,20.0,0.0,3.0,7.0,19.23,-0.064,-2.524,-3.326,44.0,25.69,0.0,59.0,3235.0,22.0,23.08,-0.39,-0.91,0.12,5.43,8.13,-8.46,222.0,,,0.0,1.0,1.0,100.0
6460,1,walk,walk,9940,,9940.0,20.0,0.0,3.0,7.0,19.28,0.087,17.696,0.0,44.0,25.93,0.0,4.0,3235.0,22.0,22.83,-0.39,-0.92,0.13,3.14,5.43,-11.72,222.0,,,0.0,1.0,1.0,100.0
6480,1,walk,walk,9941,,9941.0,20.0,0.0,3.0,7.0,19.32,0.086,1.092,0.0,44.0,25.93,0.0,19.0,3235.0,22.0,22.69,-0.39,-0.92,0.13,1.01,3.01,-14.57,222.0,,,0.0,1.0,1.0,100.0
6500,1,walk,walk,9942,,9942.0,20.0,0.0,3.0,7.0,19.35,0.08,-0.538,0.0,44.0,25.93,0.0,19.0,3235.0,22.0,22.64,-0.39,-0.93,0.14,-0.84,0.9,-16.67,222.0,,,0.0,1.0,1.0,100.0
6540,1,walk,walk,9943,,9943.0,20.0,0.0,3.0,7.0,19.36,0.078,0.084,0.0,44.0,25.97,0.0,19.0,3235.0,22.0,22.67,-0.39,-0.94,0.15,-2.32,-0.82,-17.91,222.0,,,0.0,1.0,1.0,100.0
6540,1,walk,walk,9944,,9944.0,20.0,0.0,3.0,7.0,19.35,0.08,0.053,0.0,44.0,25.93,0.0,19.0,3235.0,22.0,22.71,-0.4,-0.94,0.16,-3.41,-2.13,-18.39,222.0,,,0.0,1.0,1.0,100.0
6560,1,walk,walk,9945,,9945.0,20.0,0.0,3.0,7.0,19.33,0.08,0.056,0.0,44.0,25.93,0.0,19.0,3235.0,22.0,22.72,-0.4,-0.95,0.17,-4.15,-3.06,-18.16,222.0,,,0.0,1.0,1.0,100.0
6580,1,walk,walk,9946,,9946.0,20.0,0.0,3.0,7.0,19.28,0.081,0.037,0.0,44.0,25.97,0.0,19.0,3235.0,22.0,22.67,-0.4,-0.96,0.17,-4.58,-3.67,-17.28,222.0,,,0.0,1.0,1.0,100.0
6600,1,walk,walk,9947,,9947.0,20.0,0.0,3.0,7.0,19.21,0.081,-0.091,0.0,44.0,25.97,0.0,19.0,3235.0,22.0,22.54,-0.4,-0.96,0.18,-4.75,-4.01,-15.9,222.0,,,0.0,1.0,1.0,100.0
6620,1,walk,walk,9948,,9948.0,20.0,0.0,3.0,7.0,19.12,0.081,-0.001,0.0,44.0,25.97,0.0,19.0,3235.0,22.0,22.33,-0.4,-0.96,0.18,-4.7,-4.2,-14.18,222.0,,,0.0,1.0,1.0,100.0
6640,1,walk,walk,9949,,9949.0,20.0,0.0,3.0,7.0,19.01,0.082,0.126,0.0,44.0,25.97,0.0,19.0,3235.0,22.0,22.06,-0.39,-0.97,0.18,-4.49,-4.33,-12.3,222.0,,,0.0,1.0,1.0,100.0
6660,1,walk,walk,9950,,9950.0,20.0,0.0,3.0,7.0,18.88,0.083,0.101,0.0,44.0,25.93,0.0,19.0,3235.0,22.0,21.73,-0.39,-0.97,0.18,-4.24,-4.56,-10.43,222.0,,,0.0,1.0,1.0,100.0
6700,1,walk,walk,9951,,9951.0,20.0,0.0,3.0,7.0,18.74,0.084,0.25,0.0,44.0,25.97,0.0,19.0,3235.0,22.0,21.34,-0.38,-0.97,0.17,-4.02,-5.02,-8.7,222.0,,,0.0,1.0,1.0,100.0
6700,1,walk,walk,9952,,9952.0,20.0,0.0,3.0,7.0,18.6,0.089,0.416,0.0,44.0,25.97,0.0,19.0,3235.0,22.0,20.88,-0.37,-0.97,0.17,-3.93,-5.88,-7.2,222.0,,,0.0,1.0,1.0,100.0
6720,1,walk,walk,9953,,9953.0,20.0,0.0,3.0,7.0,18.44,0.098,0.676,0.0,44.0,25.97,0.0,19.0,3235.0,22.0,20.38,-0.36,-0.97,0.16,-4.05,-7.2,-6.04,222.0,,,0.0,1.0,1.0,100.0
6760,1,walk,walk,9954,,9954.0,20.0,0.0,3.0,7.0,18.29,0.105,0.289,0.0,44.0,25.97,0.0,19.0,3235.0,22.0,19.81,-0.35,-0.98,0.16,-4.39,-8.99,-5.24,222.0,,,0.0,1.0,1.0,100.0
6760,1,walk,walk,9955,,9955.0,20.0,0.0,3.0,7.0,18.14,0.107,0.142,0.0,44.0,25.97,0.0,19.0,3235.0,22.0,19.17,-0.34,-0.98,0.15,-4.97,-11.19,-4.77,222.0,,,0.0,1.0,1.0,100.0
6780,1,walk,walk,9956,,9956.0,20.0,0.0,3.0,7.0,18.0,0.111,0.499,0.0,44.0,25.93,0.0,19.0,3235.0,22.0,18.4,-0.33,-0.98,0.14,-5.8,-13.59,-4.65,222.0,,,0.0,1.0,1.0,100.0
6820,1,walk,walk,9957,,9957.0,20.0,0.0,3.0,7.0,17.86,0.124,1.122,0.0,44.0,25.97,0.0,19.0,3235.0,22.0,17.51,-0.31,-0.98,0.14,-6.86,-15.92,-4.97,222.0,,,0.0,1.0,1.0,100.0
6840,1,walk,walk,9958,,9958.0,20.0,0.0,3.0,7.0,17.72,0.135,0.328,0.0,44.0,25.97,0.0,19.0,3235.0,22.0,16.48,-0.29,-0.98,0.13,-8.11,-17.86,-5.76,222.0,,,0.0,1.0,1.0,100.0
6840,1,walk,walk,9959,,9959.0,20.0,0.0,3.0,7.0,17.6,0.136,-0.002,0.0,44.0,25.97,0.0,19.0,3235.0,22.0,15.33,-0.27,-0.98,0.13,-9.49,-19.06,-6.98,222.0,,,0.0,1.0,1.0,100.0
6860,1,walk,walk,9960,,9960.0,20.0,0.0,3.0,7.0,17.48,0.139,0.418,0.0,44.0,25.97,0.0,19.0,3235.0,22.0,14.05,-0.25,-0.98,0.13,-10.91,-19.19,-8.62,222.0,,,0.0,1.0,1.0,100.0
6880,1,walk,walk,9961,,9961.0,20.0,0.0,3.0,7.0,17.36,0.15,0.763,0.0,44.0,25.97,0.0,19.0,3235.0,22.0,12.68,-0.22,-0.98,0.13,-12.31,-18.04,-10.74,222.0,,,0.0,1.0,1.0,100.0
6900,1,walk,walk,9962,,9962.0,20.0,0.0,3.0,7.0,17.23,0.158,0.253,0.0,44.0,25.97,0.0,19.0,3235.0,22.0,11.3,-0.2,-0.98,0.13,-13.61,-15.48,-13.33,222.0,,,0.0,1.0,1.0,100.0
6920,1,walk,walk,9963,,9963.0,20.0,0.0,3.0,7.0,17.11,0.158,-0.075,0.0,44.0,25.97,0.0,19.0,3235.0,22.0,9.97,-0.17,-0.98,0.14,-14.75,-11.52,-16.34,222.0,,,0.0,1.0,1.0,100.0
6940,1,walk,walk,9964,,9964.0,20.0,0.0,3.0,7.0,16.97,0.156,-0.095,0.0,44.0,25.97,0.0,19.0,3235.0,22.0,8.77,-0.15,-0.97,0.14,-15.64,-6.32,-19.76,222.0,,,0.0,1.0,1.0,100.0
6960,1,walk,walk,9965,,9965.0,20.0,0.0,3.0,7.0,16.81,0.155,-0.077,0.0,44.0,25.97,0.0,19.0,3235.0,22.0,7.75,-0.13,-0.97,0.14,-16.25,-0.06,-23.54,222.0,,,0.0,1.0,1.0,100.0
7000,1,walk,walk,9966,,9966.0,20.0,0.0,3.0,7.0,16.64,0.152,-0.222,0.0,44.0,25.97,0.0,19.0,3235.0,22.0,6.97,-0.12,-0.97,0.13,-16.53,7.03,-27.61,222.0,,,0.0,1.0,1.0,100.0
7020,1,walk,walk,9967,,9967.0,20.0,0.0,3.0,7.0,16.43,0.149,-0.214,0.0,44.0,25.97,0.0,19.0,3235.0,22.0,6.48,-0.11,-0.97,0.13,-16.51,14.68,-31.83,222.0,,,0.0,1.0,1.0,100.0
7020,1,walk,walk,9968,,9968.0,20.0,0.0,3.0,7.0,16.19,0.148,0.127,0.0,44.0,25.97,0.0,19.0,3235.0,22.0,6.34,-0.11,-0.96,0.13,-16.22,22.65,-36.03,222.0,,,0.0,1.0,1.0,100.0
7040,1,walk,walk,9969,,9969.0,20.0,0.0,3.0,7.0,15.91,0.148,-0.053,0.0,43.0,25.97,0.0,19.0,3235.0,22.0,6.58,-0.11,-0.96,0.12,-15.72,30.63,-39.95,222.0,,,0.0,1.0,1.0,100.0
7060,1,walk,walk,9970,,9970.0,20.0,0.0,3.0,7.0,15.58,0.148,-0.009,0.0,43.0,25.93,0.0,19.0,3235.0,22.0,7.24,-0.12,-0.96,0.11,-15.1,38.36,-43.31,222.0,,,0.0,1.0,1.0,100.0
7080,1,walk,walk,9971,,9971.0,20.0,0.0,3.0,7.0,15.21,0.147,-0.175,0.0,43.0,25.97,0.0,19.0,3235.0,22.0,8.43,-0.14,-0.95,0.1,-14.38,45.36,-45.82,222.0,,,0.0,1.0,1.0,100.0
7100,1,walk,walk,9972,,9972.0,20.0,0.0,3.0,7.0,14.79,0.108,-4.002,0.0,43.0,25.97,0.0,19.0,3235.0,22.0,10.08,-0.17,-0.96,0.09,-13.56,50.96,-47.13,222.0,,,0.0,1.0,1.0,100.0
7120,1,walk,walk,9973,,9973.0,20.0,0.0,3.0,7.0,14.31,0.061,-2.188,0.0,43.0,25.97,0.0,19.0,3235.0,22.0,11.79,-0.2,-0.96,0.08,-12.68,54.26,-47.24,222.0,,,0.0,1.0,1.0,100.0
7140,1,walk,walk,9974,,9974.0,20.0,0.0,3.0,7.0,13.79,0.052,0.033,0.0,43.0,25.97,0.0,19.0,3235.0,22.0,12.98,-0.22,-0.97,0.07,-11.59,54.93,-46.6,222.0,,,0.0,1.0,1.0,100.0
7160,1,walk,walk,9975,,9975.0,20.0,0.0,3.0,7.0,13.23,0.075,3.068,0.0,43.0,25.97,0.0,19.0,3235.0,22.0,13.34,-0.23,-0.99,0.06,-10.26,53.21,-45.64,222.0,,,0.0,1.0,1.0,100.0
7180,1,walk,walk,9976,,9976.0,20.0,0.0,3.0,7.0,12.62,0.108,0.416,0.0,43.0,25.97,0.0,19.0,3235.0,22.0,12.94,-0.23,-1.0,0.06,-8.91,49.89,-44.16,222.0,,,0.0,1.0,1.0,100.0
7220,1,walk,walk,9977,,9977.0,20.0,0.0,3.0,7.0,11.98,0.088,-1.679,0.0,43.0,25.97,0.0,19.0,3235.0,22.0,11.97,-0.22,-1.02,0.07,-7.85,45.66,-41.83,222.0,,,0.0,1.0,1.0,100.0
7220,1,walk,walk,9978,,9978.0,20.0,0.0,3.0,7.0,11.32,0.078,0.193,0.0,43.0,25.97,0.0,19.0,3235.0,22.0,10.64,-0.19,-1.03,0.07,-7.23,41.1,-38.64,222.0,,,0.0,1.0,1.0,100.0
7240,1,walk,walk,9979,,9979.0,20.0,0.0,3.0,7.0,10.63,0.077,-0.169,0.0,43.0,25.97,0.0,19.0,3235.0,22.0,9.16,-0.17,-1.05,0.08,-7.05,36.49,-34.68,222.0,,,0.0,1.0,1.0,100.0
7260,1,walk,walk,9980,,9980.0,20.0,0.0,3.0,7.0,9.93,0.069,-0.668,0.0,43.0,25.97,0.0,19.0,3235.0,22.0,7.67,-0.14,-1.06,0.08,-7.13,32.0,-30.09,222.0,,,0.0,1.0,1.0,100.0
7280,1,walk,walk,9981,,9981.0,20.0,0.0,3.0,7.0,9.23,0.059,-0.946,0.0,43.0,25.97,0.0,19.0,3235.0,22.0,6.27,-0.12,-1.06,0.08,-7.3,27.78,-24.97,222.0,,,0.0,1.0,1.0,100.0
7320,1,walk,walk,9982,,9982.0,20.0,0.0,3.0,7.0,8.54,0.043,-1.024,0.0,43.0,25.97,0.0,19.0,3235.0,22.0,5.02,-0.09,-1.07,0.08,-7.4,23.89,-19.44,222.0,,,0.0,1.0,1.0,100.0
7340,1,walk,walk,9983,,9983.0,20.0,0.0,3.0,7.0,7.85,0.03,-1.174,0.0,43.0,25.97,0.0,19.0,3235.0,22.0,3.95,-0.07,-1.07,0.08,-7.34,20.37,-13.63,222.0,,,0.0,1.0,1.0,100.0
7340,1,walk,walk,9984,,9984.0,20.0,0.0,3.0,7.0,7.18,0.015,-0.802,0.0,43.0,25.97,0.0,19.0,3235.0,22.0,3.09,-0.06,-1.08,0.07,-7.11,17.25,-7.73,222.0,,,0.0,1.0,1.0,100.0
7380,1,walk,walk,9985,,9985.0,20.0,0.0,0.0,1.0,6.54,0.002,-1.079,0.0,43.0,25.97,0.0,19.0,3235.0,22.0,2.42,-0.05,-1.08,0.07,-6.72,14.51,-1.88,222.0,,,0.0,1.0,1.0,100.0
7380,1,walk,walk,9986,,9986.0,20.0,0.0,0.0,1.0,5.94,-0.011,-0.528,0.0,43.0,25.97,0.0,19.0,3235.0,22.0,1.98,-0.04,-1.07,0.06,-6.22,12.16,3.69,222.0,,,0.0,1.0,1.0,100.0
7400,1,walk,walk,9987,,9987.0,20.0,0.0,0.0,1.0,5.38,-0.019,-0.761,0.0,43.0,25.97,0.0,19.0,3235.0,22.0,1.75,-0.03,-1.07,0.06,-5.65,10.17,8.8,222.0,,,0.0,1.0,1.0,100.0
7420,1,walk,walk,9988,,9988.0,20.0,0.0,0.0,1.0,4.86,-0.03,-0.438,0.0,43.0,25.97,0.0,19.0,3235.0,22.0,1.72,-0.03,-1.07,0.06,-5.08,8.5,13.27,222.0,,,0.0,1.0,1.0,100.0
7440,1,walk,walk,9989,,9989.0,20.0,0.0,0.0,1.0,4.41,-0.032,-0.203,0.0,43.0,25.97,0.0,19.0,3235.0,22.0,1.87,-0.03,-1.06,0.05,-4.56,7.11,16.91,222.0,,,0.0,1.0,1.0,100.0
7460,1,walk,walk,9990,,9990.0,20.0,0.0,0.0,1.0,4.01,-0.034,-0.122,0.0,43.0,25.97,0.0,19.0,3235.0,22.0,2.17,-0.04,-1.05,0.05,-4.11,5.96,19.61,222.0,,,0.0,1.0,1.0,100.0
7480,1,walk,walk,9991,,9991.0,20.0,0.0,0.0,1.0,3.68,-0.035,-0.053,0.0,43.0,25.97,0.0,19.0,3235.0,22.0,2.58,-0.05,-1.05,0.05,-3.74,4.99,21.36,222.0,,,0.0,1.0,1.0,100.0
7500,1,walk,walk,9992,,9992.0,20.0,0.0,0.0,1.0,3.42,-0.036,-0.048,0.0,43.0,25.97,0.0,19.0,3235.0,22.0,3.06,-0.06,-1.04,0.04,-3.45,4.2,22.21,222.0,,,0.0,1.0,1.0,100.0
7520,1,walk,walk,9993,,9993.0,20.0,0.0,0.0,1.0,3.22,-0.036,-0.009,0.0,43.0,25.97,0.0,19.0,3235.0,22.0,3.56,-0.06,-1.04,0.04,-3.21,3.55,22.28,222.0,,,0.0,1.0,1.0,100.0
7540,1,walk,walk,9994,,9994.0,20.0,0.0,0.0,1.0,3.09,-0.037,-0.057,0.0,43.0,25.97,0.0,19.0,3235.0,22.0,4.06,-0.07,-1.03,0.04,-2.99,3.03,21.71,222.0,,,0.0,1.0,1.0,100.0
7560,1,walk,walk,9995,,9995.0,20.0,0.0,0.0,1.0,3.03,-0.037,-0.05,0.0,43.0,25.97,0.0,19.0,3235.0,22.0,4.54,-0.08,-1.03,0.04,-2.76,2.61,20.65,222.0,,,0.0,1.0,1.0,100.0
7580,1,walk,walk,9996,,9996.0,20.0,0.0,0.0,1.0,3.03,-0.038,-0.013,0.0,43.0,25.97,0.0,19.0,3235.0,22.0,4.97,-0.09,-1.03,0.03,-2.49,2.26,19.26,222.0,,,0.0,1.0,1.0,100.0
7600,1,walk,walk,9997,,9997.0,20.0,0.0,0.0,1.0,3.08,-0.039,-0.136,0.0,43.0,25.97,0.0,19.0,3235.0,22.0,5.34,-0.1,-1.02,0.03,-2.17,1.99,17.7,222.0,,,0.0,1.0,1.0,100.0
7620,1,walk,walk,9998,,9998.0,20.0,0.0,0.0,1.0,3.19,-0.041,-0.222,0.0,43.0,25.97,0.0,19.0,3235.0,22.0,5.65,-0.1,-1.02,0.03,-1.8,1.78,16.13,222.0,,,0.0,1.0,1.0,100.0
7640,1,walk,walk,9999,,9999.0,20.0,0.0,0.0,1.0,3.33,-0.046,-0.406,0.0,43.0,25.97,0.0,19.0,3235.0,22.0,5.89,-0.11,-1.02,0.03,-1.39,1.64,14.71,222.0,,,0.0,1.0,1.0,100.0
7660,1,walk,walk,10000,,10000.0,20.0,0.0,0.0,1.0,3.52,-0.051,-0.205,0.0,43.0,25.97,0.0,19.0,3235.0,22.0,6.08,-0.11,-1.02,0.02,-0.95,1.57,13.53,222.0,,,0.0,1.0,1.0,100.0
7680,1,walk,walk,10001,,10001.0,20.0,0.0,0.0,1.0,3.73,-0.052,-0.069,0.0,43.0,25.97,0.0,19.0,3235.0,22.0,6.22,-0.11,-1.02,0.02,-0.51,1.53,12.58,222.0,,,0.0,1.0,1.0,100.0
7720,1,walk,walk,10002,,10002.0,20.0,0.0,0.0,1.0,3.96,-0.054,-0.069,0.0,43.0,25.97,0.0,19.0,3235.0,22.0,6.32,-0.11,-1.02,0.02,-0.06,1.5,11.88,222.0,,,0.0,1.0,1.0,100.0
7720,1,walk,walk,10003,,10003.0,20.0,0.0,0.0,1.0,4.21,-0.055,-0.076,0.0,43.0,25.97,0.0,19.0,3235.0,22.0,6.37,-0.11,-1.03,0.02,0.39,1.45,11.46,222.0,,,0.0,1.0,1.0,100.0
7740,1,walk,walk,10004,,10004.0,20.0,0.0,0.0,1.0,4.47,-0.056,-0.077,0.0,43.0,25.97,0.0,19.0,3235.0,22.0,6.37,-0.11,-1.03,0.02,0.84,1.36,11.3,222.0,,,0.0,1.0,1.0,100.0
7760,1,walk,walk,10005,,10005.0,20.0,0.0,0.0,1.0,4.74,-0.055,0.131,0.0,43.0,25.97,0.0,19.0,3235.0,22.0,6.31,-0.11,-1.03,0.02,1.31,1.22,11.43,222.0,,,0.0,1.0,1.0,100.0
7780,1,walk,walk,10006,,10006.0,20.0,0.0,0.0,1.0,5.01,-0.051,0.34,0.0,43.0,25.93,0.0,19.0,3235.0,22.0,6.23,-0.11,-1.04,0.02,1.8,1.0,11.81,222.0,,,0.0,1.0,1.0,100.0
7800,1,walk,walk,10007,,10007.0,20.0,0.0,0.0,1.0,5.28,-0.044,0.495,0.0,43.0,25.97,0.0,19.0,3235.0,22.0,6.15,-0.11,-1.05,0.02,2.31,0.7,12.36,222.0,,,0.0,1.0,1.0,100.0
7840,1,walk,walk,10008,,10008.0,20.0,0.0,0.0,1.0,5.55,-0.031,0.861,0.0,43.0,25.97,0.0,19.0,3235.0,22.0,6.13,-0.11,-1.05,0.02,2.82,0.34,12.93,222.0,,,0.0,1.0,1.0,100.0
7840,1,walk,walk,10009,,10009.0,20.0,0.0,0.0,1.0,5.81,-0.023,0.346,0.0,43.0,25.97,0.0,19.0,3235.0,22.0,6.21,-0.11,-1.05,0.02,3.29,-0.07,13.47,222.0,,,0.0,1.0,1.0,100.0
7860,1,walk,walk,10010,,10010.0,20.0,0.0,0.0,1.0,6.07,-0.02,0.147,0.0,43.0,25.97,0.0,19.0,3235.0,22.0,6.45,-0.12,-1.05,0.02,3.7,-0.49,13.91,222.0,,,0.0,1.0,1.0,100.0
7880,1,walk,walk,10011,,10011.0,20.0,0.0,0.0,1.0,6.32,-0.019,0.13,0.0,43.0,25.97,0.0,19.0,3235.0,22.0,6.86,-0.13,-1.05,0.02,4.01,-0.87,14.16,222.0,,,0.0,1.0,1.0,100.0
7900,1,walk,walk,10012,,10012.0,20.0,0.0,0.0,1.0,6.58,-0.019,-0.028,0.0,43.0,25.97,0.0,19.0,3235.0,22.0,7.47,-0.14,-1.04,0.02,4.2,-1.2,14.12,222.0,,,0.0,1.0,1.0,100.0
7920,1,walk,walk,10013,,10013.0,20.0,0.0,0.0,1.0,6.82,-0.02,-0.21,0.0,43.0,25.97,0.0,19.0,3235.0,22.0,8.25,-0.15,-1.02,0.02,4.24,-1.42,13.74,222.0,,,0.0,1.0,1.0,100.0
7940,1,walk,walk,10014,,10014.0,20.0,0.0,0.0,1.0,7.07,-0.03,-0.726,0.0,43.0,25.97,0.0,19.0,3235.0,22.0,9.17,-0.16,-1.01,0.03,4.1,-1.52,12.99,222.0,,,0.0,1.0,1.0,100.0
7960,1,walk,walk,10015,,10015.0,20.0,0.0,0.0,1.0,7.31,-0.041,-0.974,0.0,43.0,25.97,0.0,19.0,3235.0,22.0,10.19,-0.18,-0.99,0.03,3.79,-1.53,11.91,222.0,,,0.0,1.0,1.0,100.0
8000,1,walk,walk,10016,,10016.0,20.0,0.0,0.0,1.0,7.55,-0.06,-1.198,0.0,43.0,25.97,0.0,19.0,3235.0,22.0,11.26,-0.19,-0.97,0.03,3.29,-1.47,10.56,222.0,,,0.0,1.0,1.0,100.0
8000,1,walk,walk,10017,,10017.0,20.0,0.0,0.0,1.0,7.79,-0.084,-1.736,0.0,43.0,25.97,0.0,19.0,3235.0,22.0,12.22,-0.21,-0.96,0.04,2.55,-1.45,8.98,222.0,,,0.0,1.0,1.0,100.0
8040,1,walk,walk,10018,,10018.0,20.0,0.0,0.0,1.0,8.03,-0.103,-0.335,0.0,43.0,25.97,0.0,19.0,3235.0,22.0,12.91,-0.22,-0.95,0.04,1.67,-1.42,7.05,222.0,,,0.0,1.0,1.0,100.0
8040,1,walk,walk,10019,,10019.0,20.0,0.0,0.0,1.0,8.27,-0.091,0.683,0.0,43.0,25.97,0.0,19.0,3235.0,22.0,13.22,-0.22,-0.95,0.04,0.72,-1.4,4.84,222.0,,,0.0,1.0,1.0,100.0
8060,1,walk,walk,10020,,10020.0,20.0,0.0,0.0,1.0,8.51,-0.089,0.096,0.0,43.0,25.97,0.0,19.0,3235.0,22.0,13.11,-0.22,-0.95,0.04,-0.22,-1.38,2.65,222.0,,,0.0,1.0,1.0,100.0
8080,1,walk,walk,10021,,10021.0,20.0,0.0,0.0,1.0,8.74,-0.093,-0.567,0.0,43.0,25.97,0.0,19.0,3235.0,22.0,12.67,-0.22,-0.96,0.04,-1.12,-1.33,0.92,222.0,,,0.0,1.0,1.0,100.0
8100,1,walk,walk,10022,,10022.0,20.0,0.0,0.0,1.0,8.96,-0.107,-0.958,0.0,43.0,25.97,0.0,19.0,3235.0,22.0,12.02,-0.21,-0.97,0.04,-1.95,-1.21,-0.06,222.0,,,0.0,1.0,1.0,100.0
8140,1,walk,walk,10023,,10023.0,20.0,0.0,0.0,1.0,9.17,-0.117,-0.417,0.0,43.0,25.97,0.0,19.0,3235.0,22.0,11.33,-0.2,-0.99,0.04,-2.69,-1.03,-0.28,222.0,,,0.0,1.0,1.0,100.0
8160,1,walk,walk,10024,,10024.0,20.0,0.0,0.0,1.0,9.37,-0.124,-0.573,0.0,43.0,25.97,0.0,19.0,3235.0,22.0,10.69,-0.19,-1.0,0.04,-3.32,-0.8,0.18,222.0,,,0.0,1.0,1.0,100.0
8160,1,walk,walk,10025,,10025.0,20.0,0.0,0.0,1.0,9.56,-0.132,-0.43,0.0,43.0,25.93,0.0,19.0,3235.0,22.0,10.16,-0.18,-1.01,0.04,-3.8,-0.55,1.15,222.0,,,0.0,1.0,1.0,100.0
8200,1,walk,walk,10026,,10026.0,20.0,0.0,0.0,1.0,9.74,-0.139,-0.408,0.0,43.0,25.97,0.0,19.0,3235.0,22.0,9.76,-0.17,-1.02,0.04,-4.12,-0.31,2.46,222.0,,,0.0,1.0,1.0,100.0
8200,1,walk,walk,10027,,10027.0,20.0,0.0,0.0,1.0,9.89,-0.144,-0.375,0.0,43.0,25.97,0.0,19.0,3235.0,22.0,9.5,-0.17,-1.02,0.03,-4.28,-0.07,3.94,222.0,,,0.0,1.0,1.0,100.0
8220,1,walk,walk,10028,,10028.0,20.0,0.0,0.0,1.0,10.04,-0.153,-0.667,0.0,43.0,25.97,0.0,19.0,3235.0,22.0,9.38,-0.17,-1.02,0.03,-4.34,0.19,5.47,222.0,,,0.0,1.0,1.0,100.0
8280,1,walk,walk,10029,,10029.0,20.0,0.0,0.0,1.0,10.16,-0.159,-0.272,0.0,43.0,25.97,0.0,19.0,3235.0,22.0,9.37,-0.17,-1.03,0.03,-4.35,0.45,6.88,222.0,,,0.0,1.0,1.0,100.0
8280,1,walk,walk,10030,,10030.0,20.0,0.0,0.0,1.0,10.28,-0.16,0.037,0.0,43.0,25.97,0.0,19.0,3235.0,22.0,9.47,-0.17,-1.03,0.03,-4.35,0.7,8.01,222.0,,,0.0,1.0,1.0,100.0
8280,1,walk,walk,10031,,10031.0,20.0,0.0,0.0,1.0,10.39,-0.16,0.013,0.0,43.0,25.93,0.0,19.0,3235.0,22.0,9.65,-0.17,-1.02,0.03,-4.37,0.96,8.73,222.0,,,0.0,1.0,1.0,100.0
8300,1,walk,walk,10032,,10032.0,20.0,0.0,0.0,1.0,10.49,-0.159,-0.005,0.0,43.0,25.97,0.0,19.0,3235.0,22.0,9.89,-0.18,-1.02,0.02,-4.47,1.24,8.97,222.0,,,0.0,1.0,1.0,100.0
8320,1,walk,walk,10033,,10033.0,20.0,0.0,0.0,1.0,10.59,-0.156,0.267,0.0,43.0,25.97,0.0,19.0,3235.0,22.0,10.16,-0.18,-1.02,0.02,-4.64,1.54,8.69,222.0,,,0.0,1.0,1.0,100.0
8360,1,walk,walk,10034,,10034.0,20.0,0.0,0.0,1.0,10.69,-0.15,0.481,0.0,43.0,25.97,0.0,19.0,3235.0,22.0,10.45,-0.19,-1.02,0.02,-4.91,1.81,7.84,222.0,,,0.0,1.0,1.0,100.0
8360,1,walk,walk,10035,,10035.0,20.0,0.0,6.0,2.0,10.78,-0.138,0.985,0.0,43.0,25.97,0.0,19.0,3235.0,22.0,10.74,-0.19,-1.02,0.02,-5.26,2.04,6.42,222.0,,,0.0,1.0,1.0,100.0
8380,1,walk,walk,10036,,10036.0,20.0,0.0,6.0,2.0,10.88,-0.13,0.763,-0.09,43.0,25.9,0.0,18.0,3235.0,22.0,11.02,-0.2,-1.01,0.02,-5.7,2.03,4.26,222.0,,,0.0,1.0,1.0,100.0
8400,1,walk,walk,10037,,10037.0,20.0,0.0,6.0,2.0,10.98,-0.088,2.885,2.246,43.0,25.76,0.0,18.0,3235.0,22.0,11.27,-0.2,-1.01,0.01,-6.2,1.65,1.11,222.0,,,0.0,1.0,1.0,100.0
8420,1,walk,walk,10038,,10038.0,20.0,1.0,6.0,2.0,11.08,-0.055,1.65,2.778,43.0,25.72,0.0,19.0,3235.0,22.0,11.45,-0.2,-1.01,0.01,-6.77,0.96,-2.8,222.0,,,0.0,1.0,1.0,100.0
8440,1,walk,walk,10039,,10039.0,20.0,0.0,6.0,2.0,11.17,-0.041,0.555,3.495,43.0,25.69,0.0,18.0,3235.0,22.0,11.51,-0.2,-1.0,0.01,-7.35,0.14,-7.0,222.0,,,0.0,1.0,1.0,100.0
8460,1,walk,walk,10040,,10040.0,20.0,0.0,6.0,2.0,11.26,-0.036,0.221,3.737,43.0,25.69,0.0,18.0,3235.0,22.0,11.45,-0.2,-1.0,0.01,-7.92,-0.65,-11.03,222.0,,,0.0,1.0,1.0,100.0
8500,1,walk,walk,10041,,10041.0,20.0,1.0,6.0,2.0,11.33,-0.032,0.189,3.534,43.0,25.69,0.0,19.0,3235.0,22.0,11.25,-0.2,-1.0,0.0,-8.41,-1.32,-14.54,222.0,,,0.0,1.0,1.0,100.0
8500,1,walk,walk,10042,,10042.0,20.0,1.0,6.0,2.0,11.39,-0.03,-0.013,3.514,43.0,25.69,0.0,19.0,3235.0,22.0,10.94,-0.19,-1.01,0.0,-8.73,-1.81,-17.29,222.0,,,0.0,1.0,1.0,100.0
8520,1,walk,walk,10043,,10043.0,20.0,1.0,6.0,2.0,11.42,-0.03,-0.021,3.494,43.0,25.72,0.0,19.0,3235.0,22.0,10.54,-0.19,-1.01,-0.01,-8.82,-2.11,-19.14,222.0,,,0.0,1.0,1.0,100.0
8540,1,walk,walk,10044,,10044.0,20.0,1.0,6.0,2.0,11.43,-0.029,0.072,3.451,43.0,25.69,0.0,19.0,3235.0,22.0,10.06,-0.18,-1.01,-0.01,-8.62,-2.28,-20.08,222.0,,,0.0,1.0,1.0,100.0
8560,1,walk,walk,10045,,10045.0,20.0,1.0,6.0,2.0,11.41,-0.029,-0.017,3.56,43.0,25.69,0.0,19.0,3235.0,22.0,9.53,-0.17,-1.01,-0.02,-8.1,-2.38,-20.11,222.0,,,0.0,1.0,1.0,100.0
8580,1,walk,walk,10046,,10046.0,20.0,1.0,6.0,2.0,11.36,-0.03,-0.107,3.737,43.0,25.69,0.0,19.0,3235.0,22.0,8.97,-0.16,-1.02,-0.03,-7.23,-2.53,-19.28,222.0,,,0.0,1.0,1.0,100.0
8600,1,walk,walk,10047,,10047.0,20.0,1.0,6.0,2.0,11.27,-0.033,-0.344,4.253,43.0,25.62,0.0,19.0,3235.0,22.0,8.38,-0.15,-1.02,-0.03,-6.02,-2.79,-17.54,222.0,,,0.0,1.0,1.0,100.0
8620,1,walk,walk,10048,,10048.0,20.0,1.0,6.0,2.0,11.16,-0.039,-0.459,5.277,43.0,25.47,0.0,19.0,3235.0,22.0,7.76,-0.14,-1.03,-0.04,-4.49,-3.2,-14.84,222.0,,,0.0,1.0,1.0,100.0
8640,1,walk,walk,10049,,10049.0,20.0,1.0,6.0,2.0,11.01,-0.049,-0.514,6.475,43.0,25.26,0.0,19.0,3235.0,22.0,7.14,-0.13,-1.03,-0.04,-2.63,-3.74,-11.19,222.0,,,0.0,1.0,1.0,100.0
8680,1,walk,walk,10050,,10050.0,20.0,1.0,6.0,2.0,10.83,-0.054,-0.093,6.737,43.0,25.16,0.0,19.0,3235.0,22.0,6.58,-0.12,-1.04,-0.05,-0.45,-4.32,-6.84,222.0,,,0.0,1.0,1.0,100.0
8700,1,walk,walk,10051,,10051.0,20.0,1.0,6.0,2.0,10.63,-0.056,-0.044,6.79,43.0,25.12,0.0,19.0,3235.0,22.0,6.17,-0.11,-1.04,-0.05,1.98,-4.86,-2.15,222.0,,,0.0,1.0,1.0,100.0
8700,1,walk,walk,10052,,10052.0,20.0,1.0,6.0,2.0,10.42,-0.056,-0.022,6.782,43.0,25.09,0.0,19.0,3235.0,22.0,5.93,-0.11,-1.04,-0.05,4.54,-5.32,2.52,222.0,,,0.0,1.0,1.0,100.0
8720,1,walk,walk,10053,,10053.0,20.0,1.0,6.0,2.0,10.2,-0.056,0.084,6.759,43.0,25.09,0.0,19.0,3235.0,22.0,5.87,-0.11,-1.05,-0.05,7.11,-5.64,6.89,222.0,,,0.0,1.0,1.0,100.0
8760,1,walk,walk,10054,,10054.0,20.0,1.0,6.0,2.0,9.99,-0.056,0.132,6.594,43.0,25.12,0.0,19.0,3235.0,22.0,5.95,-0.11,-1.05,-0.05,9.62,-5.75,10.78,222.0,,,0.0,1.0,1.0,100.0
8760,1,walk,walk,10055,,10055.0,20.0,1.0,6.0,2.0,9.78,-0.052,0.198,6.188,43.0,25.23,0.0,19.0,3235.0,22.0,6.12,-0.11,-1.05,-0.05,11.99,-5.62,14.11,222.0,,,0.0,1.0,1.0,100.0
8780,1,walk,walk,10056,,10056.0,20.0,1.0,6.0,2.0,9.59,-0.049,0.279,5.646,43.0,25.33,0.0,19.0,3235.0,22.0,6.37,-0.12,-1.05,-0.05,14.17,-5.23,16.87,222.0,,,0.0,1.0,1.0,100.0
8800,1,walk,walk,10057,,10057.0,20.0,1.0,6.0,2.0,9.43,-0.044,0.303,5.03,43.0,25.47,0.0,19.0,3235.0,22.0,6.68,-0.12,-1.05,-0.04,16.13,-4.62,19.06,222.0,,,0.0,1.0,1.0,100.0
8840,1,walk,walk,10058,,10058.0,20.0,1.0,6.0,2.0,9.3,-0.038,0.417,4.183,43.0,25.58,0.0,19.0,3235.0,22.0,7.04,-0.13,-1.06,-0.03,17.83,-3.86,20.75,222.0,,,0.0,1.0,1.0,100.0
8840,1,walk,walk,10059,,10059.0,20.0,1.0,6.0,2.0,9.2,-0.033,0.293,3.758,43.0,25.65,0.0,19.0,3235.0,22.0,7.43,-0.14,-1.05,-0.03,19.29,-3.0,22.03,222.0,,,0.0,1.0,1.0,100.0
8860,1,walk,walk,10060,,10060.0,20.0,1.0,6.0,2.0,9.14,-0.03,0.167,3.371,43.0,25.69,0.0,19.0,3235.0,22.0,7.83,-0.14,-1.05,-0.02,20.54,-2.07,23.07,222.0,,,0.0,1.0,1.0,100.0
8880,1,walk,walk,10061,,10061.0,20.0,1.0,6.0,2.0,9.13,-0.027,0.134,3.058,43.0,25.76,0.0,19.0,3235.0,22.0,8.21,-0.15,-1.05,-0.01,21.64,-1.06,24.01,222.0,,,0.0,1.0,1.0,100.0
8900,1,walk,walk,10062,,10062.0,20.0,1.0,6.0,2.0,9.15,-0.025,0.143,2.847,43.0,25.76,0.0,19.0,3235.0,22.0,8.53,-0.16,-1.05,0.0,22.65,0.09,25.04,222.0,,,0.0,1.0,1.0,100.0
8940,1,walk,walk,10063,,10063.0,20.0,1.0,6.0,2.0,9.22,-0.022,0.183,2.584,43.0,25.79,0.0,19.0,3235.0,22.0,8.75,-0.16,-1.05,0.01,23.67,1.42,26.34,222.0,,,0.0,1.0,1.0,100.0
8960,1,walk,walk,10064,,10064.0,20.0,1.0,6.0,2.0,9.34,-0.02,0.109,2.221,43.0,25.83,0.0,19.0,3235.0,22.0,8.88,-0.16,-1.06,0.02,24.78,3.02,28.01,222.0,,,0.0,1.0,1.0,100.0
8980,1,walk,walk,10065,,10065.0,20.0,1.0,6.0,2.0,9.49,-0.016,0.244,1.785,43.0,25.86,0.0,19.0,3235.0,22.0,8.91,-0.17,-1.06,0.03,26.06,4.94,30.12,222.0,,,0.0,1.0,1.0,100.0
8980,1,walk,walk,10066,,10066.0,20.0,1.0,6.0,2.0,9.68,-0.012,0.296,1.276,43.0,25.9,0.0,19.0,3235.0,22.0,8.88,-0.17,-1.07,0.04,27.59,7.24,32.67,222.0,,,0.0,1.0,1.0,100.0
9000,1,walk,walk,10067,,10067.0,20.0,1.0,6.0,2.0,9.92,-0.008,0.272,0.887,43.0,25.93,0.0,19.0,3235.0,22.0,8.82,-0.17,-1.08,0.05,29.42,9.92,35.66,222.0,,,0.0,1.0,1.0,100.0
9020,1,walk,walk,10068,,10068.0,20.0,1.0,6.0,2.0,10.19,-0.005,0.205,0.285,43.0,25.93,0.0,19.0,3235.0,22.0,8.78,-0.17,-1.09,0.06,31.55,13.02,39.01,222.0,,,0.0,1.0,1.0,100.0
9040,1,walk,walk,10069,,10069.0,20.0,1.0,6.0,2.0,10.49,-0.001,0.297,-0.265,43.0,25.93,0.0,19.0,3235.0,22.0,8.8,-0.17,-1.11,0.06,33.93,16.46,42.48,222.0,,,0.0,1.0,1.0,100.0
9060,1,walk,walk,10070,,10070.0,20.0,1.0,6.0,2.0,10.84,0.002,0.371,-0.802,43.0,25.93,0.0,19.0,3235.0,22.0,8.89,-0.17,-1.11,0.07,36.4,20.43,45.62,222.0,,,0.0,1.0,1.0,100.0
9080,1,walk,walk,10071,,10071.0,20.0,1.0,6.0,2.0,11.22,0.004,-0.007,-0.725,43.0,25.93,0.0,19.0,3235.0,22.0,9.03,-0.18,-1.12,0.07,38.8,25.26,47.81,222.0,,,0.0,1.0,1.0,100.0
9100,1,walk,walk,10072,,10072.0,20.0,1.0,6.0,2.0,11.64,0.004,-0.015,-0.553,43.0,25.93,0.0,19.0,3235.0,22.0,9.22,-0.18,-1.12,0.07,40.97,31.11,48.53,222.0,,,0.0,1.0,1.0,100.0
9120,1,walk,walk,10073,,10073.0,20.0,1.0,6.0,2.0,12.09,0.004,0.046,-0.516,43.0,25.93,0.0,19.0,3235.0,22.0,9.46,-0.18,-1.11,0.06,42.74,37.82,47.53,222.0,,,0.0,1.0,1.0,100.0
9140,1,walk,walk,10074,,10074.0,20.0,0.0,6.0,2.0,12.58,0.004,-0.045,-0.549,43.0,25.93,0.0,18.0,3235.0,22.0,9.78,-0.19,-1.09,0.06,43.95,44.89,44.78,222.0,,,0.0,1.0,1.0,100.0
9160,1,walk,walk,10075,,10075.0,20.0,1.0,6.0,2.0,13.11,0.004,0.015,-0.547,43.0,25.93,0.0,19.0,3235.0,22.0,10.25,-0.19,-1.07,0.05,44.45,51.66,40.36,222.0,,,0.0,1.0,1.0,100.0
9180,1,walk,walk,10076,,10076.0,20.0,1.0,6.0,2.0,13.66,0.004,0.036,-0.509,43.0,25.93,0.0,19.0,3235.0,22.0,10.9,-0.2,-1.05,0.04,44.16,57.49,34.4,222.0,,,0.0,1.0,1.0,100.0
9200,1,walk,walk,10077,,10077.0,20.0,1.0,1.0,5.0,14.23,0.004,0.005,-0.506,43.0,25.93,0.0,19.0,3235.0,23.0,11.76,-0.21,-1.02,0.03,43.05,61.92,27.1,222.0,,,0.0,1.0,1.0,100.0
9220,1,walk,walk,10078,,10078.0,20.0,0.0,1.0,5.0,14.82,0.004,-0.022,-0.496,43.0,25.83,0.0,19.0,3235.0,23.0,12.85,-0.23,-0.99,0.03,41.18,64.83,19.07,222.0,,,0.0,1.0,1.0,100.0
9240,1,walk,walk,10079,,10079.0,20.0,0.0,1.0,5.0,15.41,-0.034,-3.45,-1.652,43.0,25.79,0.0,19.0,3235.0,23.0,14.19,-0.24,-0.96,0.03,38.64,66.34,10.83,222.0,,,0.0,1.0,1.0,100.0
9260,1,walk,walk,10080,,10080.0,20.0,0.0,1.0,5.0,15.99,-0.085,-3.234,-1.561,43.0,25.79,0.0,19.0,3235.0,23.0,15.75,-0.26,-0.92,0.03,35.62,66.66,2.67,222.0,,,0.0,1.0,1.0,100.0
9280,1,walk,walk,10081,,10081.0,20.0,0.0,1.0,6.0,16.54,-0.128,-2.681,-1.872,43.0,25.76,0.0,19.0,3235.0,23.0,17.48,-0.28,-0.88,0.04,32.36,66.11,-5.22,222.0,,,0.0,1.0,1.0,100.0
9320,1,walk,walk,10082,,10082.0,20.0,0.0,1.0,6.0,17.07,-0.164,-2.202,-2.15,43.0,25.79,0.0,19.0,3235.0,23.0,19.3,-0.3,-0.85,0.05,29.17,64.98,-12.72,222.0,,,0.0,1.0,1.0,100.0
9320,1,walk,walk,10083,,10083.0,20.0,0.0,1.0,6.0,17.55,-0.195,-1.944,-2.412,43.0,25.76,0.0,19.0,3235.0,23.0,21.14,-0.32,-0.82,0.06,26.32,63.61,-19.71,222.0,,,0.0,1.0,1.0,100.0
9340,1,walk,walk,10084,,10084.0,20.0,0.0,1.0,6.0,17.98,-0.221,-1.501,-2.479,43.0,25.72,0.0,19.0,3235.0,23.0,22.93,-0.33,-0.79,0.08,24.04,62.37,-26.19,222.0,,,0.0,1.0,1.0,100.0
9360,1,walk,walk,10085,,10085.0,20.0,0.0,1.0,6.0,18.35,-0.243,-1.298,-2.783,43.0,25.72,0.0,19.0,3235.0,23.0,24.63,-0.35,-0.77,0.09,22.42,61.61,-32.03,222.0,,,0.0,1.0,1.0,100.0
9380,1,walk,walk,10086,,10086.0,20.0,0.0,1.0,6.0,18.65,-0.26,-1.165,-2.893,43.0,25.72,0.0,19.0,3235.0,23.0,26.19,-0.37,-0.75,0.1,21.44,61.57,-37.07,222.0,,,0.0,1.0,1.0,100.0
9420,1,walk,walk,10087,,10087.0,20.0,0.0,1.0,6.0,18.87,-0.276,-0.923,-2.931,43.0,25.72,0.0,19.0,3235.0,23.0,27.61,-0.39,-0.74,0.11,20.98,62.35,-41.29,222.0,,,0.0,1.0,1.0,100.0
9420,1,walk,walk,10088,,10088.0,20.0,0.0,1.0,6.0,19.02,-0.288,-0.706,-3.248,43.0,25.69,0.0,19.0,3235.0,23.0,28.88,-0.41,-0.74,0.12,20.88,63.81,-44.59,222.0,,,0.0,1.0,1.0,100.0
9440,1,walk,walk,10089,,10089.0,20.0,0.0,1.0,6.0,19.09,-0.297,-0.467,-3.551,43.0,25.69,0.0,19.0,3235.0,23.0,30.01,-0.43,-0.74,0.12,20.86,65.71,-46.93,222.0,,,0.0,1.0,1.0,100.0
9460,1,walk,walk,10090,,10090.0,20.0,0.0,1.0,6.0,19.08,-0.303,-0.395,-3.561,43.0,25.69,0.0,19.0,3235.0,23.0,31.0,-0.44,-0.74,0.11,20.58,67.7,-48.35,222.0,,,0.0,1.0,1.0,100.0
9500,1,walk,walk,10091,,10091.0,20.0,0.0,1.0,6.0,18.99,-0.31,-0.284,-3.614,43.0,25.69,0.0,19.0,3235.0,23.0,31.85,-0.46,-0.74,0.1,19.75,69.37,-48.89,222.0,,,0.0,1.0,1.0,100.0
9500,1,walk,walk,10092,,10092.0,20.0,0.0,3.0,7.0,18.84,-0.314,-0.23,-3.773,43.0,25.65,0.0,19.0,3235.0,23.0,32.54,-0.48,-0.75,0.09,18.15,70.3,-48.64,222.0,,,0.0,1.0,1.0,100.0
9520,1,walk,walk,10093,,10093.0,20.0,0.0,3.0,7.0,18.62,-0.316,-0.112,-4.048,43.0,25.62,0.0,19.0,3235.0,23.0,32.6,-0.49,-0.77,0.07,16.2,70.32,-47.85,222.0,,,0.0,1.0,1.0,100.0
9540,1,walk,walk,10094,,10094.0,20.0,0.0,3.0,7.0,18.34,-0.315,0.183,-4.715,43.0,25.51,0.0,19.0,3235.0,23.0,31.8,-0.5,-0.8,0.06,14.24,69.13,-46.55,222.0,,,0.0,1.0,1.0,100.0
9560,1,walk,walk,10095,,10095.0,20.0,0.0,3.0,7.0,18.02,-0.308,0.688,-5.756,43.0,25.37,0.0,19.0,3235.0,23.0,30.17,-0.49,-0.84,0.05,12.32,66.75,-44.66,222.0,,,0.0,1.0,1.0,100.0
9580,1,walk,walk,10096,,10096.0,20.0,0.0,3.0,7.0,17.64,-0.298,0.492,-5.916,43.0,25.37,0.0,19.0,3235.0,23.0,27.95,-0.47,-0.88,0.05,10.43,63.45,-42.09,222.0,,,0.0,1.0,1.0,100.0
9600,1,walk,walk,10097,,10097.0,20.0,0.0,3.0,7.0,17.24,-0.292,0.198,-5.674,43.0,25.4,0.0,19.0,3235.0,23.0,25.44,-0.44,-0.93,0.06,8.53,59.38,-38.83,222.0,,,0.0,1.0,1.0,100.0
9660,1,walk,walk,10098,,10098.0,20.0,1.0,3.0,7.0,16.8,-0.286,0.469,-5.413,43.0,25.44,0.0,20.0,3235.0,23.0,22.93,-0.41,-0.97,0.07,6.64,54.7,-34.95,222.0,,,0.0,1.0,1.0,100.0
9660,1,walk,walk,10099,,10099.0,20.0,0.0,3.0,7.0,16.34,-0.282,0.185,-4.878,43.0,25.54,0.0,19.0,3235.0,23.0,20.61,-0.38,-1.01,0.08,4.83,49.57,-30.67,222.0,,,0.0,1.0,1.0,100.0
9700,1,walk,walk,10100,,10100.0,20.0,0.0,3.0,7.0,15.86,-0.278,0.24,-4.471,43.0,25.58,0.0,19.0,3235.0,23.0,18.62,-0.35,-1.04,0.09,3.2,44.15,-26.2,222.0,,,0.0,1.0,1.0,100.0
9720,1,walk,walk,10101,,10101.0,20.0,0.0,3.0,7.0,15.38,-0.273,0.357,-4.264,43.0,25.62,0.0,19.0,3235.0,23.0,16.98,-0.33,-1.06,0.09,1.84,38.68,-21.76,222.0,,,0.0,1.0,1.0,100.0
9720,1,walk,walk,10102,,10102.0,20.0,0.0,3.0,7.0,14.9,-0.265,0.601,-4.018,43.0,25.69,0.0,19.0,3235.0,23.0,15.69,-0.3,-1.08,0.1,0.82,33.55,-17.49,222.0,,,0.0,1.0,1.0,100.0
9720,1,walk,walk,10103,,10103.0,20.0,0.0,3.0,7.0,14.41,-0.255,0.634,-3.628,43.0,25.76,0.0,19.0,3235.0,23.0,14.74,-0.29,-1.09,0.1,0.13,29.15,-13.51,222.0,,,0.0,1.0,1.0,100.0
9740,1,walk,walk,10104,,10104.0,20.0,0.0,3.0,7.0,13.94,-0.241,1.115,-3.309,43.0,25.79,0.0,19.0,3235.0,23.0,14.09,-0.27,-1.09,0.09,-0.36,25.76,-10.0,222.0,,,0.0,1.0,1.0,100.0
9760,1,walk,walk,10105,,10105.0,20.0,0.0,3.0,7.0,13.49,-0.222,1.27,-2.728,43.0,25.86,0.0,19.0,3235.0,23.0,13.72,-0.27,-1.09,0.09,-0.83,23.42,-7.14,222.0,,,0.0,1.0,1.0,100.0
9800,1,walk,walk,10106,,10106.0,20.0,0.0,3.0,7.0,13.06,-0.199,1.546,-2.306,43.0,25.9,0.0,19.0,3235.0,23.0,13.49,-0.26,-1.08,0.08,-1.21,22.11,-5.29,222.0,,,0.0,1.0,1.0,100.0
9800,1,walk,walk,10107,,10107.0,20.0,0.0,3.0,7.0,12.65,-0.165,2.838,-2.019,43.0,25.97,0.0,19.0,3235.0,23.0,13.28,-0.25,-1.07,0.07,-1.38,21.49,-4.82,222.0,,,0.0,1.0,1.0,100.0
9820,1,walk,walk,10108,,10108.0,20.0,0.0,3.0,7.0,12.27,-0.115,3.266,-1.332,43.0,25.97,0.0,19.0,3235.0,23.0,13.11,-0.25,-1.06,0.07,-1.36,21.06,-5.9,222.0,,,0.0,1.0,1.0,100.0
9840,1,walk,walk,10109,,10109.0,20.0,1.0,3.0,7.0,11.93,-0.076,2.126,-0.539,43.0,25.93,0.0,20.0,3235.0,23.0,12.97,-0.24,-1.05,0.07,-1.3,20.55,-8.38,222.0,,,0.0,1.0,1.0,100.0
9880,1,walk,walk,10110,,10110.0,20.0,0.0,3.0,7.0,11.61,-0.05,1.404,-0.149,43.0,25.93,0.0,19.0,3235.0,23.0,12.8,-0.24,-1.04,0.07,-1.32,19.84,-11.94,222.0,,,0.0,1.0,1.0,100.0
9880,1,walk,walk,10111,,10111.0,20.0,0.0,3.0,7.0,11.33,-0.036,0.723,-0.319,43.0,25.93,0.0,19.0,3235.0,23.0,12.55,-0.23,-1.03,0.07,-1.54,18.92,-16.02,222.0,,,0.0,1.0,1.0,100.0
9900,1,walk,walk,10112,,10112.0,20.0,0.0,3.0,7.0,11.06,-0.032,0.013,-0.342,43.0,25.93,0.0,19.0,3235.0,23.0,12.21,-0.22,-1.03,0.08,-2.03,17.86,-19.97,222.0,,,0.0,1.0,1.0,100.0
9920,1,walk,walk,10113,,10113.0,20.0,0.0,3.0,7.0,10.82,-0.031,0.222,-0.515,43.0,25.93,0.0,19.0,3235.0,23.0,11.78,-0.21,-1.02,0.09,-2.75,16.69,-23.36,222.0,,,0.0,1.0,1.0,100.0
9940,1,walk,walk,10114,,10114.0,20.0,0.0,3.0,7.0,10.58,-0.026,0.375,-0.542,43.0,25.93,0.0,19.0,3235.0,23.0,11.28,-0.2,-1.02,0.09,-3.63,15.44,-25.98,222.0,,,0.0,1.0,1.0,100.0
9980,1,walk,walk,10115,,10115.0,20.0,0.0,3.0,7.0,10.35,-0.021,0.316,-0.468,43.0,25.93,0.0,19.0,3235.0,23.0,10.72,-0.19,-1.02,0.09,-4.54,14.15,-27.8,222.0,,,0.0,1.0,1.0,100.0
9980,1,walk,walk,10116,,10116.0,20.0,0.0,3.0,7.0,10.11,-0.016,0.214,-0.433,43.0,25.93,0.0,19.0,3235.0,23.0,10.12,-0.18,-1.02,0.09,-5.37,12.84,-28.83,222.0,,,0.0,1.0,1.0,100.0
10000,1,walk,walk,10117,,10117.0,20.0,0.0,3.0,7.0,9.87,-0.012,0.276,-0.461,43.0,25.97,0.0,19.0,3235.0,23.0,9.49,-0.17,-1.02,0.09,-6.04,11.53,-29.15,222.0,,,0.0,1.0,1.0,100.0
10020,1,walk,walk,10118,,10118.0,20.0,0.0,3.0,7.0,9.61,-0.01,0.096,-0.423,43.0,25.93,0.0,19.0,3235.0,23.0,8.86,-0.16,-1.02,0.09,-6.49,10.25,-28.83,222.0,,,0.0,1.0,1.0,100.0
10040,1,walk,walk,10119,,10119.0,20.0,0.0,3.0,7.0,9.34,-0.01,-0.053,-0.44,43.0,25.93,0.0,19.0,3235.0,23.0,8.22,-0.15,-1.02,0.08,-6.74,9.06,-27.96,222.0,,,0.0,1.0,1.0,100.0
10060,1,walk,walk,10120,,10120.0,20.0,0.0,3.0,7.0,9.04,-0.01,-0.001,-0.456,43.0,25.93,0.0,19.0,3235.0,23.0,7.6,-0.14,-1.03,0.08,-6.81,7.95,-26.6,222.0,,,0.0,1.0,1.0,100.0
10080,1,walk,walk,10121,,10121.0,20.0,0.0,3.0,7.0,8.72,-0.01,0.068,-0.445,43.0,25.93,0.0,19.0,3235.0,23.0,7.02,-0.13,-1.03,0.07,-6.74,6.95,-24.87,222.0,,,0.0,1.0,1.0,100.0
10100,1,walk,walk,10122,,10122.0,20.0,1.0,3.0,7.0,8.38,-0.01,-0.076,-0.462,43.0,25.93,0.0,20.0,3235.0,23.0,6.47,-0.12,-1.03,0.07,-6.57,6.05,-22.84,222.0,,,0.0,1.0,1.0,100.0
10140,1,walk,walk,10123,,10123.0,20.0,0.0,3.0,7.0,8.03,-0.011,-0.056,-0.464,43.0,25.93,0.0,19.0,3235.0,23.0,5.97,-0.11,-1.03,0.06,-6.35,5.24,-20.61,222.0,,,0.0,1.0,1.0,100.0
10140,1,walk,walk,10124,,10124.0,20.0,0.0,3.0,7.0,7.66,-0.012,-0.103,-0.453,43.0,25.93,0.0,19.0,3235.0,23.0,5.53,-0.1,-1.03,0.06,-6.08,4.53,-18.26,222.0,,,0.0,1.0,1.0,100.0
10160,1,walk,walk,10125,,10125.0,20.0,0.0,3.0,7.0,7.28,-0.015,-0.128,-0.46,43.0,25.93,0.0,19.0,3235.0,23.0,5.15,-0.09,-1.03,0.05,-5.78,3.92,-15.87,222.0,,,0.0,1.0,1.0,100.0
10180,1,walk,walk,10126,,10126.0,20.0,0.0,3.0,7.0,6.9,-0.017,-0.226,-0.45,43.0,25.93,0.0,19.0,3235.0,23.0,4.83,-0.09,-1.03,0.05,-5.46,3.4,-13.49,222.0,,,0.0,1.0,1.0,100.0
10200,1,walk,walk,10127,,10127.0,20.0,0.0,3.0,7.0,6.51,-0.02,-0.096,-0.481,43.0,25.93,0.0,19.0,3235.0,23.0,4.57,-0.08,-1.03,0.04,-5.13,2.97,-11.19,222.0,,,0.0,1.0,1.0,100.0
10220,1,walk,walk,10128,,10128.0,20.0,0.0,3.0,7.0,6.13,-0.022,-0.084,-0.491,43.0,25.93,0.0,19.0,3235.0,23.0,4.37,-0.08,-1.03,0.04,-4.8,2.63,-9.02,222.0,,,0.0,1.0,1.0,100.0
10240,1,walk,walk,10129,,10129.0,20.0,0.0,3.0,7.0,5.75,-0.023,-0.13,-0.495,43.0,25.93,0.0,19.0,3235.0,23.0,4.22,-0.08,-1.03,0.04,-4.46,2.34,-7.04,222.0,,,0.0,1.0,1.0,100.0
10260,1,walk,walk,10130,,10130.0,20.0,0.0,3.0,7.0,5.39,-0.024,-0.135,-0.459,43.0,25.93,0.0,19.0,3235.0,23.0,4.11,-0.07,-1.03,0.03,-4.13,2.1,-5.27,222.0,,,0.0,1.0,1.0,100.0
10280,1,walk,walk,10131,,10131.0,20.0,0.0,3.0,7.0,5.04,-0.026,-0.115,-0.489,43.0,25.93,0.0,19.0,3235.0,23.0,4.04,-0.07,-1.03,0.03,-3.8,1.9,-3.71,222.0,,,0.0,1.0,1.0,100.0
10300,1,walk,walk,10132,,10132.0,20.0,0.0,0.0,1.0,4.72,-0.027,-0.073,-0.452,43.0,25.93,0.0,19.0,3235.0,23.0,3.99,-0.07,-1.03,0.03,-3.49,1.72,-2.36,222.0,,,0.0,1.0,1.0,100.0
10320,1,walk,walk,10133,,10133.0,20.0,0.0,0.0,1.0,4.42,-0.027,0.065,-0.258,43.0,25.93,0.0,19.0,3235.0,23.0,3.96,-0.07,-1.03,0.03,-3.19,1.55,-1.22,222.0,,,0.0,1.0,1.0,100.0
10340,1,walk,walk,10134,,10134.0,20.0,0.0,0.0,1.0,4.14,-0.027,0.065,-0.258,43.0,25.93,0.0,39.0,3235.0,23.0,3.96,-0.07,-1.03,0.03,-2.91,1.38,-0.26,222.0,,,0.0,1.0,1.0,100.0
10360,1,walk,walk,10135,,10135.0,20.0,0.0,0.0,1.0,3.89,-0.027,0.065,-0.258,43.0,25.93,0.0,59.0,3235.0,23.0,3.96,-0.07,-1.02,0.02,-2.65,1.2,0.54,222.0,,,0.0,1.0,1.0,100.0
10380,1,walk,walk,10136,,10136.0,20.0,0.0,0.0,1.0,3.67,-0.03,-0.563,0.0,43.0,25.97,0.0,5.0,3235.0,23.0,3.98,-0.07,-1.02,0.02,-2.44,1.01,1.22,222.0,,,0.0,1.0,1.0,100.0
10400,1,walk,walk,10137,,10137.0,20.0,0.0,0.0,1.0,3.47,-0.031,-0.148,0.0,43.0,25.97,0.0,5.0,3235.0,23.0,4.01,-0.07,-1.02,0.02,-2.29,0.85,1.81,222.0,,,0.0,1.0,1.0,100.0
10420,1,walk,walk,10138,,10138.0,20.0,0.0,0.0,1.0,3.3,-0.034,-0.163,0.0,43.0,25.97,0.0,5.0,3235.0,23.0,4.05,-0.07,-1.02,0.02,-2.22,0.7,2.33,222.0,,,0.0,1.0,1.0,100.0
10440,1,walk,walk,10139,,10139.0,20.0,0.0,0.0,1.0,3.16,-0.035,-0.072,0.0,43.0,25.97,0.0,5.0,3235.0,23.0,4.11,-0.07,-1.02,0.02,-2.24,0.6,2.78,222.0,,,0.0,1.0,1.0,100.0
10460,1,walk,walk,10140,,10140.0,20.0,0.0,0.0,1.0,3.05,-0.036,-0.022,0.0,43.0,25.97,0.0,5.0,3235.0,23.0,4.18,-0.07,-1.02,0.02,-2.38,0.53,3.14,222.0,,,0.0,1.0,1.0,100.0
10480,1,walk,walk,10141,,10141.0,20.0,0.0,0.0,1.0,2.96,-0.036,0.023,0.0,43.0,25.97,0.0,5.0,3235.0,23.0,4.26,-0.08,-1.02,0.02,-2.66,0.49,3.39,222.0,,,0.0,1.0,1.0,100.0
10500,1,walk,walk,10142,,10142.0,20.0,0.0,0.0,1.0,2.89,-0.036,-0.003,0.0,43.0,25.97,0.0,5.0,3235.0,23.0,4.36,-0.08,-1.02,0.02,-3.11,0.48,3.51,222.0,,,0.0,1.0,1.0,100.0
10520,1,walk,walk,10143,,10143.0,20.0,0.0,0.0,1.0,2.84,-0.036,-0.003,0.0,43.0,25.97,0.0,5.0,3235.0,23.0,4.45,-0.08,-1.02,0.02,-3.7,0.5,3.49,222.0,,,0.0,1.0,1.0,100.0
10540,1,walk,walk,10144,,10144.0,20.0,0.0,0.0,1.0,2.81,-0.036,0.021,0.0,43.0,25.97,0.0,5.0,3235.0,23.0,4.55,-0.08,-1.02,0.02,-4.4,0.54,3.32,222.0,,,0.0,1.0,1.0,100.0
10560,1,walk,walk,10145,,10145.0,20.0,0.0,0.0,1.0,2.8,-0.036,0.053,0.0,43.0,25.97,0.0,5.0,3235.0,23.0,4.62,-0.08,-1.02,0.02,-5.13,0.6,3.03,222.0,,,0.0,1.0,1.0,100.0
10600,1,walk,walk,10146,,10146.0,20.0,0.0,0.0,1.0,2.8,-0.036,0.068,0.0,43.0,25.97,0.0,5.0,3235.0,23.0,4.68,-0.08,-1.02,0.02,-5.8,0.68,2.67,222.0,,,0.0,1.0,1.0,100.0
10600,1,walk,walk,10147,,10147.0,20.0,0.0,0.0,1.0,2.82,-0.036,0.007,0.0,43.0,25.97,0.0,5.0,3235.0,23.0,4.72,-0.08,-1.02,0.01,-6.35,0.77,2.25,222.0,,,0.0,1.0,1.0,100.0
10620,1,walk,walk,10148,,10148.0,20.0,0.0,0.0,1.0,2.85,-0.036,-0.015,0.0,43.0,25.97,0.0,5.0,3235.0,23.0,4.74,-0.08,-1.02,0.01,-6.74,0.88,1.81,222.0,,,0.0,1.0,1.0,100.0
10640,1,walk,walk,10149,,10149.0,20.0,0.0,0.0,1.0,2.89,-0.036,-0.099,0.0,43.0,25.97,0.0,5.0,3235.0,23.0,4.74,-0.08,-1.02,0.0,-6.96,0.98,1.4,222.0,,,0.0,1.0,1.0,100.0
10660,1,walk,walk,10150,,10150.0,20.0,0.0,0.0,1.0,2.94,-0.036,-0.041,0.0,43.0,25.97,0.0,5.0,3235.0,23.0,4.71,-0.08,-1.02,0.0,-6.99,1.08,1.05,222.0,,,0.0,1.0,1.0,100.0
10680,1,walk,walk,10151,,10151.0,20.0,0.0,0.0,1.0,2.99,-0.039,-0.285,0.0,43.0,25.97,0.0,5.0,3235.0,23.0,4.66,-0.08,-1.02,-0.01,-6.83,1.15,0.82,222.0,,,0.0,1.0,1.0,100.0
10700,1,walk,walk,10152,,10152.0,20.0,0.0,0.0,1.0,3.04,-0.046,-0.742,0.0,43.0,25.97,0.0,5.0,3235.0,23.0,4.59,-0.08,-1.02,-0.01,-6.46,1.21,0.81,222.0,,,0.0,1.0,1.0,100.0
10720,1,walk,walk,10153,,10153.0,20.0,0.0,0.0,1.0,3.1,-0.055,-0.434,0.0,43.0,25.97,0.0,5.0,3235.0,23.0,4.5,-0.08,-1.03,-0.02,-5.86,1.24,1.16,222.0,,,0.0,1.0,1.0,100.0
10740,1,walk,walk,10154,,10154.0,20.0,0.0,0.0,1.0,3.16,-0.063,-0.575,0.0,43.0,25.97,0.0,5.0,3235.0,23.0,4.4,-0.08,-1.03,-0.02,-5.02,1.25,1.94,222.0,,,0.0,1.0,1.0,100.0
10760,1,walk,walk,10155,,10155.0,20.0,0.0,0.0,1.0,3.22,-0.074,-1.02,0.0,43.0,25.97,0.0,5.0,3235.0,23.0,4.3,-0.08,-1.03,-0.03,-3.93,1.22,3.18,222.0,,,0.0,1.0,1.0,100.0
10780,1,walk,walk,10156,,10156.0,20.0,0.0,0.0,1.0,3.28,-0.086,-0.762,0.0,43.0,25.97,0.0,5.0,3235.0,23.0,4.22,-0.08,-1.03,-0.03,-2.59,1.16,4.9,222.0,,,0.0,1.0,1.0,100.0
10800,1,walk,walk,10157,,10157.0,20.0,0.0,0.0,1.0,3.34,-0.096,-0.735,0.0,43.0,25.97,0.0,5.0,3235.0,23.0,4.18,-0.08,-1.03,-0.04,-1.02,1.06,7.06,222.0,,,0.0,1.0,1.0,100.0
10820,1,walk,walk,10158,,10158.0,20.0,0.0,0.0,1.0,3.4,-0.107,-0.498,0.0,43.0,25.97,0.0,5.0,3235.0,23.0,4.21,-0.08,-1.04,-0.04,0.75,0.93,9.53,222.0,,,0.0,1.0,1.0,100.0
10840,1,walk,walk,10159,,10159.0,20.0,0.0,0.0,1.0,3.46,-0.114,-0.518,0.0,43.0,25.97,0.0,5.0,3235.0,23.0,4.32,-0.08,-1.04,-0.04,2.65,0.77,12.17,222.0,,,0.0,1.0,1.0,100.0
10860,1,walk,walk,10160,,10160.0,20.0,0.0,0.0,1.0,3.53,-0.122,-0.579,0.0,43.0,25.97,0.0,5.0,3235.0,23.0,4.53,-0.08,-1.04,-0.04,4.63,0.55,14.79,222.0,,,0.0,1.0,1.0,100.0
10900,1,walk,walk,10161,,10161.0,20.0,0.0,0.0,1.0,3.62,-0.132,-0.569,0.0,43.0,25.97,0.0,5.0,3235.0,23.0,4.83,-0.09,-1.04,-0.04,6.61,0.33,17.27,222.0,,,0.0,1.0,1.0,100.0
10920,1,walk,walk,10162,,10162.0,20.0,0.0,0.0,1.0,3.71,-0.139,-0.31,0.0,43.0,25.97,0.0,5.0,3235.0,23.0,5.22,-0.09,-1.03,-0.04,8.51,0.12,19.48,222.0,,,0.0,1.0,1.0,100.0
10940,1,walk,walk,10163,,10163.0,20.0,0.0,0.0,1.0,3.82,-0.141,-0.042,0.0,43.0,25.97,0.0,5.0,3235.0,23.0,5.69,-0.1,-1.03,-0.03,10.23,-0.06,21.27,222.0,,,0.0,1.0,1.0,100.0
10940,1,walk,walk,10164,,10164.0,20.0,0.0,0.0,1.0,3.95,-0.142,-0.068,0.0,43.0,25.97,0.0,5.0,3235.0,23.0,6.23,-0.11,-1.03,-0.03,11.66,-0.21,22.52,222.0,,,0.0,1.0,1.0,100.0
10960,1,walk,walk,10165,,10165.0,20.0,0.0,0.0,1.0,4.1,-0.142,0.011,0.0,43.0,25.97,0.0,5.0,3235.0,23.0,6.81,-0.12,-1.02,-0.02,12.74,-0.32,23.17,222.0,,,0.0,1.0,1.0,100.0
10980,1,walk,walk,10166,,10166.0,20.0,0.0,0.0,1.0,4.28,-0.142,0.084,0.0,43.0,25.97,0.0,5.0,3235.0,23.0,7.41,-0.13,-1.02,-0.01,13.41,-0.41,23.18,222.0,,,0.0,1.0,1.0,100.0
11000,1,walk,walk,10167,,10167.0,20.0,0.0,0.0,1.0,4.48,-0.142,0.111,0.0,43.0,25.97,0.0,5.0,3235.0,23.0,8.01,-0.14,-1.01,-0.01,13.69,-0.48,22.62,222.0,,,0.0,1.0,1.0,100.0
11020,1,walk,walk,10168,,10168.0,20.0,0.0,0.0,1.0,4.71,-0.141,0.064,0.0,43.0,25.97,0.0,5.0,3235.0,23.0,8.59,-0.15,-1.01,0.0,13.58,-0.5,21.55,222.0,,,0.0,1.0,1.0,100.0
11040,1,walk,walk,10169,,10169.0,20.0,0.0,0.0,1.0,4.96,-0.14,-0.026,0.0,43.0,25.97,0.0,5.0,3235.0,23.0,9.13,-0.16,-1.01,0.01,13.15,-0.49,20.08,222.0,,,0.0,1.0,1.0,100.0
11060,1,walk,walk,10170,,10170.0,20.0,0.0,0.0,1.0,5.24,-0.14,-0.046,0.0,43.0,25.97,0.0,5.0,3235.0,23.0,9.62,-0.17,-1.0,0.02,12.49,-0.45,18.31,222.0,,,0.0,1.0,1.0,100.0
11080,1,walk,walk,10171,,10171.0,20.0,0.0,0.0,1.0,5.54,-0.139,0.042,0.0,43.0,25.97,0.0,5.0,3235.0,23.0,10.04,-0.18,-1.0,0.02,11.68,-0.37,16.38,222.0,,,0.0,1.0,1.0,100.0
11120,1,walk,walk,10172,,10172.0,20.0,0.0,0.0,1.0,5.85,-0.139,0.061,0.0,43.0,25.97,0.0,5.0,3235.0,23.0,10.38,-0.18,-1.0,0.03,10.79,-0.27,14.4,222.0,,,0.0,1.0,1.0,100.0
11120,1,walk,walk,10173,,10173.0,20.0,0.0,0.0,1.0,6.18,-0.139,-0.028,0.0,43.0,25.97,0.0,5.0,3235.0,23.0,10.66,-0.19,-1.0,0.03,9.88,-0.17,12.48,222.0,,,0.0,1.0,1.0,100.0
11140,1,walk,walk,10174,,10174.0,20.0,0.0,0.0,1.0,6.52,-0.138,0.077,0.0,43.0,25.97,0.0,5.0,3235.0,23.0,10.88,-0.19,-1.0,0.03,8.99,-0.06,10.69,222.0,,,0.0,1.0,1.0,100.0
11160,1,walk,walk,10175,,10175.0,20.0,0.0,0.0,1.0,6.86,-0.138,0.052,0.0,43.0,25.97,0.0,5.0,3235.0,23.0,11.06,-0.2,-1.0,0.04,8.15,0.05,9.05,222.0,,,0.0,1.0,1.0,100.0
11180,1,walk,walk,10176,,10176.0,20.0,0.0,0.0,1.0,7.21,-0.137,-0.06,0.0,43.0,25.97,0.0,5.0,3235.0,23.0,11.2,-0.2,-1.0,0.04,7.34,0.16,7.58,222.0,,,0.0,1.0,1.0,100.0
11200,1,walk,walk,10177,,10177.0,20.0,0.0,0.0,1.0,7.54,-0.135,0.203,0.0,43.0,25.97,0.0,5.0,3235.0,23.0,11.32,-0.2,-1.0,0.04,6.56,0.26,6.23,222.0,,,0.0,1.0,1.0,100.0
11220,1,walk,walk,10178,,10178.0,20.0,0.0,0.0,1.0,7.87,-0.132,0.198,0.0,42.0,25.97,0.0,5.0,3235.0,23.0,11.43,-0.2,-1.0,0.04,5.79,0.36,4.96,222.0,,,0.0,1.0,1.0,100.0
11260,1,walk,walk,10179,,10179.0,20.0,0.0,0.0,1.0,8.19,-0.128,0.19,0.0,42.0,25.97,0.0,5.0,3235.0,23.0,11.52,-0.2,-1.0,0.04,5.0,0.46,3.7,222.0,,,0.0,1.0,1.0,100.0
11260,1,walk,walk,10180,,10180.0,20.0,0.0,0.0,1.0,8.49,-0.125,0.308,0.0,42.0,25.97,0.0,5.0,3235.0,23.0,11.6,-0.21,-1.0,0.05,4.18,0.58,2.41,222.0,,,0.0,1.0,1.0,100.0
11280,1,walk,walk,10181,,10181.0,20.0,0.0,0.0,1.0,8.78,-0.119,0.551,0.0,42.0,25.97,0.0,5.0,3235.0,23.0,11.66,-0.21,-1.0,0.05,3.31,0.71,1.06,222.0,,,0.0,1.0,1.0,100.0
11300,1,walk,walk,10182,,10182.0,20.0,0.0,6.0,2.0,9.05,-0.113,0.416,0.0,42.0,25.97,0.0,5.0,3235.0,23.0,11.7,-0.21,-1.0,0.05,2.42,0.83,-0.37,222.0,,,0.0,1.0,1.0,100.0
11320,1,walk,walk,10183,,10183.0,20.0,0.0,6.0,2.0,9.29,-0.111,0.279,-0.052,42.0,25.9,0.0,18.0,3235.0,23.0,11.7,-0.21,-1.0,0.05,1.52,0.5,-2.04,222.0,,,0.0,1.0,1.0,100.0
11340,1,walk,walk,10184,,10184.0,20.0,0.0,6.0,2.0,9.52,-0.075,2.649,1.775,42.0,25.79,0.0,18.0,3235.0,23.0,11.7,-0.21,-1.0,0.05,0.66,-0.41,-4.3,222.0,,,0.0,1.0,1.0,100.0
11360,1,walk,walk,10185,,10185.0,20.0,0.0,6.0,2.0,9.72,-0.046,1.415,2.339,42.0,25.79,0.0,18.0,3235.0,23.0,11.63,-0.21,-1.0,0.05,-0.1,-1.77,-7.11,222.0,,,0.0,1.0,1.0,100.0
11380,1,walk,walk,10186,,10186.0,20.0,0.0,6.0,2.0,9.89,-0.032,0.528,2.601,42.0,25.79,0.0,18.0,3235.0,23.0,11.47,-0.2,-1.0,0.05,-0.64,-3.3,-10.08,222.0,,,0.0,1.0,1.0,100.0
11420,1,walk,walk,10187,,10187.0,20.0,1.0,6.0,2.0,10.04,-0.029,0.042,2.998,42.0,25.76,0.0,19.0,3235.0,23.0,11.2,-0.2,-1.0,0.04,-0.91,-4.76,-12.81,222.0,,,0.0,1.0,1.0,100.0
11420,1,walk,walk,10188,,10188.0,20.0,1.0,6.0,2.0,10.16,-0.027,0.092,3.091,42.0,25.76,0.0,19.0,3235.0,23.0,10.84,-0.19,-1.01,0.04,-0.88,-5.99,-14.99,222.0,,,0.0,1.0,1.0,100.0
11440,1,walk,walk,10189,,10189.0,20.0,1.0,6.0,2.0,10.25,-0.027,-0.001,3.184,42.0,25.76,0.0,19.0,3235.0,23.0,10.41,-0.19,-1.01,0.04,-0.55,-6.9,-16.39,222.0,,,0.0,1.0,1.0,100.0
11460,1,walk,walk,10190,,10190.0,20.0,1.0,6.0,2.0,10.3,-0.027,-0.061,3.243,42.0,25.72,0.0,19.0,3235.0,23.0,9.92,-0.18,-1.01,0.03,0.08,-7.48,-16.94,222.0,,,0.0,1.0,1.0,100.0
11480,1,walk,walk,10191,,10191.0,20.0,1.0,6.0,2.0,10.32,-0.027,0.053,3.322,42.0,25.72,0.0,19.0,3235.0,23.0,9.4,-0.17,-1.02,0.03,0.97,-7.76,-16.63,222.0,,,0.0,1.0,1.0,100.0
11500,1,walk,walk,10192,,10192.0,20.0,1.0,6.0,2.0,10.31,-0.028,-0.013,3.468,42.0,25.72,0.0,19.0,3235.0,23.0,8.86,-0.16,-1.02,0.03,2.11,-7.77,-15.51,222.0,,,0.0,1.0,1.0,100.0
11520,1,walk,walk,10193,,10193.0,20.0,1.0,6.0,2.0,10.26,-0.029,0.006,3.437,42.0,25.69,0.0,19.0,3235.0,23.0,8.3,-0.15,-1.03,0.03,3.44,-7.57,-13.66,222.0,,,0.0,1.0,1.0,100.0
11560,1,walk,walk,10194,,10194.0,20.0,1.0,6.0,2.0,10.18,-0.029,0.026,3.493,42.0,25.69,0.0,19.0,3235.0,23.0,7.72,-0.14,-1.04,0.03,4.96,-7.18,-11.12,222.0,,,0.0,1.0,1.0,100.0
11580,1,walk,walk,10195,,10195.0,20.0,1.0,6.0,2.0,10.07,-0.029,0.084,3.469,42.0,25.69,0.0,19.0,3235.0,23.0,7.12,-0.13,-1.04,0.03,6.61,-6.61,-7.96,222.0,,,0.0,1.0,1.0,100.0
11580,1,walk,walk,10196,,10196.0,20.0,1.0,6.0,2.0,9.94,-0.028,0.109,3.324,42.0,25.72,0.0,19.0,3235.0,23.0,6.53,-0.12,-1.05,0.03,8.39,-5.86,-4.23,222.0,,,0.0,1.0,1.0,100.0
11620,1,walk,walk,10197,,10197.0,20.0,1.0,6.0,2.0,9.8,-0.026,0.222,3.005,42.0,25.76,0.0,19.0,3235.0,23.0,5.96,-0.11,-1.06,0.03,10.26,-4.9,-0.03,222.0,,,0.0,1.0,1.0,100.0
11620,1,walk,walk,10198,,10198.0,20.0,1.0,6.0,2.0,9.64,-0.023,0.228,2.532,42.0,25.79,0.0,19.0,3235.0,23.0,5.43,-0.1,-1.08,0.03,12.22,-3.71,4.56,222.0,,,0.0,1.0,1.0,100.0
11640,1,walk,walk,10199,,10199.0,20.0,1.0,6.0,2.0,9.47,-0.019,0.28,2.013,42.0,25.83,0.0,19.0,3235.0,23.0,4.98,-0.09,-1.09,0.04,14.25,-2.25,9.4,222.0,,,0.0,1.0,1.0,100.0
11660,1,walk,walk,10200,,10200.0,20.0,1.0,6.0,2.0,9.31,-0.015,0.253,1.631,42.0,25.9,0.0,19.0,3235.0,23.0,4.63,-0.09,-1.1,0.04,16.41,-0.43,14.34,222.0,,,0.0,1.0,1.0,100.0
11680,1,walk,walk,10201,,10201.0,20.0,1.0,6.0,2.0,9.16,-0.011,0.26,1.18,42.0,25.9,0.0,19.0,3235.0,23.0,4.38,-0.08,-1.11,0.05,18.73,1.83,19.22,222.0,,,0.0,1.0,1.0,100.0
11700,1,walk,walk,10202,,10202.0,20.0,1.0,6.0,2.0,9.02,-0.007,0.21,0.781,42.0,25.93,0.0,19.0,3235.0,23.0,4.24,-0.08,-1.12,0.05,21.22,4.57,23.88,222.0,,,0.0,1.0,1.0,100.0
11720,1,walk,walk,10203,,10203.0,20.0,1.0,6.0,2.0,8.91,-0.005,0.076,0.482,42.0,25.93,0.0,19.0,3235.0,23.0,4.2,-0.08,-1.12,0.06,23.83,7.88,28.09,222.0,,,0.0,1.0,1.0,100.0
11740,1,walk,walk,10204,,10204.0,20.0,1.0,6.0,2.0,8.84,-0.004,0.144,0.307,42.0,25.93,0.0,19.0,3235.0,23.0,4.21,-0.08,-1.12,0.07,26.44,12.0,31.54,222.0,,,0.0,1.0,1.0,100.0
11780,1,walk,walk,10205,,10205.0,20.0,1.0,6.0,2.0,8.8,-0.004,-0.007,0.436,42.0,25.93,0.0,19.0,3235.0,23.0,4.22,-0.08,-1.11,0.07,28.9,17.16,33.96,222.0,,,0.0,1.0,1.0,100.0
11780,1,walk,walk,10206,,10206.0,20.0,1.0,6.0,2.0,8.81,-0.004,0.006,0.433,42.0,25.93,0.0,19.0,3235.0,23.0,4.23,-0.08,-1.1,0.08,31.1,23.46,35.19,222.0,,,0.0,1.0,1.0,100.0
11800,1,walk,walk,10207,,10207.0,20.0,1.0,6.0,2.0,8.87,-0.004,0.112,0.406,42.0,25.93,0.0,19.0,3235.0,23.0,4.24,-0.08,-1.08,0.08,32.93,30.81,35.12,222.0,,,0.0,1.0,1.0,100.0
11820,1,walk,walk,10208,,10208.0,20.0,0.0,6.0,2.0,8.97,-0.004,-0.115,0.414,42.0,25.93,0.0,18.0,3235.0,23.0,4.29,-0.08,-1.06,0.08,34.33,38.95,33.69,222.0,,,0.0,1.0,1.0,100.0
11840,1,walk,walk,10209,,10209.0,20.0,1.0,6.0,2.0,9.12,-0.003,0.128,0.353,42.0,25.93,0.0,19.0,3235.0,23.0,4.42,-0.08,-1.04,0.08,35.27,47.53,30.89,222.0,,,0.0,1.0,1.0,100.0
11860,1,walk,walk,10210,,10210.0,20.0,1.0,6.0,2.0,9.32,-0.003,0.006,0.417,42.0,25.93,0.0,19.0,3235.0,23.0,4.67,-0.08,-1.01,0.07,35.73,56.19,26.78,222.0,,,0.0,1.0,1.0,100.0
11880,1,walk,walk,10211,,10211.0,20.0,1.0,6.0,2.0,9.55,-0.004,0.015,0.417,42.0,25.93,0.0,19.0,3235.0,23.0,5.06,-0.09,-0.99,0.07,35.71,64.62,21.49,222.0,,,0.0,1.0,1.0,100.0
11900,1,walk,walk,10212,,10212.0,20.0,1.0,6.0,2.0,9.82,-0.004,0.003,0.376,42.0,25.93,0.0,19.0,3235.0,23.0,5.63,-0.09,-0.96,0.06,35.2,72.65,15.23,222.0,,,0.0,1.0,1.0,100.0
11940,1,walk,walk,10213,,10213.0,20.0,1.0,1.0,5.0,10.11,-0.004,0.062,0.467,42.0,25.93,0.0,19.0,2978.0,24.0,6.36,-0.1,-0.94,0.05,34.21,80.23,8.25,222.0,,,0.0,1.0,1.0,100.0
11940,1,walk,walk,10214,,10214.0,20.0,0.0,1.0,5.0,10.41,-0.004,0.048,0.419,42.0,25.9,0.0,19.0,2978.0,24.0,7.3,-0.12,-0.91,0.05,32.81,87.49,1.07,222.0,,,0.0,1.0,1.0,100.0
11960,1,walk,walk,10215,,10215.0,20.0,0.0,1.0,6.0,10.71,-0.046,-3.64,-0.706,42.0,25.9,0.0,19.0,2978.0,24.0,8.48,-0.13,-0.89,0.04,31.0,94.57,-5.78,222.0,,,0.0,1.0,1.0,100.0
11980,1,walk,walk,10216,,10216.0,20.0,0.0,1.0,6.0,11.0,-0.098,-3.097,-1.016,42.0,25.86,0.0,19.0,2978.0,24.0,9.91,-0.15,-0.87,0.03,28.8,101.42,-12.06,222.0,,,0.0,1.0,1.0,100.0
12000,1,walk,walk,10217,,10217.0,20.0,0.0,1.0,6.0,11.27,-0.14,-2.479,-1.641,42.0,25.79,0.0,19.0,2978.0,24.0,11.61,-0.18,-0.86,0.02,26.29,107.72,-17.71,222.0,,,0.0,1.0,1.0,100.0
12020,1,walk,walk,10218,,10218.0,20.0,0.0,1.0,6.0,11.51,-0.175,-2.125,-2.009,42.0,25.79,0.0,19.0,2978.0,24.0,13.57,-0.2,-0.84,0.01,23.6,113.03,-22.73,222.0,,,0.0,1.0,1.0,100.0
12040,1,walk,walk,10219,,10219.0,20.0,0.0,1.0,6.0,11.71,-0.204,-1.932,-2.5,42.0,25.76,0.0,19.0,2978.0,24.0,15.73,-0.24,-0.84,-0.01,20.92,116.94,-27.15,222.0,,,0.0,1.0,1.0,100.0
12060,1,walk,walk,10220,,10220.0,20.0,0.0,1.0,6.0,11.86,-0.226,-1.07,-3.204,42.0,25.69,0.0,19.0,2978.0,24.0,17.86,-0.27,-0.84,-0.02,18.67,119.61,-30.45,222.0,,,0.0,1.0,1.0,100.0
12120,1,walk,walk,10221,,10221.0,20.0,0.0,1.0,6.0,11.95,-0.234,-0.578,-4.303,42.0,25.51,0.0,19.0,2978.0,24.0,19.79,-0.31,-0.85,-0.02,16.97,120.91,-32.39,222.0,,,0.0,1.0,1.0,100.0
12120,1,walk,walk,10222,,10222.0,20.0,0.0,1.0,6.0,12.0,-0.242,-0.197,-5.121,42.0,25.44,0.0,19.0,2978.0,24.0,21.35,-0.34,-0.87,-0.02,15.71,120.37,-33.01,222.0,,,0.0,1.0,1.0,100.0
12120,1,walk,walk,10223,,10223.0,20.0,0.0,3.0,7.0,11.99,-0.245,-0.093,-5.622,42.0,25.37,0.0,19.0,2978.0,24.0,22.44,-0.37,-0.9,-0.02,14.71,117.78,-32.33,222.0,,,0.0,1.0,1.0,100.0
12140,1,walk,walk,10224,,10224.0,20.0,0.0,3.0,7.0,11.93,-0.247,-0.158,-5.719,42.0,25.33,0.0,19.0,2978.0,24.0,23.04,-0.39,-0.92,-0.01,13.69,113.21,-30.5,222.0,,,0.0,1.0,1.0,100.0
12160,1,walk,walk,10225,,10225.0,20.0,0.0,3.0,7.0,11.82,-0.249,-0.056,-5.81,42.0,25.33,0.0,19.0,2978.0,24.0,23.19,-0.41,-0.95,0.0,12.5,106.86,-27.75,222.0,,,0.0,1.0,1.0,100.0
12180,1,walk,walk,10226,,10226.0,20.0,0.0,3.0,7.0,11.67,-0.25,-0.096,-5.744,42.0,25.37,0.0,19.0,2978.0,24.0,23.0,-0.41,-0.97,0.02,11.1,99.05,-24.37,222.0,,,0.0,1.0,1.0,100.0
12200,1,walk,walk,10227,,10227.0,20.0,0.0,3.0,7.0,11.49,-0.249,-0.029,-5.429,42.0,25.44,0.0,19.0,2978.0,24.0,22.55,-0.41,-0.99,0.03,9.59,90.16,-20.58,222.0,,,0.0,1.0,1.0,100.0
12260,1,walk,walk,10228,,10228.0,20.0,0.0,3.0,7.0,11.29,-0.248,0.195,-4.973,42.0,25.51,0.0,19.0,2978.0,24.0,21.91,-0.4,-1.0,0.04,8.11,80.66,-16.64,222.0,,,0.0,1.0,1.0,100.0
12260,1,walk,walk,10229,,10229.0,20.0,0.0,3.0,7.0,11.07,-0.243,0.547,-4.715,42.0,25.62,0.0,19.0,2978.0,24.0,21.1,-0.39,-1.02,0.04,6.8,71.07,-12.78,222.0,,,0.0,1.0,1.0,100.0
12260,1,walk,walk,10230,,10230.0,20.0,0.0,3.0,7.0,10.84,-0.233,0.704,-4.259,42.0,25.65,0.0,19.0,2978.0,24.0,20.2,-0.38,-1.03,0.05,5.76,61.85,-9.19,222.0,,,0.0,1.0,1.0,100.0
12280,1,walk,walk,10231,,10231.0,20.0,0.0,3.0,7.0,10.61,-0.22,0.839,-3.568,42.0,25.76,0.0,19.0,2978.0,24.0,19.34,-0.36,-1.03,0.05,5.02,53.17,-6.11,222.0,,,0.0,1.0,1.0,100.0
12300,1,walk,walk,10232,,10232.0,20.0,0.0,3.0,7.0,10.4,-0.206,0.908,-2.774,42.0,25.86,0.0,19.0,2978.0,24.0,18.56,-0.35,-1.03,0.05,4.53,45.1,-3.78,222.0,,,0.0,1.0,1.0,100.0
12320,1,walk,walk,10233,,10233.0,20.0,0.0,0.0,1.0,10.2,-0.187,1.318,-1.884,42.0,25.93,0.0,19.0,2978.0,24.0,17.89,-0.33,-1.03,0.05,4.21,37.66,-2.39,222.0,,,0.0,1.0,1.0,100.0
12340,1,walk,walk,10234,,10234.0,20.0,0.0,0.0,1.0,10.02,-0.162,2.036,-0.974,42.0,25.93,0.0,19.0,2978.0,24.0,17.35,-0.32,-1.03,0.06,3.99,31.0,-2.25,222.0,,,0.0,1.0,1.0,100.0
12360,1,walk,walk,10235,,10235.0,20.0,0.0,0.0,1.0,9.86,-0.162,2.036,-0.974,42.0,25.93,0.0,39.0,2978.0,24.0,16.94,-0.31,-1.03,0.06,3.76,25.15,-3.2,222.0,,,0.0,1.0,1.0,100.0
12400,1,walk,walk,10236,,10236.0,20.0,0.0,0.0,1.0,9.73,-0.162,2.036,-0.974,42.0,25.93,0.0,59.0,2978.0,24.0,16.57,-0.31,-1.03,0.06,3.47,20.18,-4.75,222.0,,,0.0,1.0,1.0,100.0
12400,1,walk,walk,10237,,10237.0,20.0,1.0,0.0,1.0,9.62,-0.111,15.306,0.0,42.0,26.0,0.0,4.0,2978.0,24.0,16.2,-0.3,-1.02,0.06,3.08,16.09,-6.42,222.0,,,0.0,1.0,1.0,100.0
12420,1,walk,walk,10238,,10238.0,20.0,1.0,0.0,1.0,9.54,-0.111,0.065,0.0,42.0,25.97,0.0,4.0,2978.0,24.0,15.82,-0.29,-1.02,0.07,2.58,12.77,-7.95,222.0,,,0.0,1.0,1.0,100.0
12440,1,walk,walk,10239,,10239.0,20.0,1.0,0.0,1.0,9.48,-0.11,0.061,0.0,42.0,25.97,0.0,4.0,2978.0,24.0,15.41,-0.28,-1.02,0.07,1.97,10.14,-9.18,222.0,,,0.0,1.0,1.0,100.0
12460,1,walk,walk,10240,,10240.0,20.0,1.0,0.0,1.0,9.43,-0.11,0.033,0.0,42.0,25.97,0.0,4.0,2978.0,24.0,14.97,-0.27,-1.01,0.07,1.31,8.06,-10.0,222.0,,,0.0,1.0,1.0,100.0
12480,1,walk,walk,10241,,10241.0,20.0,1.0,0.0,1.0,9.39,-0.11,0.038,0.0,42.0,25.97,0.0,4.0,2978.0,24.0,14.5,-0.26,-1.01,0.07,0.62,6.44,-10.42,222.0,,,0.0,1.0,1.0,100.0
12520,1,walk,walk,10242,,10242.0,20.0,1.0,0.0,1.0,9.36,-0.11,-0.135,0.0,42.0,25.97,0.0,4.0,2978.0,24.0,14.03,-0.25,-1.01,0.07,-0.04,5.18,-10.45,222.0,,,0.0,1.0,1.0,100.0
12540,1,walk,walk,10243,,10243.0,20.0,1.0,0.0,1.0,9.34,-0.11,-0.091,0.0,42.0,25.97,0.0,4.0,2978.0,24.0,13.55,-0.24,-1.01,0.07,-0.65,4.2,-10.14,222.0,,,0.0,1.0,1.0,100.0
12540,1,walk,walk,10244,,10244.0,20.0,1.0,0.0,1.0,9.31,-0.11,-0.023,0.0,42.0,25.97,0.0,4.0,2978.0,24.0,13.08,-0.23,-1.01,0.07,-1.19,3.43,-9.54,222.0,,,0.0,1.0,1.0,100.0
12560,1,walk,walk,10245,,10245.0,20.0,1.0,0.0,1.0,9.28,-0.111,0.01,0.0,42.0,25.97,0.0,4.0,2978.0,24.0,12.63,-0.23,-1.01,0.07,-1.63,2.83,-8.71,222.0,,,0.0,1.0,1.0,100.0
12580,1,walk,walk,10246,,10246.0,20.0,1.0,0.0,1.0,9.25,-0.112,-0.048,0.0,42.0,25.97,0.0,4.0,2978.0,24.0,12.21,-0.22,-1.01,0.07,-1.98,2.37,-7.71,222.0,,,0.0,1.0,1.0,100.0
12620,1,walk,walk,10247,,10247.0,20.0,1.0,0.0,1.0,9.21,-0.113,-0.053,0.0,42.0,25.97,0.0,4.0,2978.0,24.0,11.84,-0.21,-1.01,0.06,-2.24,2.0,-6.6,222.0,,,0.0,1.0,1.0,100.0
12640,1,walk,walk,10248,,10248.0,20.0,1.0,0.0,1.0,9.17,-0.114,-0.104,0.0,42.0,25.97,0.0,4.0,2978.0,24.0,11.51,-0.21,-1.01,0.06,-2.42,1.72,-5.45,222.0,,,0.0,1.0,1.0,100.0
12640,1,walk,walk,10249,,10249.0,20.0,1.0,0.0,1.0,9.12,-0.115,-0.033,0.0,42.0,25.97,0.0,4.0,2978.0,24.0,11.23,-0.2,-1.01,0.06,-2.55,1.51,-4.31,222.0,,,0.0,1.0,1.0,100.0
12660,1,walk,walk,10250,,10250.0,20.0,1.0,0.0,1.0,9.07,-0.116,-0.116,0.0,42.0,25.97,0.0,4.0,2978.0,24.0,11.0,-0.2,-1.01,0.06,-2.64,1.35,-3.25,222.0,,,0.0,1.0,1.0,100.0
12680,1,walk,walk,10251,,10251.0,20.0,1.0,0.0,1.0,9.02,-0.117,-0.005,0.0,42.0,25.97,0.0,4.0,2978.0,24.0,10.82,-0.19,-1.01,0.06,-2.71,1.23,-2.29,222.0,,,0.0,1.0,1.0,100.0
12700,1,walk,walk,10252,,10252.0,20.0,0.0,0.0,1.0,8.97,-0.117,-0.084,0.0,42.0,25.97,0.0,3.0,2978.0,24.0,10.68,-0.19,-1.01,0.05,-2.77,1.14,-1.44,222.0,,,0.0,1.0,1.0,100.0
12740,1,walk,walk,10253,,10253.0,20.0,0.0,0.0,1.0,8.92,-0.12,-0.236,0.0,42.0,25.97,0.0,3.0,2978.0,24.0,10.58,-0.19,-1.01,0.05,-2.82,1.08,-0.69,222.0,,,0.0,1.0,1.0,100.0
12740,1,walk,walk,10254,,10254.0,20.0,0.0,0.0,1.0,8.87,-0.123,-0.453,0.0,42.0,25.97,0.0,3.0,2978.0,24.0,10.49,-0.19,-1.01,0.05,-2.87,1.04,0.02,222.0,,,0.0,1.0,1.0,100.0
12760,1,walk,walk,10255,,10255.0,20.0,0.0,0.0,1.0,8.82,-0.127,-0.199,0.0,42.0,25.93,0.0,3.0,2978.0,24.0,10.42,-0.19,-1.01,0.05,-2.9,1.02,0.73,222.0,,,0.0,1.0,1.0,100.0
12780,1,walk,walk,10256,,10256.0,20.0,0.0,0.0,1.0,8.78,-0.131,-0.155,0.0,42.0,25.97,0.0,3.0,2978.0,24.0,10.37,-0.19,-1.01,0.05,-2.92,0.99,1.44,222.0,,,0.0,1.0,1.0,100.0
12800,1,walk,walk,10257,,10257.0,20.0,0.0,0.0,1.0,8.75,-0.132,-0.193,0.0,42.0,25.97,0.0,3.0,2978.0,24.0,10.33,-0.18,-1.01,0.05,-2.9,0.95,2.13,222.0,,,0.0,1.0,1.0,100.0
12820,1,walk,walk,10258,,10258.0,20.0,0.0,0.0,1.0,8.73,-0.134,-0.105,0.0,42.0,25.97,0.0,3.0,2978.0,24.0,10.32,-0.18,-1.01,0.04,-2.85,0.9,2.76,222.0,,,0.0,1.0,1.0,100.0
12840,1,walk,walk,10259,,10259.0,20.0,0.0,0.0,1.0,8.71,-0.136,-0.126,0.0,42.0,25.97,0.0,3.0,2978.0,24.0,10.33,-0.18,-1.01,0.04,-2.75,0.86,3.32,222.0,,,0.0,1.0,1.0,100.0
12860,1,walk,walk,10260,,10260.0,20.0,0.0,0.0,1.0,8.7,-0.138,0.037,0.0,42.0,25.97,0.0,3.0,2978.0,24.0,10.37,-0.18,-1.01,0.04,-2.63,0.83,3.76,222.0,,,0.0,1.0,1.0,100.0
12900,1,walk,walk,10261,,10261.0,20.0,0.0,0.0,1.0,8.7,-0.138,0.007,0.0,42.0,25.97,0.0,3.0,2978.0,24.0,10.43,-0.19,-1.01,0.04,-2.5,0.83,4.03,222.0,,,0.0,1.0,1.0,100.0
12900,1,walk,walk,10262,,10262.0,20.0,0.0,0.0,1.0,8.72,-0.138,-0.002,0.0,42.0,25.97,0.0,3.0,2978.0,24.0,10.51,-0.19,-1.01,0.04,-2.38,0.85,4.13,222.0,,,0.0,1.0,1.0,100.0
12920,1,walk,walk,10263,,10263.0,20.0,0.0,0.0,1.0,8.74,-0.138,-0.053,0.0,42.0,25.97,0.0,3.0,2978.0,24.0,10.6,-0.19,-1.01,0.04,-2.31,0.89,4.05,222.0,,,0.0,1.0,1.0,100.0
12940,1,walk,walk,10264,,10264.0,20.0,0.0,0.0,1.0,8.77,-0.138,-0.075,0.0,42.0,25.97,0.0,3.0,2978.0,24.0,10.69,-0.19,-1.01,0.04,-2.3,0.96,3.79,222.0,,,0.0,1.0,1.0,100.0
12960,1,walk,walk,10265,,10265.0,20.0,0.0,0.0,1.0,8.81,-0.138,-0.033,0.0,42.0,25.97,0.0,3.0,2978.0,24.0,10.79,-0.19,-1.01,0.04,-2.37,1.07,3.39,222.0,,,0.0,1.0,1.0,100.0
13000,1,walk,walk,10266,,10266.0,20.0,0.0,0.0,1.0,8.86,-0.138,0.002,0.0,42.0,25.97,0.0,3.0,2978.0,24.0,10.87,-0.19,-1.0,0.04,-2.54,1.21,2.87,222.0,,,0.0,1.0,1.0,100.0
13000,1,walk,walk,10267,,10267.0,20.0,0.0,0.0,1.0,8.91,-0.138,-0.049,0.0,42.0,25.97,0.0,3.0,2978.0,24.0,10.94,-0.19,-1.0,0.03,-2.83,1.39,2.24,222.0,,,0.0,1.0,1.0,100.0
13020,1,walk,walk,10268,,10268.0,20.0,0.0,0.0,1.0,8.98,-0.137,0.07,0.0,42.0,25.97,0.0,3.0,2978.0,24.0,10.98,-0.19,-1.0,0.03,-3.23,1.58,1.55,222.0,,,0.0,1.0,1.0,100.0
13040,1,walk,walk,10269,,10269.0,20.0,0.0,0.0,1.0,9.04,-0.135,0.238,0.0,42.0,25.97,0.0,3.0,2978.0,24.0,11.02,-0.2,-1.0,0.03,-3.74,1.78,0.77,222.0,,,0.0,1.0,1.0,100.0
13060,1,walk,walk,10270,,10270.0,20.0,0.0,0.0,1.0,9.11,-0.131,0.275,0.0,42.0,25.97,0.0,3.0,2978.0,24.0,11.03,-0.2,-1.0,0.03,-4.35,1.98,-0.1,222.0,,,0.0,1.0,1.0,100.0
13080,1,walk,walk,10271,,10271.0,20.0,1.0,0.0,1.0,9.18,-0.126,0.383,0.0,42.0,25.97,0.0,4.0,2978.0,24.0,11.02,-0.2,-1.0,0.03,-5.04,2.16,-1.08,222.0,,,0.0,1.0,1.0,100.0
13100,1,walk,walk,10272,,10272.0,20.0,1.0,6.0,2.0,9.25,-0.12,0.563,0.0,42.0,25.97,0.0,4.0,2978.0,24.0,11.01,-0.19,-1.0,0.03,-5.75,2.3,-2.2,222.0,,,0.0,1.0,1.0,100.0
13120,1,walk,walk,10273,,10273.0,20.0,0.0,6.0,2.0,9.32,-0.118,0.734,-0.168,42.0,25.93,0.0,17.0,2978.0,24.0,10.98,-0.19,-1.0,0.03,-6.44,2.38,-3.48,222.0,,,0.0,1.0,1.0,100.0
13140,1,walk,walk,10274,,10274.0,20.0,0.0,6.0,2.0,9.38,-0.078,2.749,1.877,42.0,25.79,0.0,17.0,2978.0,24.0,10.96,-0.19,-1.0,0.03,-7.07,2.27,-5.25,222.0,,,0.0,1.0,1.0,100.0
13160,1,walk,walk,10275,,10275.0,20.0,0.0,6.0,2.0,9.43,-0.048,1.366,2.44,42.0,25.79,0.0,17.0,2978.0,24.0,10.88,-0.19,-1.0,0.02,-7.59,1.99,-7.72,222.0,,,0.0,1.0,1.0,100.0
13180,1,walk,walk,10276,,10276.0,20.0,0.0,6.0,2.0,9.48,-0.035,0.394,2.842,42.0,25.79,0.0,17.0,2978.0,24.0,10.72,-0.19,-1.0,0.02,-7.99,1.62,-10.63,222.0,,,0.0,1.0,1.0,100.0
13220,1,walk,walk,10277,,10277.0,20.0,1.0,6.0,2.0,9.51,-0.03,0.179,2.996,42.0,25.76,0.0,18.0,2978.0,24.0,10.46,-0.19,-1.01,0.01,-8.25,1.24,-13.57,222.0,,,0.0,1.0,1.0,100.0
13220,1,walk,walk,10278,,10278.0,20.0,0.0,6.0,2.0,9.53,-0.028,0.093,3.047,42.0,25.76,0.0,17.0,2978.0,24.0,10.11,-0.18,-1.01,0.01,-8.37,0.89,-16.19,222.0,,,0.0,1.0,1.0,100.0
13240,1,walk,walk,10279,,10279.0,20.0,0.0,6.0,2.0,9.53,-0.027,-0.038,3.267,42.0,25.76,0.0,17.0,2978.0,24.0,9.67,-0.17,-1.01,0.0,-8.32,0.54,-18.15,222.0,,,0.0,1.0,1.0,100.0
13260,1,walk,walk,10280,,10280.0,20.0,1.0,6.0,2.0,9.51,-0.028,-0.092,3.473,42.0,25.72,0.0,18.0,2978.0,24.0,9.16,-0.16,-1.01,0.0,-8.07,0.18,-19.26,222.0,,,0.0,1.0,1.0,100.0
13280,1,walk,walk,10281,,10281.0,20.0,1.0,6.0,2.0,9.47,-0.03,-0.13,3.823,42.0,25.69,0.0,18.0,2978.0,24.0,8.61,-0.15,-1.02,-0.01,-7.64,-0.22,-19.42,222.0,,,0.0,1.0,1.0,100.0
13300,1,walk,walk,10282,,10282.0,20.0,1.0,6.0,2.0,9.39,-0.033,-0.263,4.283,42.0,25.62,0.0,18.0,2978.0,24.0,8.06,-0.14,-1.02,-0.01,-7.03,-0.69,-18.63,222.0,,,0.0,1.0,1.0,100.0
13320,1,walk,walk,10283,,10283.0,20.0,1.0,6.0,2.0,9.29,-0.038,-0.336,4.897,42.0,25.51,0.0,18.0,2978.0,24.0,7.54,-0.14,-1.02,-0.01,-6.24,-1.22,-16.92,222.0,,,0.0,1.0,1.0,100.0
13360,1,walk,walk,10284,,10284.0,20.0,1.0,6.0,2.0,9.17,-0.042,-0.21,5.315,42.0,25.47,0.0,18.0,2978.0,24.0,7.09,-0.13,-1.03,-0.02,-5.29,-1.77,-14.48,222.0,,,0.0,1.0,1.0,100.0
13360,1,walk,walk,10285,,10285.0,20.0,1.0,6.0,2.0,9.02,-0.045,-0.111,5.526,42.0,25.4,0.0,18.0,2978.0,24.0,6.76,-0.12,-1.03,-0.02,-4.18,-2.28,-11.55,222.0,,,0.0,1.0,1.0,100.0
13380,1,walk,walk,10286,,10286.0,20.0,1.0,6.0,2.0,8.84,-0.045,0.007,5.499,42.0,25.4,0.0,18.0,2978.0,24.0,6.57,-0.12,-1.03,-0.02,-2.96,-2.69,-8.47,222.0,,,0.0,1.0,1.0,100.0
13400,1,walk,walk,10287,,10287.0,20.0,1.0,6.0,2.0,8.65,-0.045,0.054,5.464,42.0,25.4,0.0,18.0,2978.0,24.0,6.52,-0.12,-1.03,-0.03,-1.64,-2.95,-5.55,222.0,,,0.0,1.0,1.0,100.0
13420,1,walk,walk,10288,,10288.0,20.0,1.0,6.0,2.0,8.45,-0.044,0.066,5.327,42.0,25.44,0.0,18.0,2978.0,24.0,6.59,-0.12,-1.03,-0.03,-0.29,-3.02,-3.02,222.0,,,0.0,1.0,1.0,100.0
13440,1,walk,walk,10289,,10289.0,20.0,1.0,6.0,2.0,8.24,-0.043,0.23,4.995,42.0,25.47,0.0,18.0,2978.0,24.0,6.74,-0.12,-1.03,-0.03,1.03,-2.92,-1.03,222.0,,,0.0,1.0,1.0,100.0
13480,1,walk,walk,10290,,10290.0,20.0,1.0,6.0,2.0,8.03,-0.039,0.163,4.549,42.0,25.54,0.0,18.0,2978.0,24.0,6.93,-0.12,-1.03,-0.03,2.26,-2.66,0.35,222.0,,,0.0,1.0,1.0,100.0
13500,1,walk,walk,10291,,10291.0,20.0,1.0,6.0,2.0,7.83,-0.037,0.089,4.355,42.0,25.58,0.0,18.0,2978.0,24.0,7.13,-0.13,-1.02,-0.03,3.34,-2.29,1.16,222.0,,,0.0,1.0,1.0,100.0
13520,1,walk,walk,10292,,10292.0,20.0,1.0,6.0,2.0,7.64,-0.036,0.091,4.243,42.0,25.58,0.0,18.0,2978.0,24.0,7.3,-0.13,-1.02,-0.02,4.26,-1.84,1.5,222.0,,,0.0,1.0,1.0,100.0
13520,1,walk,walk,10293,,10293.0,20.0,1.0,6.0,2.0,7.46,-0.035,0.025,4.051,42.0,25.62,0.0,18.0,2978.0,24.0,7.42,-0.13,-1.02,-0.02,5.01,-1.35,1.51,222.0,,,0.0,1.0,1.0,100.0
13540,1,walk,walk,10294,,10294.0,20.0,1.0,6.0,2.0,7.29,-0.033,0.068,4.001,42.0,25.65,0.0,18.0,2978.0,24.0,7.48,-0.13,-1.02,-0.02,5.58,-0.85,1.33,222.0,,,0.0,1.0,1.0,100.0
13560,1,walk,walk,10295,,10295.0,20.0,1.0,6.0,2.0,7.15,-0.033,-0.01,3.943,42.0,25.62,0.0,18.0,2978.0,24.0,7.46,-0.13,-1.02,-0.01,5.98,-0.37,1.13,222.0,,,0.0,1.0,1.0,100.0
13580,1,walk,walk,10296,,10296.0,20.0,1.0,6.0,2.0,7.03,-0.033,-0.029,3.925,42.0,25.65,0.0,18.0,2978.0,24.0,7.35,-0.13,-1.02,-0.01,6.22,0.1,1.03,222.0,,,0.0,1.0,1.0,100.0
13600,1,walk,walk,10297,,10297.0,20.0,1.0,6.0,2.0,6.92,-0.031,-0.026,3.7,42.0,25.69,0.0,18.0,2978.0,24.0,7.12,-0.13,-1.03,-0.01,6.32,0.59,1.17,222.0,,,0.0,1.0,1.0,100.0
13620,1,walk,walk,10298,,10298.0,20.0,1.0,6.0,2.0,6.83,-0.028,0.268,3.131,42.0,25.72,0.0,18.0,2978.0,24.0,6.75,-0.12,-1.03,0.0,6.33,1.19,1.69,222.0,,,0.0,1.0,1.0,100.0
13640,1,walk,walk,10299,,10299.0,20.0,1.0,6.0,2.0,6.76,-0.023,0.406,2.385,42.0,25.79,0.0,18.0,2978.0,24.0,6.27,-0.11,-1.04,0.0,6.35,1.97,2.68,222.0,,,0.0,1.0,1.0,100.0
13660,1,walk,walk,10300,,10300.0,20.0,1.0,6.0,2.0,6.71,-0.016,0.438,1.687,42.0,25.86,0.0,18.0,2978.0,24.0,5.73,-0.11,-1.05,0.0,6.43,2.94,4.21,222.0,,,0.0,1.0,1.0,100.0
13700,1,walk,walk,10301,,10301.0,20.0,1.0,6.0,2.0,6.67,-0.01,0.379,0.993,42.0,25.9,0.0,18.0,2978.0,24.0,5.23,-0.1,-1.07,0.0,6.64,4.11,6.25,222.0,,,0.0,1.0,1.0,100.0
13700,1,walk,walk,10302,,10302.0,20.0,1.0,6.0,2.0,6.64,-0.006,0.224,0.51,42.0,25.93,0.0,18.0,2978.0,24.0,4.84,-0.09,-1.07,0.01,6.99,5.49,8.67,222.0,,,0.0,1.0,1.0,100.0
13720,1,walk,walk,10303,,10303.0,20.0,1.0,6.0,2.0,6.63,-0.004,0.097,0.355,42.0,25.93,0.0,18.0,2978.0,24.0,4.57,-0.09,-1.08,0.01,7.51,7.17,11.18,222.0,,,0.0,1.0,1.0,100.0
13740,1,walk,walk,10304,,10304.0,20.0,1.0,6.0,2.0,6.63,-0.003,-0.007,0.334,42.0,25.93,0.0,18.0,2978.0,24.0,4.4,-0.08,-1.07,0.01,8.17,9.5,13.27,222.0,,,0.0,1.0,1.0,100.0
13760,1,walk,walk,10305,,10305.0,20.0,1.0,6.0,2.0,6.65,-0.004,-0.013,0.458,42.0,25.93,0.0,18.0,2978.0,24.0,4.32,-0.08,-1.06,0.02,8.92,12.86,14.51,222.0,,,0.0,1.0,1.0,100.0
13780,1,walk,walk,10306,,10306.0,20.0,1.0,6.0,2.0,6.68,-0.004,-0.037,0.509,42.0,25.93,0.0,18.0,2978.0,24.0,4.36,-0.08,-1.04,0.02,9.67,17.46,14.59,222.0,,,0.0,1.0,1.0,100.0
13800,1,walk,walk,10307,,10307.0,20.0,0.0,6.0,2.0,6.73,-0.004,0.044,0.437,42.0,25.93,0.0,17.0,2978.0,24.0,4.67,-0.08,-1.01,0.03,10.31,23.19,13.45,222.0,,,0.0,1.0,1.0,100.0
13820,1,walk,walk,10308,,10308.0,20.0,1.0,6.0,2.0,6.8,-0.008,-0.318,1.139,42.0,25.93,0.0,18.0,2978.0,24.0,5.53,-0.1,-0.98,0.03,10.81,29.43,11.09,222.0,,,0.0,1.0,1.0,100.0
13860,1,walk,walk,10309,,10309.0,20.0,1.0,6.0,2.0,6.88,-0.012,-0.383,1.727,42.0,25.9,0.0,18.0,2978.0,24.0,7.01,-0.12,-0.96,0.02,11.12,35.24,7.61,222.0,,,0.0,1.0,1.0,100.0
13860,1,walk,walk,10310,,10310.0,20.0,1.0,6.0,2.0,6.97,-0.017,-0.108,2.16,42.0,25.86,0.0,18.0,2978.0,24.0,8.72,-0.14,-0.93,0.02,11.05,39.65,3.14,222.0,,,0.0,1.0,1.0,100.0
13880,1,walk,walk,10311,,10311.0,20.0,1.0,6.0,2.0,7.07,-0.012,0.528,1.013,42.0,25.9,0.0,18.0,2978.0,24.0,10.21,-0.17,-0.92,0.01,10.64,42.34,-1.82,222.0,,,0.0,1.0,1.0,100.0
13900,1,walk,walk,10312,,10312.0,20.0,1.0,1.0,5.0,7.18,-0.011,-0.021,1.412,42.0,25.9,0.0,18.0,2978.0,25.0,11.23,-0.18,-0.92,0.01,9.91,43.39,-6.63,222.0,,,0.0,1.0,1.0,100.0
13920,1,walk,walk,10313,,10313.0,20.0,0.0,1.0,6.0,7.29,-0.011,0.011,1.287,42.0,25.9,0.0,19.0,2978.0,25.0,11.71,-0.19,-0.93,0.0,8.83,43.36,-10.74,222.0,,,0.0,1.0,1.0,100.0
13940,1,walk,walk,10314,,10314.0,20.0,0.0,1.0,6.0,7.4,-0.048,-2.759,-1.293,42.0,25.83,0.0,19.0,2978.0,25.0,11.65,-0.19,-0.94,0.0,7.46,42.77,-13.37,222.0,,,0.0,1.0,1.0,100.0
13960,1,walk,walk,10315,,10315.0,20.0,0.0,1.0,6.0,7.5,-0.088,-2.583,-2.505,42.0,25.72,0.0,19.0,2978.0,25.0,11.24,-0.19,-0.95,0.0,5.9,41.95,-14.06,222.0,,,0.0,1.0,1.0,100.0
13980,1,walk,walk,10316,,10316.0,20.0,0.0,3.0,7.0,7.58,-0.12,-1.672,-3.936,42.0,25.51,0.0,19.0,2978.0,25.0,10.64,-0.18,-0.97,0.0,4.24,41.03,-12.91,222.0,,,0.0,1.0,1.0,100.0
14000,1,walk,walk,10317,,10317.0,20.0,0.0,3.0,7.0,7.64,-0.139,-1.044,-5.122,42.0,25.33,0.0,19.0,2978.0,25.0,9.99,-0.17,-0.98,0.0,2.59,39.98,-10.34,222.0,,,0.0,1.0,1.0,100.0
14040,1,walk,walk,10318,,10318.0,20.0,1.0,3.0,7.0,7.69,-0.154,-0.966,-5.698,42.0,25.3,0.0,20.0,2978.0,25.0,9.38,-0.16,-0.99,0.0,1.09,38.65,-6.87,222.0,,,0.0,1.0,1.0,100.0
